time,seconds_elapsed,z,y,x
1776445409798611500,0.077611572265625,-42.7691650390625,5.4820098876953125,6.0183868408203125
1776445409823627300,0.102627197265625,-43.1746826171875,5.23388671875,6.301025390625
1776445409848643300,0.127643310546875,-43.314544677734375,5.1798858642578125,6.22137451171875
1776445409873659400,0.152659423828125,-43.291473388671875,5.4965057373046875,6.4387664794921875
1776445409898675500,0.177675537109375,-43.085540771484375,5.2071075439453125,6.43731689453125
1776445409923690200,0.202690185546875,-43.169403076171875,5.2451934814453125,6.2988739013671875
1776445409948706300,0.227706298828125,-43.436309814453125,5.2455902099609375,6.3681182861328125
1776445409973722000,0.25272216796875,-43.204193115234375,5.1596832275390625,6.2686920166015625
1776445409998738200,0.27773828125,-43.757232666015625,5.12286376953125,6.4886932373046875
1776445410023754200,0.302754150390625,-43.223724365234375,5.2247467041015625,6.5133514404296875
1776445410048769300,0.327769287109375,-43.180206298828125,5.25750732421875,6.6712799072265625
1776445410073785300,0.352785400390625,-43.379913330078125,5.015472412109375,6.965728759765625
1776445410098801400,0.377801513671875,-43.20391845703125,5.2769012451171875,7.4014434814453125
1776445410123817500,0.4028173828125,-43.21807861328125,5.0945281982421875,7.7454986572265625
1776445410148833300,0.427833251953125,-43.373748779296875,4.606292724609375,8.613128662109375
1776445410173848300,0.452848388671875,-42.96392822265625,5.0227203369140625,9.891204833984375
1776445410198864100,0.477864013671875,-42.671539306640625,5.008453369140625,11.31890869140625
1776445410223880200,0.502880126953125,-42.50384521484375,5.0194549560546875,12.386444091796875
1776445410248896300,0.527896240234375,-41.696258544921875,4.341705322265625,13.592636108398438
1776445410273912300,0.552912353515625,-42.1258544921875,3.9400177001953125,13.863861083984375
1776445410298927400,0.57792724609375,-42.36444091796875,3.7276611328125,13.6282958984375
1776445410323943400,0.602943359375,-42.300506591796875,3.725250244140625,13.486984252929688
1776445410348959500,0.62795947265625,-42.66595458984375,3.0268707275390625,13.641632080078125
1776445410373975300,0.652975341796875,-42.19818115234375,2.511993408203125,14.236343383789062
1776445410398991400,0.677991455078125,-42.351165771484375,1.5928192138671875,15.015884399414062
1776445410424007400,0.70300732421875,-41.994537353515625,0.7352294921875,15.8668212890625
1776445410449022200,0.728022216796875,-41.8214111328125,-0.095855712890625,16.812896728515625
1776445410474038300,0.753038330078125,-41.580352783203125,-0.70709228515625,17.223800659179688
1776445410499054300,0.778054443359375,-41.27105712890625,-1.4857025146484375,17.487503051757812
1776445410524070100,0.803070068359375,-41.264862060546875,-2.43133544921875,17.688705444335938
1776445410549086200,0.828086181640625,-41.091094970703125,-3.5052642822265625,18.28460693359375
1776445410574101500,0.8531015625,-41.07110595703125,-3.99462890625,18.52587890625
1776445410599117300,0.878117431640625,-40.82763671875,-5.235687255859375,18.835418701171875
1776445410624133400,0.90313330078125,-40.67242431640625,-5.889404296875,19.139358520507812
1776445410649149200,0.928149169921875,-40.905670166015625,-6.8356781005859375,18.78961181640625
1776445410674165200,0.953165283203125,-40.470611572265625,-7.4120330810546875,18.964523315429688
1776445410699181300,0.978181396484375,-40.011566162109375,-8.413040161132812,19.063018798828125
1776445410724196000,1.003196044921875,-40.036956787109375,-8.899459838867188,18.990386962890625
1776445410749212200,1.028212158203125,-40.067230224609375,-9.591781616210938,19.099838256835938
1776445410774228200,1.053228271484375,-39.83782958984375,-9.610214233398438,18.993881225585938
1776445410799244300,1.078244384765625,-40.21942138671875,-9.809402465820312,18.069747924804688
1776445410824260400,1.10326025390625,-41.11578369140625,-9.96942138671875,16.573974609375
1776445410849275400,1.128275390625,-40.9200439453125,-10.521682739257812,15.742111206054688
1776445410874291200,1.153291259765625,-41.194366455078125,-9.846710205078125,14.919464111328125
1776445410899307300,1.178307373046875,-41.714996337890625,-10.1781005859375,14.503341674804688
1776445410924323300,1.2033232421875,-41.536346435546875,-9.837646484375,14.205856323242188
1776445410949339400,1.22833935546875,-41.5789794921875,-10.115768432617188,14.291778564453125
1776445410974355200,1.253355224609375,-41.122100830078125,-9.929061889648438,14.475357055664062
1776445410999370200,1.278370361328125,-41.544403076171875,-10.476791381835938,14.364974975585938
1776445411024386300,1.30338623046875,-41.296356201171875,-11.08203125,14.092193603515625
1776445411049402000,1.328402099609375,-41.33734130859375,-11.725418090820312,13.21966552734375
1776445411074418400,1.35341845703125,-41.349609375,-12.167999267578125,12.451583862304688
1776445411099434500,1.3784345703125,-41.448577880859375,-12.44354248046875,12.62921142578125
1776445411124450300,1.4034501953125,-41.033416748046875,-13.185470581054688,12.634918212890625
1776445411149466400,1.42846630859375,-41.082977294921875,-12.872817993164062,12.567123413085938
1776445411174481400,1.4534814453125,-40.90521240234375,-13.02880859375,12.816619873046875
1776445411199497200,1.478497314453125,-41.22845458984375,-13.238433837890625,13.037139892578125
1776445411224513300,1.50351318359375,-40.878875732421875,-13.64129638671875,12.283782958984375
1776445411249529300,1.528529296875,-41.083740234375,-13.882064819335938,12.000823974609375
1776445411274545200,1.553545166015625,-41.507659912109375,-14.126022338867188,11.770172119140625
1776445411299561200,1.578561279296875,-41.28204345703125,-14.637557983398438,11.271377563476562
1776445411324576300,1.603576171875,-40.986358642578125,-15.468490600585938,11.29656982421875
1776445411349592300,1.62859228515625,-40.7802734375,-15.810287475585938,11.132766723632812
1776445411374608400,1.6536083984375,-40.496429443359375,-16.616348266601562,11.41412353515625
1776445411399624400,1.67862451171875,-40.587615966796875,-16.946334838867188,11.659820556640625
1776445411424640300,1.70364013671875,-40.199859619140625,-17.058944702148438,11.942535400390625
1776445411449656300,1.72865625,-40.424102783203125,-16.797027587890625,11.516998291015625
1776445411474671400,1.75367138671875,-40.442291259765625,-17.306442260742188,11.17596435546875
1776445411499687200,1.778687255859375,-40.630523681640625,-17.195236206054688,10.7537841796875
1776445411524703200,1.803703125,-40.684967041015625,-17.5030517578125,10.343276977539062
1776445411549719300,1.82871923828125,-40.61956787109375,-17.680801391601562,9.866622924804688
1776445411574735400,1.8537353515625,-40.445892333984375,-17.724258422851562,9.598068237304688
1776445411599751200,1.878751220703125,-40.888946533203125,-17.885025024414062,9.068511962890625
1776445411624767200,1.903767333984375,-40.663665771484375,-18.14068603515625,8.16864013671875
1776445411649779000,1.928779052734375,-40.98114013671875,-18.023910522460938,7.45477294921875
1776445411674795000,1.953794921875,-41.030120849609375,-18.063644409179688,6.275634765625
1776445411699810800,1.978810791015625,-41.41143798828125,-17.950897216796875,5.6899261474609375
1776445411724827000,2.003826904296875,-41.2584228515625,-18.274871826171875,5.0051727294921875
1776445411749843000,2.028843017578125,-41.515045166015625,-18.377578735351562,4.1895904541015625
1776445411774858800,2.053858642578125,-41.665618896484375,-18.768478393554688,4.14312744140625
1776445411799874800,2.078874755859375,-41.98406982421875,-18.481124877929688,3.4730987548828125
1776445411824891000,2.103890869140625,-41.155670166015625,-18.65008544921875,2.2015228271484375
1776445411849905700,2.12890576171875,-41.61199951171875,-18.409530639648438,0.9301605224609375
1776445411874921700,2.153921630859375,-41.2005615234375,-18.441329956054688,-0.54876708984375
1776445411899937800,2.178937744140625,-41.285430908203125,-18.682403564453125,-0.7135162353515625
1776445411924953600,2.20395361328125,-41.427459716796875,-19.072998046875,-0.3775482177734375
1776445411949969700,2.2289697265625,-41.4210205078125,-18.960037231445312,-0.3291473388671875
1776445411974985700,2.25398583984375,-40.728057861328125,-19.383819580078125,-1.4605865478515625
1776445412000001800,2.279001708984375,-40.9818115234375,-19.661346435546875,-2.7863311767578125
1776445412025017900,2.304017822265625,-39.97332763671875,-20.13165283203125,-5.1782684326171875
1776445412050033000,2.329032958984375,-39.779876708984375,-20.478546142578125,-7.251678466796875
1776445412075048700,2.354048583984375,-39.44598388671875,-20.481094360351562,-10.126266479492188
1776445412100064800,2.379064697265625,-38.858673095703125,-19.6641845703125,-11.258316040039062
1776445412125080800,2.404080810546875,-38.43701171875,-19.217025756835938,-13.096771240234375
1776445412150097000,2.429096923828125,-38.356292724609375,-18.719802856445312,-13.908538818359375
1776445412175112700,2.45411279296875,-37.993408203125,-18.283950805664062,-14.443115234375
1776445412200128800,2.479128662109375,-37.805633544921875,-18.072265625,-14.56011962890625
1776445412225144800,2.504144775390625,-38.440521240234375,-18.307632446289062,-14.418075561523438
1776445412250159600,2.52915966796875,-38.832489013671875,-18.116455078125,-14.700286865234375
1776445412275176000,2.554176025390625,-38.4462890625,-17.323928833007812,-15.516738891601562
1776445412300192000,2.57919189453125,-38.475830078125,-16.892822265625,-15.866119384765625
1776445412325207800,2.604207763671875,-38.29937744140625,-16.388717651367188,-16.489089965820312
1776445412350224000,2.629223876953125,-38.073577880859375,-15.937515258789062,-17.065322875976562
1776445412375240000,2.654239990234375,-37.69195556640625,-15.6630859375,-17.493698120117188
1776445412400255700,2.679255859375,-37.848297119140625,-15.022430419921875,-17.486236572265625
1776445412425271800,2.704271728515625,-38.27764892578125,-14.572784423828125,-17.585922241210938
1776445412450287900,2.729287841796875,-38.1103515625,-14.2332763671875,-17.7130126953125
1776445412475302700,2.754302734375,-38.37115478515625,-13.671066284179688,-17.912857055664062
1776445412500318700,2.779318603515625,-38.174835205078125,-13.391693115234375,-17.739822387695312
1776445412525334800,2.804334716796875,-37.980377197265625,-13.20947265625,-18.22076416015625
1776445412550350800,2.829350830078125,-38.000274658203125,-12.786331176757812,-18.231979370117188
1776445412575366700,2.85436669921875,-38.361724853515625,-12.6082763671875,-17.892913818359375
1776445412600382700,2.8793828125,-38.762115478515625,-12.4884033203125,-17.814010620117188
1776445412625398800,2.904398681640625,-38.87432861328125,-12.176223754882812,-17.665573120117188
1776445412650414600,2.92941455078125,-38.9017333984375,-11.66436767578125,-17.19927978515625
1776445412675430700,2.9544306640625,-39.254913330078125,-10.86309814453125,-17.390243530273438
1776445412700446500,2.979446533203125,-39.44696044921875,-9.9927978515625,-17.670639038085938
1776445412725461500,3.00446142578125,-39.07208251953125,-9.284454345703125,-18.21002197265625
1776445412750477300,3.029477294921875,-39.556793212890625,-8.870819091796875,-18.2110595703125
1776445412775493400,3.054493408203125,-39.2603759765625,-7.97003173828125,-18.499374389648438
1776445412800509400,3.079509521484375,-39.502410888671875,-7.4178009033203125,-18.405853271484375
1776445412825525500,3.104525390625,-39.475616455078125,-6.820220947265625,-18.666152954101562
1776445412850541300,3.129541259765625,-38.992156982421875,-6.1410064697265625,-19.59515380859375
1776445412875557400,3.154557373046875,-38.95013427734375,-5.7503662109375,-20.133438110351562
1776445412900573400,3.179573486328125,-39.109954833984375,-4.4487152099609375,-21.200271606445312
1776445412925589200,3.20458935546875,-38.3323974609375,-3.52337646484375,-21.646392822265625
1776445412950605300,3.229605224609375,-37.40533447265625,-1.522979736328125,-22.486175537109375
1776445412975621400,3.254621337890625,-37.442840576171875,-0.579193115234375,-23.184722900390625
1776445413000636400,3.279636474609375,-37.08245849609375,0.6016845703125,-23.296417236328125
1776445413025652500,3.304652587890625,-36.75640869140625,1.3224334716796875,-22.934219360351562
1776445413050668500,3.32966845703125,-37.40008544921875,2.0941009521484375,-22.50445556640625
1776445413075684400,3.354684326171875,-37.573638916015625,3.14947509765625,-21.69158935546875
1776445413100700400,3.379700439453125,-38.1302490234375,4.4000396728515625,-20.56268310546875
1776445413125716500,3.404716552734375,-38.025177001953125,5.3660736083984375,-19.797470092773438
1776445413150732500,3.429732666015625,-38.41033935546875,7.0956573486328125,-18.745254516601562
1776445413175748400,3.454748291015625,-37.675811767578125,8.969772338867188,-18.38507080078125
1776445413200764400,3.479764404296875,-37.187225341796875,11.706771850585938,-17.595626831054688
1776445413225780500,3.504780517578125,-37.23931884765625,12.76947021484375,-16.844039916992188
1776445413250796300,3.52979638671875,-36.727142333984375,14.920059204101562,-15.22064208984375
1776445413275812400,3.554812255859375,-36.072235107421875,16.277511596679688,-14.342529296875
1776445413300828400,3.579828369140625,-36.61761474609375,17.577194213867188,-12.577713012695312
1776445413325843500,3.604843505859375,-36.52587890625,17.930755615234375,-11.570144653320312
1776445413350859500,3.629859619140625,-36.587982177734375,18.30865478515625,-10.177886962890625
1776445413375875600,3.65487548828125,-36.965362548828125,17.738571166992188,-9.577880859375
1776445413400891400,3.679891357421875,-37.8265380859375,17.152084350585938,-9.101058959960938
1776445413425907500,3.704907470703125,-37.774139404296875,16.996124267578125,-8.642349243164062
1776445413450923500,3.729923583984375,-38.47216796875,16.192703247070312,-8.15545654296875
1776445413475939600,3.754939697265625,-38.529052734375,15.531753540039062,-7.6344757080078125
1776445413500955400,3.779955322265625,-39.06036376953125,14.951629638671875,-7.3735198974609375
1776445413525971500,3.804971435546875,-39.10272216796875,15.122573852539062,-7.0838775634765625
1776445413550987500,3.829987548828125,-39.110137939453125,15.217803955078125,-6.6215972900390625
1776445413576003300,3.85500341796875,-39.087432861328125,15.223251342773438,-6.3504180908203125
1776445413601019400,3.880019287109375,-38.73834228515625,15.552719116210938,-6.260223388671875
1776445413626035500,3.905035400390625,-38.84283447265625,16.014175415039062,-6.0759429931640625
1776445413651051500,3.930051513671875,-38.417236328125,16.714508056640625,-5.7495880126953125
1776445413676067600,3.955067626953125,-38.696807861328125,16.902328491210938,-5.64459228515625
1776445413701083600,3.980083740234375,-38.10107421875,16.860244750976562,-5.8719482421875
1776445413726098400,4.005098388671875,-38.1595458984375,16.847930908203125,-5.395843505859375
1776445413751114500,4.030114501953125,-38.73187255859375,16.830535888671875,-5.3685455322265625
1776445413776130600,4.055130615234375,-39.22149658203125,15.873947143554688,-5.2005615234375
1776445413801146600,4.080146728515625,-40.022125244140625,14.385040283203125,-3.514404296875
1776445413826162700,4.10516259765625,-41.080718994140625,12.86480712890625,-1.3659820556640625
1776445413851178800,4.1301787109375,-41.85467529296875,10.515975952148438,1.91448974609375
1776445413876194600,4.155194580078125,-42.18304443359375,9.2115478515625,3.763946533203125
1776445413901210600,4.180210693359375,-42.63189697265625,8.2613525390625,5.68084716796875
1776445413926226700,4.205226806640625,-42.138671875,8.127395629882812,6.597900390625
1776445413951242500,4.230242431640625,-42.067291259765625,8.006805419921875,7.8193359375
1776445413976258600,4.255258544921875,-42.71533203125,7.7367401123046875,8.090118408203125
1776445414001274600,4.280274658203125,-42.455902099609375,7.410980224609375,8.881561279296875
1776445414026290700,4.305290771484375,-41.9552001953125,7.56695556640625,9.366378784179688
1776445414051306500,4.330306396484375,-41.8350830078125,7.254425048828125,10.000625610351562
1776445414076322600,4.355322509765625,-41.657928466796875,7.4654541015625,10.344512939453125
1776445414101338600,4.380338623046875,-41.929229736328125,7.4015045166015625,10.78118896484375
1776445414126354400,4.4053544921875,-41.839202880859375,7.933319091796875,11.034591674804688
1776445414151370500,4.43037060546875,-41.366790771484375,8.216781616210938,11.424835205078125
1776445414176386600,4.455386474609375,-41.300567626953125,8.297622680664062,11.54833984375
1776445414201402600,4.480402587890625,-41.03680419921875,8.11328125,11.994186401367188
1776445414226417700,4.505417724609375,-41.12176513671875,8.300384521484375,12.426651000976562
1776445414251433700,4.530433837890625,-41.286102294921875,8.362014770507812,12.9158935546875
1776445414276449500,4.555449462890625,-40.858612060546875,8.251907348632812,13.310791015625
1776445414301465600,4.580465576171875,-40.298828125,7.9618988037109375,14.1683349609375
1776445414326481700,4.605481689453125,-40.311553955078125,8.161895751953125,14.81719970703125
1776445414351497700,4.630497802734375,-40.878326416015625,6.95648193359375,15.76068115234375
1776445414376513500,4.655513427734375,-40.654266357421875,6.7890625,16.181289672851562
1776445414401529600,4.680529541015625,-40.156280517578125,5.64385986328125,17.146255493164062
1776445414426545700,4.705545654296875,-40.023681640625,4.8667449951171875,18.1602783203125
1776445414451561500,4.7305615234375,-39.9351806640625,4.0477447509765625,19.327102661132812
1776445414476577500,4.75557763671875,-39.456085205078125,3.847381591796875,20.061752319335938
1776445414501593600,4.780593505859375,-39.41143798828125,3.21441650390625,20.679092407226562
1776445414526609700,4.805609619140625,-39.170257568359375,3.200469970703125,20.541824340820312
1776445414551625500,4.83062548828125,-39.254241943359375,2.5166015625,20.684280395507812
1776445414576641500,4.8556416015625,-39.13134765625,1.3032989501953125,20.738357543945312
1776445414601657600,4.88065771484375,-39.342742919921875,0.009552001953125,21.03155517578125
1776445414626673400,4.90567333984375,-39.76806640625,-1.1458740234375,20.536880493164062
1776445414651689500,4.930689453125,-40.301666259765625,-2.934906005859375,19.660751342773438
1776445414676705500,4.95570556640625,-40.523590087890625,-3.765472412109375,19.17584228515625
1776445414701721300,4.980721435546875,-40.470916748046875,-4.8405303955078125,19.488967895507812
1776445414726737400,5.0057373046875,-40.366119384765625,-5.78607177734375,19.528839111328125
1776445414751753500,5.03075341796875,-40.55450439453125,-7.434478759765625,19.2015380859375
1776445414776769500,5.05576953125,-40.624267578125,-8.564620971679688,18.962646484375
1776445414801785300,5.080785400390625,-40.443603515625,-9.727035522460938,18.88482666015625
1776445414826801700,5.1058017578125,-40.119171142578125,-11.224899291992188,19.428619384765625
1776445414851817700,5.130817626953125,-39.568267822265625,-12.341964721679688,19.787933349609375
1776445414876833500,5.15583349609375,-38.465972900390625,-14.501312255859375,20.124954223632812
1776445414901849600,5.180849609375,-38.749298095703125,-15.582321166992188,19.632217407226562
1776445414926865700,5.20586572265625,-38.403839111328125,-16.443679809570312,18.543746948242188
1776445414951881700,5.2308818359375,-38.861297607421875,-16.741378784179688,17.24609375
1776445414976897500,5.2558974609375,-39.466552734375,-16.798187255859375,16.17657470703125
1776445415001912600,5.28091259765625,-39.595489501953125,-17.15008544921875,15.1162109375
1776445415026928600,5.3059287109375,-40.345245361328125,-17.486785888671875,13.79949951171875
1776445415051944400,5.3309443359375,-40.086761474609375,-18.222030639648438,12.853302001953125
1776445415076960500,5.35596044921875,-39.939208984375,-19.2432861328125,11.560470581054688
1776445415101976600,5.3809765625,-39.478790283203125,-20.28955078125,11.554718017578125
1776445415126992400,5.405992431640625,-39.0667724609375,-21.842330932617188,10.87005615234375
1776445415152008400,5.431008544921875,-38.87603759765625,-22.091827392578125,10.578964233398438
1776445415177024500,5.4560244140625,-38.803741455078125,-22.488235473632812,9.777236938476562
1776445415202040300,5.481040283203125,-38.741424560546875,-22.469207763671875,8.97369384765625
1776445415227056400,5.506056396484375,-38.78448486328125,-22.195693969726562,8.842666625976562
1776445415252072400,5.531072509765625,-39.31475830078125,-21.7523193359375,8.814666748046875
1776445415277088800,5.5560888671875,-39.938995361328125,-21.425765991210938,8.347244262695312
1776445415302104600,5.5811044921875,-40.14227294921875,-21.11175537109375,7.73223876953125
1776445415327120600,5.60612060546875,-39.5830078125,-20.818878173828125,6.943145751953125
1776445415352136700,5.63113671875,-39.97247314453125,-20.454452514648438,6.551025390625
1776445415377152500,5.656152587890625,-39.993194580078125,-20.832672119140625,5.6443023681640625
1776445415402168600,5.68116845703125,-40.171600341796875,-20.798141479492188,4.842681884765625
1776445415427184600,5.7061845703125,-40.37786865234375,-21.079940795898438,3.348052978515625
1776445415452200700,5.73120068359375,-40.1895751953125,-21.659896850585938,2.7837677001953125
1776445415477216500,5.756216552734375,-40.107818603515625,-21.532272338867188,2.8717498779296875
1776445415502232600,5.781232666015625,-40.371063232421875,-21.192352294921875,2.621490478515625
1776445415527248600,5.80624853515625,-40.034637451171875,-21.607635498046875,2.8249359130859375
1776445415552264400,5.831264404296875,-39.5958251953125,-21.516983032226562,2.558135986328125
1776445415577280500,5.856280517578125,-39.610687255859375,-21.490066528320312,1.8769989013671875
1776445415602296600,5.881296630859375,-40.152191162109375,-21.087631225585938,0.706146240234375
1776445415627312600,5.906312744140625,-40.36517333984375,-19.872100830078125,-2.4015045166015625
1776445415652329000,5.931328857421875,-40.7269287109375,-18.604415893554688,-5.1023101806640625
1776445415677345000,5.956344970703125,-40.7462158203125,-17.09783935546875,-7.88916015625
1776445415702361000,5.981361083984375,-41.099700927734375,-16.5791015625,-8.627487182617188
1776445415727377000,6.006376953125,-40.539520263671875,-16.845840454101562,-8.446563720703125
1776445415752393000,6.03139306640625,-40.56707763671875,-17.550155639648438,-7.898040771484375
1776445415777409000,6.056408935546875,-40.383026123046875,-18.13018798828125,-7.1809844970703125
1776445415802425000,6.081425048828125,-40.57318115234375,-18.624298095703125,-6.977294921875
1776445415827441000,6.10644091796875,-40.16375732421875,-18.159225463867188,-7.6184844970703125
1776445415852457000,6.13145703125,-40.46820068359375,-17.594284057617188,-8.47125244140625
1776445415877473000,6.15647314453125,-40.337158203125,-17.1513671875,-9.860504150390625
1776445415902488800,6.18148876953125,-40.605560302734375,-16.635528564453125,-10.462493896484375
1776445415927505000,6.2065048828125,-40.282958984375,-16.484725952148438,-11.1920166015625
1776445415952521000,6.23152099609375,-40.128997802734375,-15.726470947265625,-11.83880615234375
1776445415977537300,6.256537353515625,-40.176666259765625,-15.017425537109375,-12.96746826171875
1776445416002553000,6.281552978515625,-40.293365478515625,-14.468246459960938,-13.493972778320312
1776445416027569200,6.306569091796875,-40.2557373046875,-13.228927612304688,-14.617141723632812
1776445416052585200,6.331585205078125,-40.268096923828125,-12.374191284179688,-15.262908935546875
1776445416077601000,6.35660107421875,-39.155853271484375,-10.982345581054688,-16.797744750976562
1776445416102617000,6.3816171875,-39.202239990234375,-10.171066284179688,-17.178939819335938
1776445416127633200,6.406633056640625,-38.699554443359375,-9.09783935546875,-18.237518310546875
1776445416152649200,6.431649169921875,-39.001708984375,-8.529800415039062,-18.633148193359375
1776445416177665000,6.4566650390625,-38.74200439453125,-8.14288330078125,-18.488555908203125
1776445416202681000,6.48168115234375,-39.01751708984375,-7.38037109375,-18.516265869140625
1776445416227697200,6.506697265625,-38.825225830078125,-6.9121856689453125,-18.36151123046875
1776445416252713000,6.531712890625,-38.751495361328125,-6.639892578125,-18.629776000976562
1776445416277729000,6.55672900390625,-38.717803955078125,-5.4116973876953125,-18.923446655273438
1776445416302745000,6.5817451171875,-38.75482177734375,-4.45880126953125,-19.271469116210938
1776445416327761000,6.606760986328125,-39.325164794921875,-2.7835235595703125,-19.290496826171875
1776445416352777000,6.63177685546875,-39.259124755859375,-1.8306884765625,-19.391677856445312
1776445416377793000,6.65679296875,-39.066314697265625,0.073760986328125,-18.489364624023438
1776445416402809000,6.68180908203125,-39.592071533203125,1.1378936767578125,-18.356307983398438
1776445416427825000,6.706824951171875,-39.36187744140625,2.268585205078125,-17.858139038085938
1776445416452841000,6.731841064453125,-39.44024658203125,2.6491241455078125,-17.916122436523438
1776445416477857000,6.75685693359375,-39.458709716796875,3.2763214111328125,-18.04193115234375
1776445416502872800,6.781872802734375,-39.39825439453125,3.581634521484375,-18.174636840820312
1776445416527889000,6.806888916015625,-39.459381103515625,4.1709747314453125,-17.741867065429688
1776445416552905000,6.831905029296875,-39.150115966796875,4.5606536865234375,-17.855209350585938
1776445416577921300,6.85692138671875,-39.542694091796875,4.485809326171875,-17.997543334960938
1776445416602937000,6.88193701171875,-39.4278564453125,4.10906982421875,-17.931381225585938
1776445416627953200,6.906953125,-39.4373779296875,3.7723388671875,-17.888702392578125
1776445416652968700,6.93196875,-39.652313232421875,3.455841064453125,-18.211257934570312
1776445416677984800,6.95698486328125,-39.720245361328125,2.9132843017578125,-17.769744873046875
1776445416703000800,6.982000732421875,-39.762115478515625,3.10308837890625,-17.071975708007812
1776445416728016600,7.0070166015625,-40.37646484375,3.45306396484375,-15.763885498046875
1776445416753032700,7.03203271484375,-40.83685302734375,3.71588134765625,-14.972946166992188
1776445416778048800,7.057048828125,-41.230438232421875,5.278839111328125,-12.94952392578125
1776445416803064600,7.082064697265625,-41.414337158203125,6.1555023193359375,-11.940414428710938
1776445416828080600,7.10708056640625,-41.42218017578125,7.0729522705078125,-11.178131103515625
1776445416853096700,7.1320966796875,-41.3433837890625,8.004852294921875,-10.762008666992188
1776445416878112500,7.157112548828125,-41.098602294921875,8.077926635742188,-10.920364379882812
1776445416903128600,7.182128662109375,-40.846038818359375,8.2762451171875,-11.84967041015625
1776445416928144600,7.20714453125,-41.0628662109375,8.378875732421875,-12.1300048828125
1776445416953160700,7.23216064453125,-40.712738037109375,9.032272338867188,-11.443634033203125
1776445416978176500,7.257176513671875,-40.369781494140625,9.452468872070312,-11.009323120117188
1776445417003192600,7.282192626953125,-40.62420654296875,9.317413330078125,-10.380325317382812
1776445417028208600,7.307208740234375,-41.31597900390625,8.99853515625,-10.031478881835938
1776445417053224400,7.332224365234375,-41.58917236328125,7.8134307861328125,-8.832870483398438
1776445417078240500,7.357240478515625,-42.001800537109375,7.2747039794921875,-7.637664794921875
1776445417103256600,7.382256591796875,-42.532623291015625,6.4167938232421875,-7.1753387451171875
1776445417128273000,7.40727294921875,-42.273284912109375,6.5783233642578125,-7.9434814453125
1776445417153288700,7.432288818359375,-41.652984619140625,7.4261322021484375,-9.972442626953125
1776445417178304800,7.4573046875,-41.09368896484375,8.195281982421875,-11.260421752929688
1776445417203320800,7.48232080078125,-40.205810546875,9.179122924804688,-13.091705322265625
1776445417228336600,7.507336669921875,-39.464111328125,9.794082641601562,-13.606063842773438
1776445417253352700,7.532352783203125,-39.605743408203125,10.320297241210938,-12.913314819335938
1776445417278368800,7.55736865234375,-40.323272705078125,10.233413696289062,-11.222122192382812
1776445417303384800,7.582384765625,-41.043060302734375,10.1331787109375,-7.89129638671875
1776445417328400600,7.607400634765625,-41.60186767578125,9.883819580078125,-6.0860748291015625
1776445417353416700,7.632416748046875,-41.81109619140625,10.195846557617188,-5.4080657958984375
1776445417378432800,7.657432861328125,-41.1580810546875,10.6971435546875,-5.9185638427734375
1776445417403448600,7.682448486328125,-40.934326171875,11.903488159179688,-7.4128265380859375
1776445417428464600,7.707464599609375,-40.329833984375,12.460845947265625,-7.687408447265625
1776445417453480700,7.732480712890625,-40.404266357421875,12.880874633789062,-7.0897674560546875
1776445417478496500,7.75749658203125,-40.599700927734375,13.349838256835938,-6.7751007080078125
1776445417503513600,7.782513671875,-40.51092529296875,13.8924560546875,-4.9681854248046875
1776445417528529700,7.80752978515625,-40.930328369140625,14.165130615234375,-4.57745361328125
1776445417553545700,7.832545654296875,-40.4039306640625,14.688674926757812,-4.2005157470703125
1776445417578561800,7.857561767578125,-40.0321044921875,15.3060302734375,-3.6061248779296875
1776445417603577600,7.88257763671875,-40.065155029296875,15.825515747070312,-2.8090972900390625
1776445417628593700,7.90759375,-39.30841064453125,16.082321166992188,-2.11273193359375
1776445417653609700,7.932609619140625,-39.4544677734375,16.40423583984375,-0.8383026123046875
1776445417678625800,7.957625732421875,-38.982818603515625,17.07763671875,-0.047210693359375
1776445417703641600,7.9826416015625,-39.190521240234375,17.623733520507812,1.2675628662109375
1776445417728657700,8.00765771484375,-38.835906982421875,17.775527954101562,2.75775146484375
1776445417753673700,8.032673828125,-38.651824951171875,17.274948120117188,4.71258544921875
1776445417778689500,8.057689453125,-38.585205078125,16.879959106445312,6.461822509765625
1776445417803705600,8.08270556640625,-38.7698974609375,15.445068359375,8.603271484375
1776445417828721700,8.1077216796875,-38.423553466796875,15.564926147460938,9.567153930664062
1776445417853737700,8.13273779296875,-38.209228515625,15.929244995117188,10.313796997070312
1776445417878753500,8.15775341796875,-37.675750732421875,15.998977661132812,10.859024047851562
1776445417903769900,8.182769775390625,-37.7110595703125,15.615509033203125,11.34088134765625
1776445417928786000,8.207785888671875,-38.283599853515625,15.016159057617188,11.4747314453125
1776445417953801700,8.2328017578125,-38.850830078125,14.047607421875,12.105972290039062
1776445417978817800,8.25781787109375,-39.003814697265625,12.5430908203125,12.89453125
1776445418003833900,8.282833740234375,-39.602783203125,10.379669189453125,15.141799926757812
1776445418028849700,8.307849609375,-39.348663330078125,9.008026123046875,16.236831665039062
1776445418053865700,8.33286572265625,-38.9849853515625,6.6306610107421875,18.15289306640625
1776445418078881800,8.3578818359375,-38.82366943359375,5.4464569091796875,19.484481811523438
1776445418103897900,8.38289794921875,-38.613311767578125,3.774871826171875,20.499771118164062
1776445418128913700,8.40791357421875,-38.954498291015625,3.03271484375,20.381622314453125
1776445418153929700,8.4329296875,-38.410858154296875,2.40643310546875,20.433349609375
1776445418178945800,8.45794580078125,-38.752197265625,2.2222137451171875,20.347076416015625
1776445418203961600,8.482961669921876,-38.785003662109375,3.0686798095703125,20.008132934570312
1776445418228977700,8.507977783203126,-38.8126220703125,3.542266845703125,19.969131469726562
1776445418253993700,8.53299365234375,-39.265350341796875,3.2426300048828125,19.72998046875
1776445418279009800,8.558009765625,-39.25494384765625,2.9197998046875,19.842086791992188
1776445418304025600,8.583025634765624,-39.053924560546875,2.095916748046875,20.00262451171875
1776445418329041700,8.608041748046874,-39.53472900390625,0.8749542236328125,19.7313232421875
1776445418354057700,8.6330576171875,-39.82281494140625,-1.1644287109375,19.728668212890625
1776445418379074800,8.65807470703125,-39.571868896484375,-2.427093505859375,19.680953979492188
1776445418404090600,8.683090576171875,-38.61370849609375,-3.588714599609375,21.508834838867188
1776445418429106700,8.708106689453125,-38.09649658203125,-4.9490814208984375,23.071243286132812
1776445418454122800,8.733122802734375,-36.47698974609375,-7.3427276611328125,25.133514404296875
1776445418479138600,8.758138671875,-35.803619384765625,-9.0400390625,25.62091064453125
1776445418504154600,8.783154541015625,-35.346221923828125,-10.999801635742188,25.777694702148438
1776445418529170700,8.808170654296875,-34.92181396484375,-11.933120727539062,25.32958984375
1776445418554186800,8.833186767578125,-35.9605712890625,-12.7889404296875,24.038742065429688
1776445418579202600,8.85820263671875,-36.727813720703125,-13.17401123046875,22.907745361328125
1776445418604218600,8.883218505859375,-37.7808837890625,-13.656341552734375,20.848403930664062
1776445418629234700,8.908234619140625,-37.8544921875,-14.139556884765625,19.782730102539062
1776445418654251000,8.9332509765625,-37.999176025390625,-14.578338623046875,18.3414306640625
1776445418679266800,8.958266845703125,-38.474700927734375,-15.176956176757812,17.532455444335938
1776445418704283000,8.983282958984375,-38.8338623046875,-15.486419677734375,16.590225219726562
1776445418729299000,9.008298828125,-38.746002197265625,-15.5733642578125,16.092391967773438
1776445418754315300,9.033315185546876,-39.314422607421875,-14.576614379882812,15.600860595703125
1776445418779331000,9.0583310546875,-39.2742919921875,-13.541610717773438,15.66326904296875
1776445418804347100,9.08334716796875,-39.651611328125,-11.50628662109375,15.767532348632812
1776445418829363200,9.10836328125,-39.815032958984375,-10.488845825195312,15.930572509765625
1776445418854379000,9.13337890625,-39.65472412109375,-10.31903076171875,16.573928833007812
1776445418879395000,9.15839501953125,-39.207366943359375,-11.2998046875,16.947647094726562
1776445418904411100,9.1834111328125,-39.356048583984375,-11.622161865234375,16.71368408203125
1776445418929427200,9.20842724609375,-39.149169921875,-12.530532836914062,16.345870971679688
1776445418954443000,9.233443115234374,-39.503143310546875,-13.38323974609375,15.466110229492188
1776445418979459000,9.258458984375,-39.505767822265625,-14.821197509765625,14.045135498046875
1776445419004476200,9.28347607421875,-40.281707763671875,-16.248123168945312,12.068862915039062
1776445419029492200,9.3084921875,-40.116912841796875,-17.7890625,8.016326904296875
1776445419054508000,9.333508056640625,-40.330291748046875,-17.492660522460938,5.371337890625
1776445419079524000,9.358524169921875,-40.647216796875,-17.741775512695312,3.3234100341796875
1776445419104540200,9.3835400390625,-39.8741455078125,-18.36749267578125,2.6446990966796875
1776445419129556000,9.408555908203125,-39.3929443359375,-20.1136474609375,1.653289794921875
1776445419154572000,9.433572021484375,-39.091278076171875,-21.097274780273438,0.4397430419921875
1776445419179588000,9.458588134765625,-39.20050048828125,-21.10540771484375,-0.65008544921875
1776445419204604200,9.483604248046875,-39.05731201171875,-21.019638061523438,-1.9164276123046875
1776445419229620000,9.508619873046875,-38.637542724609375,-21.397247314453125,-3.716766357421875
1776445419254636000,9.533635986328125,-38.462554931640625,-21.380752563476562,-4.9478912353515625
1776445419279652000,9.558652099609375,-38.73907470703125,-21.029312133789062,-5.4615631103515625
1776445419304668000,9.58366796875,-39.14056396484375,-20.507736206054688,-5.1527099609375
1776445419329684000,9.60868408203125,-38.965301513671875,-19.977569580078125,-4.7600860595703125
1776445419354700000,9.633699951171875,-39.327362060546875,-19.899078369140625,-4.34136962890625
1776445419379716000,9.658716064453126,-39.51739501953125,-19.420516967773438,-4.5709075927734375
1776445419404732000,9.68373193359375,-39.481231689453125,-19.077423095703125,-5.5328369140625
1776445419429748000,9.708748046875,-39.459808349609375,-18.221878051757812,-5.780487060546875
1776445419454764000,9.733763916015626,-40.0443115234375,-18.114654541015625,-5.2149505615234375
1776445419479779800,9.75877978515625,-40.37701416015625,-17.078765869140625,-4.7157440185546875
1776445419504797000,9.783796875,-40.22479248046875,-17.172256469726562,-4.5428619384765625
1776445419529813000,9.80881298828125,-40.243499755859375,-17.145492553710938,-4.5621490478515625
1776445419554829000,9.8338291015625,-40.0234375,-17.272109985351562,-5.635894775390625
1776445419579844900,9.858844970703124,-40.001190185546875,-16.959136962890625,-6.5881805419921875
1776445419604861000,9.88386083984375,-40.426483154296875,-16.989410400390625,-6.8829803466796875
1776445419629877000,9.908876953125,-40.79193115234375,-15.87799072265625,-6.762542724609375
1776445419654893000,9.93389306640625,-40.505584716796875,-15.26275634765625,-6.306365966796875
1776445419679909000,9.9589091796875,-41.032806396484375,-14.524093627929688,-5.150634765625
1776445419704925200,9.98392529296875,-40.958282470703125,-13.724639892578125,-4.717559814453125
1776445419729941200,10.008941162109375,-40.919342041015625,-12.88189697265625,-5.1423492431640625
1776445419754957300,10.033957275390625,-41.128173828125,-12.47802734375,-6.3745269775390625
1776445419779973400,10.058973388671875,-40.679962158203125,-12.2723388671875,-9.203170776367188
1776445419804989200,10.0839892578125,-39.766815185546875,-11.84796142578125,-11.952178955078125
1776445419830005200,10.109005126953125,-38.227752685546875,-10.355987548828125,-15.892288208007812
1776445419855021300,10.134021240234375,-37.95849609375,-9.097930908203125,-18.094589233398438
1776445419880037400,10.159037353515625,-36.658477783203125,-7.0793914794921875,-20.462753295898438
1776445419905053200,10.18405322265625,-36.38592529296875,-6.2217254638671875,-21.421783447265625
1776445419930069200,10.2090693359375,-36.56329345703125,-6.24676513671875,-21.07513427734375
1776445419955085300,10.234085205078125,-36.831939697265625,-5.915985107421875,-20.529861450195312
1776445419980102400,10.259102294921876,-37.87286376953125,-5.3715972900390625,-19.267807006835938
1776445420005118200,10.2841181640625,-38.37506103515625,-5.297210693359375,-18.254135131835938
1776445420030134300,10.30913427734375,-39.43353271484375,-4.6196746826171875,-16.618453979492188
1776445420055150300,10.334150390625,-39.848419189453125,-4.376983642578125,-15.268096923828125
1776445420080166100,10.359166259765624,-40.39056396484375,-3.2099151611328125,-13.297744750976562
1776445420105182200,10.38418212890625,-41.11163330078125,-3.3426361083984375,-12.54925537109375
1776445420130198300,10.4091982421875,-40.82623291015625,-3.7270355224609375,-12.431777954101562
1776445420155214300,10.43421435546875,-40.72796630859375,-3.3913116455078125,-12.897247314453125
1776445420180230100,10.459230224609374,-40.564849853515625,-2.1708221435546875,-13.748153686523438
1776445420205246200,10.48424609375,-39.862884521484375,-1.2979278564453125,-14.607467651367188
1776445420230262300,10.50926220703125,-39.26617431640625,0.202056884765625,-16.372039794921875
1776445420255278000,10.534278076171875,-39.135467529296875,1.1776885986328125,-16.102203369140625
1776445420280294100,10.559294189453125,-39.292724609375,2.1226043701171875,-15.759521484375
1776445420305310200,10.584310302734375,-39.600799560546875,2.7360687255859375,-15.400421142578125
1776445420330326300,10.609326171875,-39.92510986328125,3.4347076416015625,-14.514617919921875
1776445420355343000,10.634343017578125,-39.6646728515625,4.1539154052734375,-14.022750854492188
1776445420380359200,10.659359130859375,-39.5313720703125,5.9651336669921875,-13.912078857421875
1776445420405375200,10.684375244140625,-39.330657958984375,6.6916961669921875,-13.71197509765625
1776445420430391300,10.709391357421875,-39.121978759765625,7.925750732421875,-13.399215698242188
1776445420455407000,10.734406982421875,-38.857635498046875,8.6796875,-13.213592529296875
1776445420480423200,10.759423095703125,-38.956268310546875,8.543045043945312,-13.1895751953125
1776445420505439200,10.784439208984375,-39.140625,8.46075439453125,-13.043167114257812
1776445420530455000,10.809455078125,-39.880126953125,7.031494140625,-12.3895263671875
1776445420555471000,10.83447119140625,-40.2216796875,6.0535888671875,-11.436935424804688
1776445420580487200,10.859487060546876,-40.71588134765625,4.1964569091796875,-10.39691162109375
1776445420605503200,10.884503173828126,-41.28424072265625,3.8556976318359375,-11.148468017578125
1776445420630519000,10.90951904296875,-41.183258056640625,3.8254852294921875,-11.12744140625
1776445420655534800,10.934534912109376,-40.849884033203125,4.0350189208984375,-11.055923461914062
1776445420680551000,10.959551025390626,-40.946624755859375,4.23626708984375,-10.039810180664062
1776445420705566700,10.984566650390626,-41.08526611328125,4.374542236328125,-9.484298706054688
1776445420730582800,11.009582763671874,-41.88677978515625,4.910736083984375,-8.560287475585938
1776445420755599600,11.034599609375,-41.408355712890625,5.2162628173828125,-7.78076171875
1776445420780615700,11.05961572265625,-41.43914794921875,6.422393798828125,-6.8274383544921875
1776445420805631700,11.0846318359375,-41.15447998046875,7.1991424560546875,-6.5117034912109375
1776445420830647800,11.109647705078125,-40.967498779296875,8.013809204101562,-6.6407012939453125
1776445420855663900,11.134663818359375,-40.580780029296875,8.94952392578125,-7.249053955078125
1776445420880679700,11.1596796875,-40.49090576171875,9.717636108398438,-7.678314208984375
1776445420905695700,11.18469580078125,-40.489959716796875,11.169189453125,-7.694671630859375
1776445420930711800,11.2097119140625,-39.992431640625,11.920257568359375,-6.687530517578125
1776445420955728000,11.234727783203125,-39.9287109375,12.73248291015625,-5.217681884765625
1776445420980743700,11.25974365234375,-39.75921630859375,13.287017822265625,-4.169891357421875
1776445421005759700,11.284759765625,-39.9893798828125,14.68463134765625,-3.3000640869140625
1776445421030775800,11.30977587890625,-39.599456787109375,15.034149169921875,-2.7095794677734375
1776445421055791600,11.33479150390625,-39.147125244140625,15.8367919921875,-2.3914337158203125
1776445421080807700,11.3598076171875,-38.733551025390625,16.196258544921875,-2.4579620361328125
1776445421105823700,11.38482373046875,-38.834503173828125,16.56610107421875,-1.6389007568359375
1776445421130840800,11.4098408203125,-38.597015380859375,17.213348388671875,-0.3958587646484375
1776445421155856600,11.434856689453126,-38.54901123046875,17.119400024414062,1.846588134765625
1776445421180872700,11.459872802734376,-38.3968505859375,17.24932861328125,3.7581787109375
1776445421205888800,11.484888671875,-38.386322021484375,16.760528564453125,6.003814697265625
1776445421230904800,11.50990478515625,-38.3829345703125,16.496810913085938,7.397430419921875
1776445421255920600,11.534920654296876,-38.695526123046875,15.470062255859375,9.331497192382812
1776445421280936700,11.559936767578124,-38.991424560546875,14.106536865234375,9.96685791015625
1776445421305952800,11.584952880859374,-39.8648681640625,11.610870361328125,11.576400756835938
1776445421330968600,11.609968505859374,-39.913299560546875,9.822036743164062,13.106231689453125
1776445421355984600,11.634984619140624,-40.03350830078125,6.9324188232421875,16.224578857421875
1776445421381000700,11.660000732421874,-39.43780517578125,4.937103271484375,18.377899169921875
1776445421406016800,11.685016845703124,-38.4075927734375,2.2202606201171875,21.17022705078125
1776445421431032600,11.710032470703124,-38.06866455078125,1.40423583984375,22.346435546875
1776445421456049700,11.735049560546875,-37.273101806640625,0.70751953125,23.257675170898438
1776445421481065700,11.760065673828125,-38.13128662109375,0.071990966796875,22.82318115234375
1776445421506081800,11.785081787109375,-38.192413330078125,-1.19873046875,22.331146240234375
1776445421531097600,11.81009765625,-38.423065185546875,-2.44097900390625,21.94622802734375
1776445421556113700,11.83511376953125,-37.519378662109375,-3.4602203369140625,23.55206298828125
1776445421581129700,11.860129638671875,-36.906890869140625,-4.783905029296875,24.846298217773438
1776445421606145500,11.8851455078125,-35.512359619140625,-6.93145751953125,26.703353881835938
1776445421631161600,11.91016162109375,-34.678985595703125,-8.725830078125,27.327285766601562
1776445421656177700,11.935177734375,-34.39154052734375,-9.975006103515625,26.824478149414062
1776445421681193700,11.96019384765625,-35.54022216796875,-10.281585693359375,25.136322021484375
1776445421706209800,11.985209716796875,-38.33380126953125,-10.387832641601562,21.665420532226562
1776445421731225900,12.010225830078125,-38.906982421875,-10.537826538085938,18.982208251953125
1776445421756242000,12.035241943359376,-40.011077880859375,-10.597854614257812,16.385299682617188
1776445421781258800,12.0602587890625,-40.199981689453125,-10.826263427734375,15.914764404296875
1776445421806274800,12.08527490234375,-39.828704833984375,-11.798568725585938,15.757827758789062
1776445421831290600,12.11029052734375,-40.1278076171875,-12.250015258789062,15.787445068359375
1776445421856306700,12.135306640625,-39.651336669921875,-12.4920654296875,15.929031372070312
1776445421881322800,12.16032275390625,-39.905242919921875,-12.390869140625,15.43206787109375
1776445421906338800,12.1853388671875,-40.34637451171875,-11.48822021484375,14.734161376953125
1776445421931355000,12.21035498046875,-41.130889892578125,-10.707275390625,14.332550048828125
1776445421956371000,12.235370849609374,-41.251556396484375,-9.805831909179688,13.883529663085938
1776445421981387000,12.260386962890625,-41.168365478515625,-10.9166259765625,13.938949584960938
1776445422006402800,12.28540283203125,-40.970947265625,-13.107528686523438,13.648727416992188
1776445422031419000,12.3104189453125,-41.101348876953125,-14.46673583984375,12.4818115234375
1776445422056435000,12.33543505859375,-41.460906982421875,-15.76318359375,8.526199340820312
1776445422081451800,12.36045166015625,-41.338470458984375,-16.522781372070312,6.3306884765625
1776445422106467800,12.3854677734375,-41.39349365234375,-17.7939453125,4.75396728515625
1776445422131484000,12.41048388671875,-41.18133544921875,-18.41363525390625,4.297393798828125
1776445422156500000,12.4355,-40.664337158203125,-19.0821533203125,5.0681610107421875
1776445422181515800,12.460515869140625,-39.67596435546875,-19.521514892578125,5.5960845947265625
1776445422206531800,12.48553173828125,-39.5435791015625,-20.62969970703125,6.006439208984375
1776445422231548000,12.5105478515625,-39.25323486328125,-20.916732788085938,6.1812286376953125
1776445422256564000,12.53556396484375,-39.20147705078125,-20.991897583007812,5.2997283935546875
1776445422281579800,12.560579833984375,-39.67547607421875,-21.302276611328125,4.559539794921875
1776445422306595800,12.585595947265626,-39.51788330078125,-21.712265014648438,2.4970703125
1776445422331612000,12.61061181640625,-39.77667236328125,-21.562469482421875,1.1807861328125
1776445422356627700,12.635627685546876,-39.683807373046875,-22.26507568359375,-0.4565582275390625
1776445422381644800,12.660644775390624,-39.86322021484375,-22.25244140625,-1.7793121337890625
1776445422406660900,12.685660888671874,-39.21258544921875,-22.5303955078125,-2.5548248291015625
1776445422431677000,12.710677001953124,-39.668060302734375,-22.178298950195312,-2.8706512451171875
1776445422456692700,12.735692626953124,-39.411041259765625,-22.020309448242188,-3.1715240478515625
1776445422481708800,12.760708740234374,-39.8521728515625,-21.642623901367188,-3.4446563720703125
1776445422506724900,12.785724853515624,-39.80615234375,-21.21917724609375,-3.9945831298828125
1776445422531741000,12.810740966796875,-39.759979248046875,-20.532150268554688,-4.5078125
1776445422556756700,12.8357568359375,-39.47332763671875,-20.11187744140625,-6.984039306640625
1776445422581772800,12.860772705078125,-39.37359619140625,-19.262115478515625,-9.285018920898438
1776445422606788900,12.885788818359375,-38.657562255859375,-17.710464477539062,-12.777099609375
1776445422631804700,12.9108046875,-38.21783447265625,-16.754058837890625,-15.096603393554688
1776445422656821200,12.9358212890625,-37.3314208984375,-15.384841918945312,-17.247650146484375
1776445422681837300,12.96083740234375,-37.75726318359375,-14.726150512695312,-17.787643432617188
1776445422706853400,12.985853271484375,-37.835296630859375,-14.153488159179688,-18.1195068359375
1776445422731869200,13.010869140625,-37.882232666015625,-13.911361694335938,-17.45245361328125
1776445422756885200,13.03588525390625,-38.347869873046875,-13.76568603515625,-16.91656494140625
1776445422781901300,13.0609013671875,-38.515167236328125,-13.530929565429688,-16.687225341796875
1776445422806917400,13.08591748046875,-38.56671142578125,-12.887588500976562,-17.022552490234375
1776445422831933200,13.11093310546875,-38.51336669921875,-11.917617797851562,-17.287109375
1776445422856949200,13.13594921875,-38.45733642578125,-10.419265747070312,-18.198745727539062
1776445422881965300,13.16096533203125,-38.65087890625,-9.138717651367188,-18.756256103515625
1776445422906981000,13.185981201171876,-38.529388427734375,-7.4286346435546875,-18.833145141601562
1776445422931998200,13.210998291015626,-38.87115478515625,-5.1762237548828125,-18.32916259765625
1776445422957014300,13.23601416015625,-39.34027099609375,-4.0143890380859375,-18.242660522460938
1776445422982030300,13.2610302734375,-39.182891845703125,-3.091766357421875,-18.331497192382812
1776445423007046100,13.286046142578124,-38.8851318359375,-3.0522308349609375,-18.409591674804688
1776445423032062200,13.311062255859374,-38.9208984375,-3.0152130126953125,-19.3865966796875
1776445423057078300,13.336078369140624,-38.160797119140625,-2.64794921875,-19.816482543945312
1776445423082094300,13.36109423828125,-37.356201171875,-1.094268798828125,-21.512161254882812
1776445423107110100,13.386110107421874,-36.965301513671875,0.101104736328125,-22.14947509765625
1776445423132126200,13.411126220703125,-36.21710205078125,1.77044677734375,-22.25799560546875
1776445423157142500,13.436142578125,-36.420440673828125,3.17352294921875,-21.979644775390625
1776445423182158300,13.461158447265625,-36.374053955078125,4.921142578125,-21.803604125976562
1776445423207175200,13.486175048828125,-36.34521484375,5.93316650390625,-21.299453735351562
1776445423232191200,13.511191162109375,-36.50958251953125,7.5318450927734375,-20.436248779296875
1776445423257207300,13.536207275390625,-36.4674072265625,8.336074829101562,-20.014892578125
1776445423282223000,13.56122314453125,-36.9219970703125,9.28204345703125,-18.808151245117188
1776445423307239200,13.5862392578125,-36.906036376953125,9.985153198242188,-18.259689331054688
1776445423332255500,13.61125537109375,-36.593231201171875,11.071884155273438,-17.888702392578125
1776445423357271600,13.636271484375,-36.30413818359375,11.664932250976562,-18.263656616210938
1776445423382287400,13.661287353515625,-36.676422119140625,11.781768798828125,-18.28662109375
1776445423407303400,13.686303466796875,-37.26324462890625,11.010665893554688,-17.776397705078125
1776445423432319500,13.711319580078126,-38.64678955078125,8.596206665039062,-16.514007568359375
1776445423457336300,13.73633642578125,-39.268157958984375,6.9857177734375,-15.55633544921875
1776445423482352400,13.761352294921876,-40.379852294921875,5.912750244140625,-14.539718627929688
1776445423507368400,13.786368408203124,-39.904571533203125,6.4737548828125,-14.711441040039062
1776445423532384500,13.811384521484374,-39.542724609375,7.4344329833984375,-15.695236206054688
1776445423557400300,13.836400390625,-38.36248779296875,8.340988159179688,-15.842880249023438
1776445423582416400,13.86141650390625,-38.737213134765625,9.834854125976562,-14.796127319335938
1776445423607432400,13.886432373046874,-39.958984375,10.01251220703125,-13.225738525390625
1776445423632448500,13.911448486328124,-40.833709716796875,10.2086181640625,-10.991668701171875
1776445423657465300,13.93646533203125,-40.596099853515625,10.68878173828125,-10.256195068359375
1776445423682481400,13.9614814453125,-40.376312255859375,11.859725952148438,-9.9671630859375
1776445423707498000,13.986498046875,-39.798004150390625,12.556060791015625,-10.755935668945312
1776445423732514000,14.01151416015625,-38.898895263671875,13.634048461914062,-11.759597778320312
1776445423757530000,14.036530029296875,-38.43365478515625,14.226470947265625,-12.406906127929688
1776445423782546200,14.061546142578125,-38.266387939453125,14.919265747070312,-12.510971069335938
1776445423807562200,14.086562255859375,-38.0679931640625,15.841461181640625,-11.70489501953125
1776445423832578300,14.111578369140625,-38.3990478515625,16.659912109375,-9.624542236328125
1776445423857594400,14.136594482421875,-38.186065673828125,17.42181396484375,-8.345291137695312
1776445423882610200,14.161610107421875,-38.23394775390625,18.0445556640625,-6.220611572265625
1776445423907626200,14.186626220703126,-38.746795654296875,18.373947143554688,-5.23284912109375
1776445423932642300,14.211642333984376,-38.48577880859375,18.6268310546875,-2.908782958984375
1776445423957659100,14.2366591796875,-38.352081298828125,19.030593872070312,-1.80615234375
1776445423982675200,14.26167529296875,-37.970733642578125,19.6773681640625,0.6573028564453125
1776445424007691300,14.286691162109374,-37.63677978515625,19.8873291015625,3.355804443359375
1776445424032707300,14.311707275390624,-37.7548828125,19.1343994140625,7.9285125732421875
1776445424057723400,14.336723388671874,-37.93658447265625,18.222854614257812,10.424392700195312
1776445424082739200,14.3617392578125,-37.332794189453125,16.398040771484375,14.14447021484375
1776445424107755300,14.38675537109375,-37.25067138671875,15.249710083007812,16.490936279296875
1776445424132771300,14.411771240234375,-37.55975341796875,13.275192260742188,18.791122436523438
1776445424157787100,14.436787109375,-37.138031005859375,11.788436889648438,19.865219116210938
1776445424182803200,14.46180322265625,-37.617401123046875,9.385971069335938,21.20172119140625
1776445424207820300,14.4868203125,-37.271087646484375,8.256332397460938,21.654525756835938
1776445424232836400,14.51183642578125,-37.616058349609375,6.18963623046875,22.501815795898438
1776445424257852200,14.53685205078125,-37.638153076171875,4.892303466796875,22.747726440429688
1776445424282868200,14.5618681640625,-38.4583740234375,2.7706451416015625,22.827346801757812
1776445424307884300,14.58688427734375,-37.999725341796875,1.17950439453125,23.356781005859375
1776445424332900400,14.611900390625,-38.233062744140625,-0.35638427734375,23.820999145507812
1776445424357916200,14.636916259765625,-37.6243896484375,-1.12738037109375,24.8924560546875
1776445424382932200,14.66193212890625,-36.504638671875,-3.321685791015625,26.693450927734375
1776445424407948300,14.6869482421875,-35.72515869140625,-4.7430877685546875,27.329559326171875
1776445424432964000,14.711964111328125,-35.753814697265625,-6.88055419921875,27.652099609375
1776445424457981200,14.736981201171876,-35.668304443359375,-7.7543487548828125,27.487472534179688
1776445424482997200,14.761997314453126,-36.044158935546875,-8.600204467773438,26.436737060546875
1776445424508013300,14.787013427734376,-36.89483642578125,-8.6422119140625,25.55413818359375
1776445424533029000,14.812029052734376,-37.66448974609375,-8.589080810546875,23.561050415039062
1776445424558045200,14.837045166015624,-38.1287841796875,-8.28778076171875,22.656280517578125
1776445424583061200,14.862061279296874,-38.916748046875,-9.194290161132812,21.566818237304688
1776445424608077300,14.887077392578124,-39.094207763671875,-9.831924438476562,21.208236694335938
1776445424633093000,14.912093017578124,-38.854705810546875,-11.06787109375,20.96136474609375
1776445424658112000,14.937112060546875,-38.99603271484375,-11.948028564453125,21.007659912109375
1776445424683129000,14.962129150390625,-38.618255615234375,-12.724761962890625,20.601119995117188
1776445424708145200,14.987145263671875,-38.747039794921875,-12.387405395507812,20.2845458984375
1776445424733161000,15.012160888671875,-38.693817138671875,-13.299163818359375,19.956146240234375
1776445424758177000,15.037177001953125,-38.75634765625,-13.582763671875,20.0179443359375
1776445424783193000,15.062193115234376,-38.666107177734375,-12.567855834960938,20.029464721679688
1776445424808209200,15.087209228515626,-39.431488037109375,-11.937057495117188,19.91131591796875
1776445424833225000,15.112224853515626,-39.6187744140625,-10.984909057617188,19.416778564453125
1776445424858241000,15.137240966796876,-40.181610107421875,-9.824554443359375,19.118896484375
1776445424883257000,15.162257080078126,-40.38494873046875,-8.667312622070312,18.612716674804688
1776445424908274200,15.187274169921874,-40.15032958984375,-7.8891754150390625,18.2200927734375
1776445424933290000,15.2122900390625,-40.8885498046875,-8.25164794921875,18.334243774414062
1776445424958306000,15.23730615234375,-40.36407470703125,-9.0009765625,18.575881958007812
1776445424983322000,15.262322021484374,-40.042572021484375,-9.658279418945312,18.3482666015625
1776445425008338000,15.287337890625,-41.33453369140625,-11.460174560546875,16.266006469726562
1776445425033354000,15.31235400390625,-41.661468505859375,-12.503173828125,13.98590087890625
1776445425058370000,15.3373701171875,-42.424591064453125,-13.451736450195312,10.869094848632812
1776445425083386000,15.36238623046875,-42.768402099609375,-14.21905517578125,9.69354248046875
1776445425108402000,15.38740185546875,-42.152862548828125,-14.614593505859375,9.625823974609375
1776445425133419000,15.4124189453125,-42.123016357421875,-14.861114501953125,10.6964111328125
1776445425158435000,15.43743505859375,-41.5504150390625,-14.664596557617188,12.01654052734375
1776445425183451100,15.462451171875,-41.916107177734375,-14.351547241210938,12.979965209960938
1776445425208467000,15.487467041015625,-41.566741943359375,-14.757736206054688,12.939697265625
1776445425233483000,15.51248291015625,-41.551605224609375,-15.310028076171875,12.046646118164062
1776445425258499000,15.5374990234375,-41.4869384765625,-15.685928344726562,10.00018310546875
1776445425283515000,15.562514892578125,-41.98675537109375,-15.926803588867188,9.0615234375
1776445425308531000,15.587531005859375,-41.7943115234375,-16.555496215820312,8.100601196289062
1776445425333547000,15.612547119140626,-42.3323974609375,-17.025787353515625,7.248382568359375
1776445425358564000,15.637564208984376,-42.161956787109375,-17.674163818359375,5.984222412109375
1776445425383580000,15.662579833984376,-42.160552978515625,-17.736419677734375,5.177093505859375
1776445425408596000,15.687595947265624,-41.595062255859375,-18.735015869140625,3.705169677734375
1776445425433612000,15.712612060546874,-41.324005126953125,-18.824203491210938,2.1737060546875
1776445425458628000,15.737628173828124,-41.33154296875,-19.439285278320312,0.354339599609375
1776445425483644000,15.762643798828124,-40.92626953125,-19.511962890625,-0.8714752197265625
1776445425508660000,15.787659912109374,-40.172943115234375,-20.265914916992188,-2.619384765625
1776445425533676000,15.812676025390624,-40.258575439453125,-20.769287109375,-2.851287841796875
1776445425558693000,15.837693115234375,-39.976715087890625,-21.006271362304688,-2.6677703857421875
1776445425583709000,15.862708984375,-40.10577392578125,-21.63922119140625,-2.9507904052734375
1776445425608725000,15.88772509765625,-39.439453125,-21.766342163085938,-3.8639984130859375
1776445425633741000,15.912740966796875,-38.947845458984375,-21.725631713867188,-4.8587493896484375
1776445425658757000,15.937757080078125,-39.115509033203125,-21.57232666015625,-7.41522216796875
1776445425683773200,15.962773193359375,-38.9805908203125,-20.900436401367188,-9.489593505859375
1776445425708789200,15.987789306640625,-38.599090576171875,-19.834579467773438,-11.3175048828125
1776445425733805000,16.01280517578125,-38.69232177734375,-19.828323364257812,-11.866424560546875
1776445425758821400,16.0378212890625,-38.4019775390625,-19.22784423828125,-12.24676513671875
1776445425783838200,16.062838134765624,-38.680908203125,-18.868499755859375,-12.394927978515625
1776445425808854300,16.087854248046874,-38.838348388671875,-18.0906982421875,-13.20355224609375
1776445425833870300,16.112870361328124,-38.70098876953125,-17.566253662109375,-14.174179077148438
1776445425858886100,16.13788623046875,-37.926544189453125,-16.66192626953125,-15.93157958984375
1776445425883902200,16.162902099609376,-38.36138916015625,-16.336318969726562,-16.916656494140625
1776445425908918300,16.187918212890626,-37.494842529296875,-15.540725708007812,-17.753585815429688
1776445425933934300,16.212934326171876,-37.458587646484375,-15.555892944335938,-17.720870971679688
1776445425958950400,16.237950439453126,-37.763519287109375,-14.5074462890625,-17.48974609375
1776445425983967200,16.26296728515625,-38.079803466796875,-13.883148193359375,-17.66796875
1776445426008983300,16.2879833984375,-38.520416259765625,-12.601165771484375,-17.738357543945312
1776445426033999000,16.3129990234375,-38.57647705078125,-12.150970458984375,-17.3714599609375
1776445426059015200,16.33801513671875,-38.919097900390625,-11.015670776367188,-17.460006713867188
1776445426084031200,16.36303125,-39.372314453125,-10.21490478515625,-17.068313598632812
1776445426109047300,16.38804736328125,-39.34228515625,-9.133621215820312,-16.973678588867188
1776445426134063400,16.4130634765625,-39.835296630859375,-8.2989501953125,-16.79669189453125
1776445426159079400,16.438079345703127,-40.16015625,-7.0760040283203125,-16.194732666015625
1776445426184095500,16.463095458984377,-40.460845947265625,-6.011688232421875,-16.130874633789062
1776445426209112300,16.4881123046875,-40.39715576171875,-4.9066619873046875,-17.059417724609375
1776445426234128100,16.513128173828125,-39.5244140625,-4.17578125,-18.713104248046875
1776445426259144200,16.538144287109375,-38.306121826171875,-1.974578857421875,-21.068328857421875
1776445426284160300,16.56316015625,-37.2840576171875,-0.060699462890625,-22.692947387695312
1776445426309176300,16.58817626953125,-36.893218994140625,2.4606170654296875,-22.960418701171875
1776445426334192400,16.6131923828125,-37.114471435546875,3.4582977294921875,-22.345016479492188
1776445426359208400,16.63820849609375,-37.80126953125,4.2891693115234375,-21.371780395507812
1776445426384225300,16.663225341796874,-38.33447265625,4.9728546142578125,-20.557846069335938
1776445426409241000,16.688240966796876,-38.25823974609375,6.5288848876953125,-19.587738037109375
1776445426434257200,16.713257080078126,-37.79071044921875,7.6304473876953125,-19.544479370117188
1776445426459273200,16.738273193359376,-37.711578369140625,8.928939819335938,-18.6441650390625
1776445426484289300,16.763289306640626,-37.905792236328125,10.02301025390625,-18.169403076171875
1776445426509305300,16.788305419921876,-37.60009765625,11.11810302734375,-17.409927368164062
1776445426534321400,16.8133212890625,-37.631256103515625,11.813156127929688,-16.637313842773438
1776445426559337500,16.83833740234375,-37.622802734375,11.9544677734375,-16.477920532226562
1776445426584353300,16.863353271484375,-37.59552001953125,12.297470092773438,-16.623550415039062
1776445426609370000,16.8883701171875,-38.274993896484375,11.379791259765625,-16.66351318359375
1776445426634386200,16.91338623046875,-38.57208251953125,10.283309936523438,-16.477035522460938
1776445426659402800,16.93840283203125,-39.27764892578125,8.919143676757812,-15.998931884765625
1776445426684418800,16.963418701171875,-39.269989013671875,8.481063842773438,-16.592605590820312
1776445426709435000,16.988434814453125,-39.166656494140625,8.522354125976562,-17.483169555664062
1776445426734451000,17.013450927734375,-38.725830078125,8.597885131835938,-17.176025390625
1776445426759467000,17.038467041015625,-39.0418701171875,8.705154418945312,-16.41796875
1776445426784483000,17.063483154296875,-39.45343017578125,8.825210571289062,-15.391006469726562
1776445426809500000,17.0885,-40.238372802734375,9.608718872070312,-13.56695556640625
1776445426834516000,17.113515869140624,-40.87945556640625,10.328445434570312,-11.78973388671875
1776445426859531800,17.13853173828125,-40.689178466796875,11.660064697265625,-9.586654663085938
1776445426884547800,17.1635478515625,-40.8614501953125,12.238327026367188,-8.282058715820312
1776445426909564000,17.18856396484375,-40.826202392578125,12.944808959960938,-7.9367523193359375
1776445426934580000,17.213580078125,-40.456024169921875,14.08135986328125,-7.3043975830078125
1776445426959596000,17.238595947265626,-40.085479736328125,14.910842895507812,-7.352203369140625
1776445426984612900,17.26361279296875,-39.97161865234375,16.088592529296875,-6.7971954345703125
1776445427009629000,17.28862890625,-38.935333251953125,16.3016357421875,-5.8962554931640625
1776445427034645000,17.31364501953125,-39.393951416015625,17.275650024414062,-4.8894805908203125
1776445427059660800,17.338660888671875,-39.070159912109375,18.001510620117188,-3.9571685791015625
1776445427084676900,17.3636767578125,-38.73876953125,18.535369873046875,-2.3085784912109375
1776445427109693000,17.38869287109375,-38.13385009765625,19.458404541015625,-1.66949462890625
1776445427134709000,17.413708984375,-38.249420166015625,19.79852294921875,-0.5651702880859375
1776445427159725000,17.43872509765625,-38.2669677734375,19.9769287109375,0.33038330078125
1776445427184742000,17.463741943359373,-38.41455078125,19.582000732421875,1.4127197265625
1776445427209758000,17.488758056640624,-38.294647216796875,19.732864379882812,2.233489990234375
1776445427234773800,17.513773681640625,-38.42694091796875,19.045578002929688,4.2605438232421875
1776445427259789800,17.538789794921875,-39.23651123046875,18.570053100585938,5.620452880859375
1776445427284806000,17.563805908203125,-39.4884033203125,16.729080200195312,8.663253784179688
1776445427309822000,17.588822021484376,-39.470123291015625,15.788787841796875,10.698135375976562
1776445427334838000,17.613838134765626,-39.568878173828125,13.884872436523438,13.563980102539062
1776445427359854000,17.63885400390625,-39.816619873046875,13.188812255859375,14.481796264648438
1776445427384871000,17.663870849609374,-39.3179931640625,12.515228271484375,16.087051391601562
1776445427409887000,17.688886962890624,-39.06536865234375,12.21881103515625,16.7591552734375
1776445427434902800,17.71390283203125,-39.200592041015625,12.25860595703125,16.618255615234375
1776445427459918800,17.7389189453125,-39.062408447265625,11.929306030273438,16.659225463867188
1776445427484935200,17.76393505859375,-39.828582763671875,10.82586669921875,16.491439819335938
1776445427509951000,17.788950927734376,-40.054473876953125,10.121780395507812,16.615829467773438
1776445427534967000,17.813967041015626,-40.0592041015625,8.418838500976562,17.425750732421875
1776445427559983000,17.838983154296876,-40.599884033203125,7.367584228515625,18.309585571289062
1776445427585000000,17.864,-40.48394775390625,5.695831298828125,19.583724975585938
1776445427610015700,17.889015625,-40.624114990234375,4.659881591796875,20.008087158203125
1776445427635032000,17.914031982421875,-40.791778564453125,3.4646453857421875,19.986480712890625
1776445427660044000,17.9390439453125,-40.918182373046875,3.4104156494140625,19.9371337890625
1776445427685060000,17.96406005859375,-41.04443359375,2.9324798583984375,19.491302490234375
1776445427710076200,17.989076171875,-40.956298828125,2.0797119140625,19.457046508789062
1776445427735092200,18.01409228515625,-40.9718017578125,0.3516845703125,20.726348876953125
1776445427760109000,18.039109130859377,-40.099609375,-0.6803741455078125,22.05120849609375
1776445427785125000,18.064125,-39.691925048828125,-2.790557861328125,23.48760986328125
1776445427810141200,18.08914111328125,-38.90704345703125,-4.4940948486328125,25.063201904296875
1776445427835157200,18.1141572265625,-37.3642578125,-6.64764404296875,26.08978271484375
1776445427860173000,18.139173095703125,-37.235595703125,-8.440567016601562,26.282562255859375
1776445427885189000,18.164189208984375,-36.616119384765625,-10.625457763671875,26.611892700195312
1776445427910205200,18.189205078125,-36.4613037109375,-11.406387329101562,26.200607299804688
1776445427935221000,18.214220947265623,-36.930511474609375,-12.984054565429688,25.62371826171875
1776445427960238000,18.239238037109374,-37.022918701171875,-13.915847778320312,24.621307373046875
1776445427985254100,18.264254150390624,-37.63653564453125,-14.98583984375,23.171844482421875
1776445428010270200,18.289270263671874,-37.86114501953125,-15.25201416015625,22.323501586914062
1776445428035286000,18.3142861328125,-37.4912109375,-16.509170532226562,22.62591552734375
1776445428060302000,18.339302001953126,-36.7816162109375,-16.735702514648438,23.048110961914062
1776445428085318100,18.364318115234376,-36.38330078125,-17.105316162109375,22.740447998046875
1776445428110334200,18.389334228515626,-37.105987548828125,-17.428070068359375,22.1361083984375
1776445428135351000,18.41435107421875,-37.49334716796875,-17.341323852539062,21.48553466796875
1776445428160367000,18.4393671875,-37.385040283203125,-17.112274169921875,21.178878784179688
1776445428185383200,18.464383056640624,-38.10040283203125,-17.316543579101562,19.438796997070312
1776445428210399200,18.489399169921874,-38.71343994140625,-17.125152587890625,18.662918090820312
1776445428235415000,18.5144150390625,-39.260101318359375,-17.31036376953125,16.951492309570312
1776445428260431000,18.53943115234375,-39.68157958984375,-17.425369262695312,15.320587158203125
1776445428285447200,18.564447265625,-40.446502685546875,-17.38128662109375,13.122512817382812
1776445428310463000,18.589462890625,-40.706451416015625,-17.41961669921875,11.524703979492188
1776445428335480000,18.61447998046875,-41.04443359375,-18.03082275390625,10.149215698242188
1776445428360496000,18.63949609375,-41.30291748046875,-18.147842407226562,9.89910888671875
1776445428385512200,18.66451220703125,-41.02679443359375,-18.39544677734375,9.107192993164062
1776445428410528000,18.689528076171875,-41.596893310546875,-18.811935424804688,8.438720703125
1776445428435544000,18.7145439453125,-40.86541748046875,-19.507675170898438,6.8701629638671875
1776445428460560100,18.73956005859375,-41.03424072265625,-19.5308837890625,6.067352294921875
1776445428485576200,18.764576171875,-41.028961181640625,-19.86773681640625,5.26910400390625
1776445428510593000,18.789593017578124,-40.91546630859375,-19.882171630859375,4.97821044921875
1776445428535609000,18.814609130859374,-40.81622314453125,-20.14459228515625,4.7114715576171875
1776445428560625200,18.839625244140624,-41.02154541015625,-20.709732055664062,4.1735687255859375
1776445428585641200,18.86464111328125,-40.281890869140625,-21.42645263671875,3.1295013427734375
1776445428610657000,18.889656982421876,-40.315582275390625,-21.90478515625,2.1377105712890625
1776445428635673000,18.914673095703126,-40.22235107421875,-22.565444946289062,0.7294769287109375
1776445428660689000,18.93968896484375,-39.604461669921875,-23.36187744140625,-0.583221435546875
1776445428685706000,18.9647060546875,-39.127227783203125,-23.956756591796875,-2.136810302734375
1776445428710721800,18.9897216796875,-38.762237548828125,-24.604476928710938,-3.534149169921875
1776445428735737900,19.01473779296875,-38.37481689453125,-24.667160034179688,-4.9406890869140625
1776445428760754000,19.03975390625,-38.687744140625,-24.465911865234375,-6.543701171875
1776445428785770000,19.06477001953125,-37.7861328125,-24.580551147460938,-8.044448852539062
1776445428810785800,19.089785888671877,-37.951385498046875,-24.4520263671875,-9.227523803710938
1776445428835801900,19.1148017578125,-36.861907958984375,-23.906234741210938,-11.495040893554688
1776445428860819000,19.13981884765625,-37.1954345703125,-23.296844482421875,-12.888931274414062
1776445428885835000,19.1648349609375,-36.219940185546875,-22.46240234375,-14.670989990234375
1776445428910850800,19.189850830078125,-36.079559326171875,-21.635147094726562,-15.848724365234375
1776445428935867000,19.214866943359375,-36.107757568359375,-21.158966064453125,-17.09881591796875
1776445428960883000,19.239883056640625,-36.085723876953125,-20.545883178710938,-17.850631713867188
1776445428985898800,19.264898681640624,-36.012664794921875,-19.498779296875,-18.54339599609375
1776445429010914800,19.289914794921874,-35.71893310546875,-18.149978637695312,-19.298919677734375
1776445429035932000,19.314931884765624,-36.32305908203125,-17.248764038085938,-19.799240112304688
1776445429060948000,19.339947998046874,-36.646636962890625,-15.54229736328125,-20.187576293945312
1776445429085963800,19.3649638671875,-37.299407958984375,-14.14654541015625,-20.376434326171875
1776445429110979800,19.389979736328126,-37.668243408203125,-12.344161987304688,-20.917739868164062
1776445429135996000,19.414995849609376,-37.6021728515625,-11.196929931640625,-21.08343505859375
1776445429161012000,19.440011962890626,-38.020965576171875,-9.745025634765625,-21.24371337890625
1776445429186027800,19.46502783203125,-38.232666015625,-8.95172119140625,-21.206680297851562
1776445429211044900,19.490044921875,-38.148712158203125,-8.045013427734375,-21.3958740234375
1776445429236061000,19.51506103515625,-38.163238525390625,-7.4993896484375,-21.397613525390625
1776445429261077000,19.540076904296875,-38.390411376953125,-7.604400634765625,-21.030105590820312
1776445429286092800,19.5650927734375,-38.959503173828125,-7.7841796875,-20.602859497070312
1776445429311108900,19.59010888671875,-39.585845947265625,-7.1811370849609375,-19.238296508789062
1776445429336125000,19.615125,-40.074310302734375,-7.057525634765625,-18.360733032226562
1776445429361140700,19.640140625,-40.274627685546875,-7.2935791015625,-18.310440063476562
1776445429386157800,19.66515771484375,-39.6768798828125,-6.8831939697265625,-18.782501220703125
1776445429411174000,19.690173828125,-39.025238037109375,-5.492431640625,-19.822479248046875
1776445429436190000,19.71518994140625,-38.66448974609375,-4.2035369873046875,-20.660552978515625
1776445429461205800,19.740205810546875,-38.31561279296875,-2.814727783203125,-21.580352783203125
1776445429486221800,19.765221923828125,-38.117889404296875,-1.6632080078125,-21.840011596679688
1776445429511238000,19.79023779296875,-38.07025146484375,-0.3443603515625,-22.2601318359375
1776445429536254000,19.81525390625,-37.95562744140625,0.420654296875,-22.601898193359375
1776445429561269800,19.840269775390624,-38.010986328125,1.8927764892578125,-22.612045288085938
1776445429586286800,19.865286865234374,-37.144378662109375,3.1173095703125,-22.754837036132812
1776445429611303000,19.890302978515624,-37.10516357421875,4.5562286376953125,-22.851837158203125
1776445429636319000,19.915319091796874,-37.173309326171875,5.05029296875,-22.81842041015625
1776445429661334300,19.940334228515624,-37.25164794921875,5.7146453857421875,-21.662353515625
1776445429686350300,19.965350341796874,-37.584320068359375,6.245269775390625,-21.00994873046875
1776445429711366100,19.9903662109375,-38.47418212890625,6.733154296875,-20.053131103515625
1776445429736383200,20.01538330078125,-38.882537841796875,6.875152587890625,-18.921493530273438
1776445429761399300,20.0403994140625,-39.050140380859375,6.927947998046875,-18.205963134765625
1776445429786415400,20.065415283203127,-39.273529052734375,7.1662750244140625,-17.695114135742188
1776445429811431400,20.090431396484377,-39.701141357421875,7.3636932373046875,-16.422149658203125
1776445429836447200,20.115447265625,-39.83428955078125,6.6437225341796875,-15.57464599609375
1776445429861463300,20.14046337890625,-40.436859130859375,4.6832122802734375,-15.197219848632812
1776445429886479400,20.165479248046875,-41.04290771484375,4.467742919921875,-14.760757446289062
1776445429911496400,20.190496337890625,-41.240325927734375,4.9070281982421875,-15.101425170898438
1776445429936512300,20.21551220703125,-40.88580322265625,5.6733856201171875,-15.3074951171875
1776445429961528300,20.2405283203125,-41.171051025390625,6.773468017578125,-14.098220825195312
1776445429986544400,20.26554443359375,-41.2882080078125,6.4015045166015625,-12.566665649414062
1776445430011560200,20.290560302734374,-41.866058349609375,5.776092529296875,-10.396957397460938
1776445430036576300,20.315576171875,-42.4029541015625,5.28857421875,-9.362030029296875
1776445430061592300,20.34059228515625,-42.68994140625,5.499481201171875,-8.928619384765625
1776445430086609400,20.365609375,-42.30072021484375,6.1637725830078125,-9.600601196289062
1776445430111625200,20.390625244140626,-42.4105224609375,6.948333740234375,-10.188034057617188
1776445430136641300,20.415641357421876,-42.324066162109375,7.628387451171875,-10.458221435546875
1776445430161657300,20.4406572265625,-41.719207763671875,9.607101440429688,-10.1539306640625
1776445430186673400,20.46567333984375,-41.254791259765625,10.703521728515625,-9.586441040039062
1776445430211689200,20.490689208984374,-41.111480712890625,12.023757934570312,-8.362228393554688
1776445430236705300,20.515705322265624,-40.677276611328125,12.620361328125,-7.8551177978515625
1776445430261722400,20.540722412109375,-40.506072998046875,13.899459838867188,-6.58660888671875
1776445430286738400,20.565738525390625,-40.45166015625,14.279953002929688,-6.3126373291015625
1776445430311754200,20.590754150390627,-40.348541259765625,14.695159912109375,-5.739471435546875
1776445430336770300,20.615770263671877,-40.37506103515625,14.915786743164062,-6.153717041015625
1776445430361786400,20.640786376953123,-40.115142822265625,15.364044189453125,-5.94439697265625
1776445430386802200,20.66580224609375,-39.95489501953125,15.576431274414062,-5.7004547119140625
1776445430411818200,20.690818359375,-39.40234375,16.395263671875,-5.805328369140625
1776445430436835300,20.71583544921875,-38.755340576171875,17.045089721679688,-5.50958251953125
1776445430461851400,20.740851318359375,-38.9075927734375,17.544876098632812,-3.555816650390625
1776445430486867200,20.7658671875,-38.4224853515625,17.526779174804688,-1.491546630859375
1776445430511883300,20.79088330078125,-38.8194580078125,17.10479736328125,2.29290771484375
1776445430536899300,20.8158994140625,-38.56854248046875,16.882949829101562,4.4825439453125
1776445430561915400,20.840915283203124,-38.804779052734375,16.522689819335938,6.7004241943359375
1776445430586931200,20.86593115234375,-38.646575927734375,16.76654052734375,7.7712860107421875
1776445430611948300,20.8909482421875,-38.772674560546875,15.861862182617188,9.5946044921875
1776445430636964400,20.91596435546875,-38.8843994140625,15.094573974609375,10.996505737304688
1776445430661980400,20.94098046875,-39.275054931640625,13.073211669921875,13.022979736328125
1776445430686996200,20.965996337890626,-39.24102783203125,12.2266845703125,14.267181396484375
1776445430712012300,20.99101220703125,-39.8177490234375,10.395523071289062,15.818771362304688
1776445430737028400,21.0160283203125,-39.115631103515625,9.305023193359375,16.634078979492188
1776445430762045400,21.04104541015625,-39.4456787109375,7.7180328369140625,17.60296630859375
1776445430787061200,21.066061279296875,-39.7381591796875,7.079681396484375,17.8897705078125
1776445430812077300,21.091077392578125,-39.5318603515625,6.085968017578125,18.712921142578125
1776445430837093400,21.11609326171875,-39.404541015625,5.920867919921875,19.079147338867188
1776445430862109200,21.141109130859373,-39.270904541015625,5.15283203125,19.965362548828125
1776445430887125200,21.166125244140623,-39.4852294921875,4.67218017578125,19.805999755859375
1776445430912141300,21.191141357421873,-39.88323974609375,3.59063720703125,19.311294555664062
1776445430937158400,21.216158447265624,-40.000732421875,3.4293975830078125,18.398086547851562
1776445430962174200,21.24117431640625,-40.57379150390625,3.3697967529296875,17.54779052734375
1776445430987190300,21.266190185546876,-40.447662353515625,3.903778076171875,17.518875122070312
1776445431012206300,21.291206298828126,-40.600006103515625,3.8892974853515625,17.961624145507812
1776445431037222400,21.316222412109376,-40.2220458984375,3.428131103515625,18.770248413085938
1776445431062238200,21.34123828125,-40.2388916015625,2.365203857421875,19.50689697265625
1776445431087254300,21.366254150390624,-39.70782470703125,1.2414398193359375,20.454559326171875
1776445431112271400,21.391271240234374,-39.68853759765625,-0.1699981689453125,20.220260620117188
1776445431137287400,21.416287353515624,-40.03656005859375,-1.4003448486328125,20.956024169921875
1776445431162303200,21.44130322265625,-40.205474853515625,-2.3626251220703125,21.08148193359375
1776445431187319300,21.4663193359375,-39.80963134765625,-3.3419952392578125,21.255416870117188
1776445431212335400,21.49133544921875,-39.6729736328125,-4.550811767578125,21.414642333984375
1776445431237351200,21.51635107421875,-39.747528076171875,-5.292633056640625,21.57208251953125
1776445431262368300,21.5413681640625,-39.768218994140625,-6.2941436767578125,21.186599731445312
1776445431287384300,21.56638427734375,-39.6510009765625,-7.1974945068359375,21.428176879882812
1776445431312400400,21.591400390625,-39.375,-7.8331298828125,21.442214965820312
1776445431337416400,21.61641650390625,-39.021575927734375,-9.110519409179688,21.69610595703125
1776445431362432300,21.641432373046875,-38.8963623046875,-9.483718872070312,21.968215942382812
1776445431387448300,21.6664482421875,-38.703033447265625,-10.009719848632812,21.92791748046875
1776445431412464400,21.69146435546875,-38.778594970703125,-10.3193359375,21.6884765625
1776445431437481500,21.7164814453125,-38.84295654296875,-10.921340942382812,21.512298583984375
1776445431462497300,21.741497314453124,-38.698333740234375,-11.240066528320312,21.536666870117188
1776445431487513300,21.766513427734374,-38.780120849609375,-11.175674438476562,21.749099731445312
1776445431512529400,21.791529296875,-38.307952880859375,-11.17083740234375,22.297332763671875
1776445431537545200,21.816545166015626,-38.21075439453125,-11.485427856445312,22.44049072265625
1776445431562561300,21.841561279296876,-38.439849853515625,-12.392349243164062,22.112533569335938
1776445431587577300,21.866577392578126,-38.777130126953125,-12.47076416015625,21.176239013671875
1776445431612594400,21.891594482421876,-39.0927734375,-13.48388671875,20.308486938476562
1776445431637610200,21.9166103515625,-39.7716064453125,-13.832687377929688,18.42510986328125
1776445431662626800,21.941626708984376,-39.8319091796875,-14.136947631835938,17.107940673828125
1776445431687643000,21.966642822265626,-40.545013427734375,-15.073776245117188,15.740158081054688
1776445431712658700,21.99165869140625,-40.356842041015625,-15.186996459960938,15.184707641601562
1776445431737674800,22.0166748046875,-40.279205322265625,-15.880599975585938,14.507568359375
1776445431762691800,22.04169189453125,-40.214447021484375,-16.421859741210938,14.263397216796875
1776445431787708000,22.0667080078125,-40.177703857421875,-17.496810913085938,13.550643920898438
1776445431812723700,22.0917236328125,-40.300994873046875,-18.528289794921875,12.062942504882812
1776445431837739800,22.11673974609375,-40.12408447265625,-20.211257934570312,9.703109741210938
1776445431862755800,22.141755859375,-39.969818115234375,-21.049652099609375,8.5440673828125
1776445431887771600,22.166771728515624,-39.891143798828125,-22.075225830078125,6.6750946044921875
1776445431912787700,22.19178759765625,-39.67156982421875,-22.639938354492188,5.8223724365234375
1776445431937804800,22.2168046875,-39.52410888671875,-23.481475830078125,5.88616943359375
1776445431962820900,22.24182080078125,-39.027313232421875,-23.5797119140625,5.829925537109375
1776445431987836700,22.266836669921876,-39.212066650390625,-24.201202392578125,4.5707855224609375
1776445432012852700,22.291852783203126,-38.985260009765625,-24.303115844726562,3.04730224609375
1776445432037868800,22.316868896484376,-38.785186767578125,-24.409805297851562,-0.124298095703125
1776445432062884900,22.341884765625,-38.77691650390625,-24.825424194335938,-2.642242431640625
1776445432087902000,22.36690185546875,-38.434967041015625,-24.393539428710938,-6.32476806640625
1776445432112917800,22.391917724609375,-38.04736328125,-23.594924926757812,-8.73345947265625
1776445432137933800,22.416933837890625,-37.738006591796875,-22.798141479492188,-10.258941650390625
1776445432162950000,22.441949951171875,-37.9478759765625,-22.338119506835938,-10.907470703125
1776445432187965700,22.466965576171877,-38.356231689453125,-22.5694580078125,-10.84967041015625
1776445432212981800,22.491981689453127,-38.391265869140625,-22.3118896484375,-10.2952880859375
1776445432237997800,22.516997802734377,-38.081024169921875,-21.915817260742188,-10.321990966796875
1776445432263015000,22.542014892578123,-38.823394775390625,-21.651809692382812,-10.512527465820312
1776445432288030700,22.56703076171875,-38.537261962890625,-21.126220703125,-11.4769287109375
1776445432313046800,22.592046875,-38.81396484375,-20.335281372070312,-12.49713134765625
1776445432338062800,22.617062744140625,-38.6658935546875,-19.050003051757812,-13.738327026367188
1776445432363078700,22.64207861328125,-38.61700439453125,-18.482940673828125,-14.484954833984375
1776445432388094700,22.6670947265625,-38.65826416015625,-17.394943237304688,-15.364013671875
1776445432413111800,22.69211181640625,-38.210205078125,-16.927139282226562,-15.46173095703125
1776445432438127900,22.7171279296875,-38.36541748046875,-16.25616455078125,-15.808746337890625
1776445432463144000,22.74214404296875,-39.04974365234375,-15.560195922851562,-15.893951416015625
1776445432488159700,22.76715966796875,-38.93878173828125,-14.564956665039062,-15.493408203125
1776445432513175800,22.79217578125,-39.2796630859375,-13.4630126953125,-15.746673583984375
1776445432538192000,22.81719189453125,-39.876617431640625,-11.878311157226562,-15.834991455078125
1776445432563208700,22.842208740234376,-39.701934814453125,-10.836593627929688,-16.036148071289062
1776445432588224800,22.867224853515626,-39.550201416015625,-10.140182495117188,-17.139801025390625
1776445432613240800,22.89224072265625,-39.25909423828125,-9.311508178710938,-17.972488403320312
1776445432638257000,22.9172568359375,-38.788604736328125,-8.518402099609375,-19.19183349609375
1776445432663273000,22.94227294921875,-38.835906982421875,-7.6605224609375,-19.780426025390625
1776445432688289000,22.9672890625,-38.273834228515625,-6.1165924072265625,-21.233230590820312
1776445432713305000,22.99230517578125,-37.507904052734375,-5.37591552734375,-21.88623046875
1776445432738322000,23.017322021484375,-37.18316650390625,-4.26971435546875,-22.291915893554688
1776445432763337700,23.042337646484373,-37.1650390625,-3.4674835205078125,-22.213043212890625
1776445432788353800,23.067353759765624,-37.00238037109375,-2.323974609375,-22.270034790039062
1776445432813370000,23.0923701171875,-37.415130615234375,-1.38763427734375,-21.917678833007812
1776445432838386000,23.117385986328124,-37.760101318359375,-0.657257080078125,-21.17724609375
1776445432863402000,23.142402099609374,-37.3818359375,0.0751953125,-20.34222412109375
1776445432888418800,23.167418701171876,-37.764739990234375,1.14398193359375,-20.12274169921875
1776445432913435000,23.192434814453126,-37.64544677734375,2.0941925048828125,-20.08917236328125
1776445432938450700,23.21745068359375,-38.023651123046875,3.210357666015625,-20.170562744140625
1776445432963467000,23.242467041015626,-37.6268310546875,3.877105712890625,-19.925155639648438
1776445432988483000,23.267483154296876,-37.69915771484375,4.8642578125,-19.793289184570312
1776445433013499100,23.2924990234375,-37.8021240234375,5.3409576416015625,-19.278305053710938
1776445433038515700,23.317515625,-38.2845458984375,5.8184967041015625,-19.173171997070312
1776445433063531800,23.34253173828125,-38.258819580078125,6.4853363037109375,-18.41552734375
1776445433088547800,23.3675478515625,-38.351959228515625,7.0938262939453125,-18.095306396484375
1776445433113564000,23.39256396484375,-38.617889404296875,7.3876953125,-17.356430053710938
1776445433138580000,23.417580078125,-39.37176513671875,7.5430450439453125,-16.931732177734375
1776445433163596000,23.442595947265627,-39.547637939453125,7.112945556640625,-15.712905883789062
1776445433188612000,23.467612060546877,-40.048980712890625,6.6390533447265625,-15.135208129882812
1776445433213629000,23.49262890625,-40.724090576171875,6.3016510009765625,-14.688644409179688
1776445433238644700,23.517644775390625,-40.74298095703125,6.219573974609375,-14.362457275390625
1776445433263660800,23.542660888671875,-40.688812255859375,7.06219482421875,-14.89215087890625
1776445433288676900,23.5676767578125,-39.36151123046875,7.69818115234375,-15.616561889648438
1776445433313693000,23.59269287109375,-39.11279296875,8.667755126953125,-15.79791259765625
1776445433338709000,23.617708984375,-39.05914306640625,8.901885986328125,-15.206741333007812
1776445433363725800,23.642725830078124,-39.482513427734375,9.3875732421875,-14.4576416015625
1776445433388742000,23.667741943359374,-39.329559326171875,10.105484008789062,-14.428665161132812
1776445433413758000,23.692758056640624,-38.6888427734375,10.661102294921875,-15.734283447265625
1776445433438773800,23.717773681640626,-38.196746826171875,11.134475708007812,-16.34869384765625
1776445433463789800,23.742789794921876,-37.105682373046875,11.157745361328125,-18.44482421875
1776445433488806000,23.767805908203126,-36.07611083984375,11.374099731445312,-20.118545532226562
1776445433513823000,23.792822998046876,-34.42266845703125,11.646621704101562,-22.947891235351562
1776445433538838800,23.8178388671875,-32.939300537109375,11.770156860351562,-24.527481079101562
1776445433563854800,23.842854736328125,-32.002838134765625,11.432586669921875,-26.216995239257812
1776445433588871000,23.867870849609375,-31.24542236328125,11.365341186523438,-26.973190307617188
1776445433613886700,23.89288671875,-30.1595458984375,11.60552978515625,-27.818557739257812
1776445433638902800,23.91790283203125,-29.68328857421875,11.670379638671875,-28.240005493164062
1776445433663920600,23.942920654296874,-27.65277099609375,12.12420654296875,-29.682037353515625
1776445433688936400,23.9679365234375,-25.894927978515625,12.507476806640625,-30.847549438476562
1776445433713952500,23.992952392578125,-22.851531982421875,13.205795288085938,-32.65101623535156
1776445433738968600,24.017968505859375,-21.6298828125,14.739974975585938,-32.99046325683594
1776445433763984400,24.042984375,-20.659393310546875,16.225662231445312,-33.080322265625
1776445433789000400,24.06800048828125,-19.639923095703125,16.768203735351562,-33.239288330078125
1776445433814017500,24.093017578125,-17.0526123046875,16.986434936523438,-34.327911376953125
1776445433839033600,24.11803369140625,-15.05474853515625,16.603775024414062,-35.243011474609375
1776445433864049400,24.14304931640625,-12.443359375,16.41998291015625,-36.33128356933594
1776445433889065500,24.1680654296875,-11.2825927734375,16.038894653320312,-36.95314025878906
1776445433914081500,24.19308154296875,-10.485260009765625,16.096466064453125,-36.90789794921875
1776445433939097600,24.21809765625,-11.109649658203125,16.916458129882812,-36.3443603515625
1776445433964114400,24.243114501953126,-11.94293212890625,17.49713134765625,-35.822662353515625
1776445433989130500,24.268130615234377,-12.8924560546875,17.48919677734375,-35.508575439453125
1776445434014146600,24.293146484375,-15.35247802734375,17.82733154296875,-34.52606201171875
1776445434039162600,24.31816259765625,-17.17413330078125,17.41729736328125,-33.833221435546875
1776445434064178400,24.343178466796875,-19.423065185546875,16.593276977539062,-33.00468444824219
1776445434089194500,24.368194580078125,-20.989990234375,16.470718383789062,-32.49394226074219
1776445434114211600,24.393211669921875,-21.948577880859375,15.856201171875,-32.38960266113281
1776445434139227600,24.4182275390625,-22.705963134765625,15.469863891601562,-32.19403076171875
1776445434164243500,24.443243408203124,-23.489593505859375,14.190170288085938,-32.16632080078125
1776445434189259500,24.468259521484374,-22.901275634765625,14.278778076171875,-32.37614440917969
1776445434214275600,24.493275634765624,-22.68109130859375,14.607177734375,-32.77738952636719
1776445434239291400,24.51829150390625,-21.759246826171875,15.5535888671875,-32.583648681640625
1776445434264308500,24.54330859375,-21.823150634765625,15.877731323242188,-32.08976745605469
1776445434289324500,24.568324462890626,-23.17352294921875,15.876113891601562,-31.24407958984375
1776445434314340600,24.593340576171876,-24.620697021484375,15.324188232421875,-30.669677734375
1776445434339356700,24.618356689453126,-24.6280517578125,15.223648071289062,-30.604812622070312
1776445434364372500,24.64337255859375,-25.275726318359375,14.548126220703125,-30.73895263671875
1776445434389388500,24.668388427734374,-25.217315673828125,13.911773681640625,-31.212905883789062
1776445434414404600,24.693404541015624,-25.45770263671875,13.23272705078125,-31.53765869140625
1776445434439420400,24.71842041015625,-25.4517822265625,12.691070556640625,-31.414779663085938
1776445434464436500,24.7434365234375,-26.650146484375,11.911651611328125,-31.670120239257812
1776445434489453600,24.76845361328125,-26.22821044921875,10.804763793945312,-31.739425659179688
1776445434514469600,24.7934697265625,-26.00360107421875,9.35479736328125,-32.38175964355469
1776445434539485400,24.8184853515625,-25.131927490234375,8.270233154296875,-33.55488586425781
1776445434564501500,24.84350146484375,-24.38909912109375,5.9715423583984375,-34.748687744140625
1776445434589517600,24.868517578125,-23.73260498046875,4.593170166015625,-35.5926513671875
1776445434614533600,24.89353369140625,-22.00628662109375,2.890655517578125,-36.71855163574219
1776445434639550500,24.918550537109375,-20.90081787109375,1.951416015625,-37.24748229980469
1776445434664565800,24.943565673828125,-19.409423828125,0.3220367431640625,-37.99983215332031
1776445434689581800,24.968581787109375,-18.863525390625,0.2622222900390625,-38.29083251953125
1776445434714598000,24.993597900390625,-18.274017333984375,-0.267181396484375,-38.59474182128906
1776445434739614000,25.018614013671876,-17.146697998046875,-0.30035400390625,-38.481903076171875
1776445434764629800,25.043629638671874,-16.67144775390625,-0.334930419921875,-39.21049499511719
1776445434789646800,25.068646728515624,-16.0126953125,-0.704559326171875,-39.10960388183594
1776445434814663000,25.093662841796874,-15.1976318359375,-1.1702728271484375,-39.661102294921875
1776445434839679000,25.118678955078124,-13.9793701171875,-1.838897705078125,-39.66844177246094
1776445434864694800,25.14369482421875,-12.107574462890625,-2.0827484130859375,-40.39363098144531
1776445434889710800,25.1687109375,-10.356689453125,-2.4378814697265625,-40.39741516113281
1776445434914728000,25.19372802734375,-9.30780029296875,-2.9843902587890625,-40.62364196777344
1776445434939744000,25.218743896484376,-8.91204833984375,-2.56646728515625,-40.86711120605469
1776445434964759800,25.243759765625,-8.45098876953125,-2.332672119140625,-41.043975830078125
1776445434989776000,25.26877587890625,-8.020965576171875,-1.8494110107421875,-41.26393127441406
1776445435014792000,25.2937919921875,-7.5025634765625,-1.1652984619140625,-41.29933166503906
1776445435039808000,25.31880810546875,-7.777679443359375,-0.3190155029296875,-40.99530029296875
1776445435064824800,25.343824951171875,-7.2841796875,0.6528472900390625,-41.216796875
1776445435089841000,25.3688408203125,-7.7098388671875,1.0612030029296875,-41.004669189453125
1776445435114857000,25.39385693359375,-8.012786865234375,1.0546417236328125,-41.07749938964844
1776445435139873000,25.418873046875,-8.019439697265625,0.642425537109375,-40.92857360839844
1776445435164888800,25.443888916015624,-7.901641845703125,0.5182647705078125,-40.929229736328125
1776445435189905000,25.46890478515625,-7.736785888671875,0.642669677734375,-41.03477478027344
1776445435214922000,25.493921875,-7.15350341796875,1.007659912109375,-40.74365234375
1776445435239938000,25.51893798828125,-6.9320068359375,0.8033294677734375,-40.722900390625
1776445435264953900,25.543953857421876,-7.10296630859375,0.7718505859375,-40.85577392578125
1776445435289970000,25.568969970703126,-6.99945068359375,0.6948699951171875,-40.7069091796875
1776445435314986000,25.593986083984376,-7.099456787109375,0.4293670654296875,-40.626739501953125
1776445435340001800,25.619001708984374,-7.54803466796875,0.8570404052734375,-40.6187744140625
1776445435365019000,25.644018798828125,-8.86993408203125,1.4676361083984375,-40.21467590332031
1776445435390035000,25.669034912109375,-8.880889892578125,2.1895904541015625,-40.05902099609375
1776445435415051000,25.694051025390625,-9.827301025390625,2.9167633056640625,-40.35340881347656
1776445435440066800,25.71906689453125,-9.6513671875,2.91552734375,-39.74232482910156
1776445435465083000,25.744082763671877,-9.878021240234375,2.2729339599609375,-39.893798828125
1776445435490099000,25.769098876953127,-9.064544677734375,2.0063629150390625,-40.418212890625
1776445435515116000,25.794115966796873,-8.34783935546875,1.1523590087890625,-40.61329650878906
1776445435540131800,25.8191318359375,-8.171417236328125,0.370208740234375,-40.563629150390625
1776445435565148000,25.84414794921875,-7.685546875,0.147796630859375,-40.74200439453125
1776445435590164000,25.8691640625,-7.436981201171875,0.41510009765625,-40.842864990234375
1776445435615180000,25.894179931640625,-7.22711181640625,0.8831634521484375,-40.91667175292969
1776445435640195800,25.91919580078125,-8.90399169921875,0.8206787109375,-40.59138488769531
1776445435665213200,25.944213134765626,-11.722747802734375,0.06390380859375,-40.095703125
1776445435690229200,25.969229248046876,-11.875885009765625,-1.3019561767578125,-40.3609619140625
1776445435715245000,25.9942451171875,-10.97821044921875,-3.1752471923828125,-40.30680847167969
1776445435740261000,26.01926123046875,-10.313232421875,-4.5462188720703125,-40.30439758300781
1776445435765277200,26.044277099609374,-9.5614013671875,-6.0272064208984375,-40.41571044921875
1776445435790294300,26.069294189453124,-9.707183837890625,-6.9600677490234375,-40.51832580566406
1776445435815310000,26.09431005859375,-10.632476806640625,-7.348297119140625,-40.30888366699219
1776445435840326100,26.119326171875,-10.753692626953125,-7.0409088134765625,-40.421478271484375
1776445435865342200,26.14434228515625,-9.108673095703125,-7.566986083984375,-40.79469299316406
1776445435890358000,26.16935791015625,-7.77862548828125,-7.4072265625,-40.937103271484375
1776445435915374000,26.1943740234375,-4.8472900390625,-6.3974609375,-41.4637451171875
1776445435940391200,26.21939111328125,-2.79132080078125,-5.991455078125,-41.36933898925781
1776445435965407200,26.2444072265625,-0.29656982421875,-7.5213775634765625,-40.97953796386719
1776445435990423300,26.26942333984375,1.357025146484375,-9.1883544921875,-40.60186767578125
1776445436015439000,26.294439208984375,1.789306640625,-11.039031982421875,-40.11830139160156
1776445436040455200,26.319455078125,1.1693115234375,-11.844436645507812,-40.23619079589844
1776445436065471200,26.34447119140625,-0.004150390625,-12.344207763671875,-40.22322082519531
1776445436090488300,26.36948828125,-0.719512939453125,-12.828353881835938,-39.7479248046875
1776445436115504000,26.394504150390624,-0.40191650390625,-12.798568725585938,-40.00593566894531
1776445436140520200,26.419520263671874,1.009002685546875,-12.295928955078125,-39.97930908203125
1776445436165536300,26.444536376953124,1.743682861328125,-11.861251831054688,-40.06512451171875
1776445436190552000,26.469552001953126,2.969512939453125,-10.931427001953125,-40.37782287597656
1776445436215568100,26.494568115234376,4.169403076171875,-10.115631103515625,-40.338165283203125
1776445436240585200,26.519585205078126,6.7215576171875,-8.928390502929688,-40.152679443359375
1776445436265601300,26.544601318359376,8.26959228515625,-7.6201934814453125,-40.23558044433594
1776445436290617000,26.5696171875,11.404937744140625,-5.9761962890625,-39.298980712890625
1776445436315633200,26.594633056640625,13.020263671875,-5.1102142333984375,-39.13336181640625
1776445436340649200,26.619649169921875,14.268035888671875,-5.196929931640625,-38.661865234375
1776445436365665300,26.644665283203125,14.41143798828125,-5.589141845703125,-38.40641784667969
1776445436390681900,26.669681884765627,14.301300048828125,-6.1473846435546875,-37.95147705078125
1776445436415698200,26.6946982421875,14.221710205078125,-6.084075927734375,-38.20941162109375
1776445436440714200,26.71971435546875,13.76373291015625,-6.7342529296875,-38.337432861328125
1776445436465730300,26.744730224609373,13.464599609375,-7.054229736328125,-38.4459228515625
1776445436490746000,26.76974609375,13.276153564453125,-7.8502044677734375,-38.58732604980469
1776445436515763000,26.794762939453125,13.135101318359375,-8.177490234375,-38.260833740234375
1776445436540779000,26.819779052734376,15.05859375,-8.566009521484375,-37.55165100097656
1776445436565795000,26.844795166015626,15.3580322265625,-8.112396240234375,-37.36244201660156
1776445436590811100,26.86981103515625,16.234161376953125,-6.4170379638671875,-37.15223693847656
1776445436615827200,26.8948271484375,16.63763427734375,-5.562042236328125,-37.060455322265625
1776445436640843300,26.91984326171875,17.17779541015625,-3.8016204833984375,-37.05224609375
1776445436665859600,26.944859619140626,17.213470458984375,-3.246734619140625,-37.2581787109375
1776445436690875600,26.969875732421876,17.847686767578125,-2.90057373046875,-37.09574890136719
1776445436715891700,26.9948916015625,18.496734619140625,-2.6244354248046875,-37.06877136230469
1776445436740907800,27.01990771484375,18.36663818359375,-1.7651214599609375,-36.84571838378906
1776445436765923800,27.044923828125,18.65325927734375,-1.6380462646484375,-36.88017272949219
1776445436790939600,27.069939697265625,17.67059326171875,-2.0445404052734375,-37.08338928222656
1776445436815956500,27.09495654296875,18.0927734375,-2.8385009765625,-37.09442138671875
1776445436840972500,27.11997265625,19.20599365234375,-3.7061767578125,-36.5399169921875
1776445436865988600,27.144988525390627,20.12615966796875,-3.9300079345703125,-36.03602600097656
1776445436891004700,27.170004638671877,20.626129150390625,-3.9921722412109375,-35.601165771484375
1776445436916020700,27.195020751953123,20.617279052734375,-2.67498779296875,-35.94309997558594
1776445436941037600,27.22003759765625,22.26507568359375,0.275665283203125,-34.72657775878906
1776445436966053600,27.2450537109375,23.220703125,1.834442138671875,-33.95829772949219
1776445436991069400,27.2700693359375,22.270721435546875,2.60943603515625,-34.49644470214844
1776445437016085500,27.29508544921875,22.13470458984375,2.776458740234375,-34.65065002441406
1776445437041101600,27.3201015625,22.587982177734375,2.8909759521484375,-33.95155334472656
1776445437066118000,27.345117919921876,23.52227783203125,3.6929779052734375,-33.30104064941406
1776445437091134700,27.370134765625,24.54541015625,4.1293792724609375,-32.56532287597656
1776445437116150500,27.395150634765624,24.149932861328125,4.190887451171875,-32.64723205566406
1776445437141166600,27.42016650390625,24.532562255859375,3.148223876953125,-32.83331298828125
1776445437166182700,27.4451826171875,23.989227294921875,2.1821136474609375,-33.11859130859375
1776445437191198500,27.470198486328126,23.374176025390625,0.910614013671875,-33.662628173828125
1776445437216214800,27.49521484375,23.3756103515625,0.8532867431640625,-33.88362121582031
1776445437241231600,27.520231689453126,23.387176513671875,2.0832977294921875,-34.121307373046875
1776445437266247700,27.54524755859375,23.9964599609375,2.826507568359375,-33.480438232421875
1776445437291263500,27.570263427734375,25.31768798828125,3.3959808349609375,-32.625335693359375
1776445437316279600,27.595279541015625,24.77777099609375,3.4886932373046875,-32.51145935058594
1776445437341295600,27.620295654296875,24.269683837890625,3.156158447265625,-33.06459045410156
1776445437366312700,27.645312744140625,23.765350341796875,2.9439239501953125,-33.54974365234375
1776445437391328500,27.67032861328125,22.669525146484375,2.488128662109375,-34.641632080078125
1776445437416344600,27.695344482421874,22.66851806640625,2.528289794921875,-34.76812744140625
1776445437441360600,27.720360595703124,22.761260986328125,3.049163818359375,-34.42378234863281
1776445437466376700,27.745376708984374,22.623687744140625,3.2801055908203125,-33.99882507324219
1776445437491392500,27.770392578125,22.9771728515625,3.986968994140625,-33.87223815917969
1776445437516409600,27.79540966796875,22.548004150390625,4.1761932373046875,-34.19514465332031
1776445437541425700,27.82042578125,22.193084716796875,4.8469085693359375,-34.45965576171875
1776445437566441700,27.845441650390626,21.161590576171875,5.9049835205078125,-34.72190856933594
1776445437591457500,27.87045751953125,20.8145751953125,8.297622680664062,-34.647064208984375
1776445437616473600,27.8954736328125,20.20733642578125,10.050567626953125,-34.34941101074219
1776445437641489700,27.92048974609375,19.70074462890625,11.480300903320312,-34.52134704589844
1776445437666506500,27.945506591796875,19.67529296875,12.116165161132812,-34.31520080566406
1776445437691522600,27.9705224609375,19.64141845703125,11.625030517578125,-34.5655517578125
1776445437716538400,27.995538330078126,19.990936279296875,11.359832763671875,-34.23179626464844
1776445437741555500,28.020555419921877,19.9412841796875,11.056076049804688,-34.452423095703125
1776445437766571500,28.045571533203123,19.601776123046875,10.883758544921875,-34.52455139160156
1776445437791587600,28.070587646484373,19.94818115234375,10.45428466796875,-34.47734069824219
1776445437816603600,28.095603759765623,20.578460693359375,9.055160522460938,-34.84130859375
1776445437841619500,28.120619384765625,21.399078369140625,8.8154296875,-34.610076904296875
1776445437866635500,28.145635498046875,21.496826171875,9.220001220703125,-33.94953918457031
1776445437891652600,28.170652587890626,21.98883056640625,10.433456420898438,-33.368804931640625
1776445437916668700,28.195668701171876,22.48919677734375,13.253250122070312,-32.20613098144531
1776445437941684500,28.2206845703125,22.93341064453125,14.280899047851562,-31.35919189453125
1776445437966700500,28.245700439453124,22.42340087890625,15.895492553710938,-30.891006469726562
1776445437991716600,28.270716552734374,21.881866455078125,16.29888916015625,-31.077987670898438
1776445438016732400,28.295732421875,20.668792724609375,16.923721313476562,-31.282073974609375
1776445438041749500,28.32074951171875,20.41351318359375,17.363616943359375,-31.471878051757812
1776445438066765600,28.345765625,20.36883544921875,18.06536865234375,-31.361618041992188
1776445438091781600,28.37078173828125,20.0509033203125,18.428436279296875,-31.097946166992188
1776445438116797400,28.39579736328125,18.60784912109375,19.787139892578125,-31.12005615234375
1776445438141813500,28.4208134765625,18.047760009765625,20.989837646484375,-30.767166137695312
1776445438166830600,28.44583056640625,16.78558349609375,22.172042846679688,-30.117218017578125
1776445438191846700,28.4708466796875,16.01904296875,23.211837768554688,-30.093963623046875
1776445438216862500,28.495862548828125,13.84210205078125,24.140228271484375,-30.52655029296875
1776445438241878500,28.52087841796875,12.266693115234375,24.799285888671875,-30.6312255859375
1776445438266894600,28.54589453125,10.2584228515625,25.354629516601562,-30.969512939453125
1776445438291910700,28.57091064453125,8.67333984375,25.999313354492188,-30.897323608398438
1776445438316927500,28.595927490234374,5.6395263671875,26.010162353515625,-31.346542358398438
1776445438341943600,28.620943603515624,4.452239990234375,25.734054565429688,-31.845184326171875
1776445438366959600,28.645959716796874,1.855255126953125,25.449493408203125,-32.3310546875
1776445438391975700,28.6709755859375,0.127716064453125,24.887054443359375,-32.7432861328125
1776445438416991500,28.695991455078126,-1.667144775390625,24.00640869140625,-33.39280700683594
1776445438442008600,28.721008544921876,-3.232757568359375,22.870468139648438,-34.21295166015625
1776445438467024600,28.746024658203126,-4.4678955078125,21.219100952148438,-35.38688659667969
1776445438492040700,28.771040771484376,-5.322052001953125,20.021286010742188,-36.047882080078125
1776445438517056500,28.796056396484374,-7.1024169921875,18.179855346679688,-36.83448791503906
1776445438542072600,28.821072509765624,-7.279144287109375,17.626876831054688,-37.00810241699219
1776445438567088600,28.846088623046874,-8.23992919921875,16.505340576171875,-37.15185546875
1776445438592105700,28.871105712890625,-8.579315185546875,16.2200927734375,-37.31549072265625
1776445438617121500,28.89612158203125,-9.14697265625,15.916961669921875,-37.14726257324219
1776445438642137600,28.9211376953125,-9.061004638671875,15.646987915039062,-37.37986755371094
1776445438667153700,28.946153564453127,-9.0784912109375,14.63726806640625,-37.822479248046875
1776445438692169700,28.971169677734373,-8.813995361328125,14.417678833007812,-38.199798583984375
1776445438717186800,28.996186767578124,-8.3978271484375,14.015533447265625,-38.330810546875
1776445438742203000,29.021202880859374,-8.2462158203125,13.6239013671875,-38.29234313964844
1776445438767219000,29.046218994140624,-8.418548583984375,13.127197265625,-38.57524108886719
1776445438792234800,29.07123486328125,-8.833770751953125,12.825210571289062,-38.71815490722656
1776445438817250800,29.096250732421876,-9.0830078125,12.402725219726562,-38.65142822265625
1776445438842267000,29.121266845703126,-8.60113525390625,11.935836791992188,-38.98851013183594
1776445438867283700,29.14628369140625,-8.59619140625,11.6072998046875,-39.61878967285156
1776445438892299800,29.1712998046875,-8.274444580078125,11.13592529296875,-39.44505310058594
1776445438917315800,29.19631591796875,-8.058258056640625,11.378494262695312,-39.35838317871094
1776445438942332000,29.221331787109374,-8.019439697265625,11.305099487304688,-39.27284240722656
1776445438967347700,29.24634765625,-8.492645263671875,11.375701904296875,-39.549713134765625
1776445438992364500,29.271364501953126,-9.24285888671875,11.2633056640625,-39.46058654785156
1776445439017380600,29.296380615234376,-9.712982177734375,9.93768310546875,-39.43144226074219
1776445439042396700,29.321396728515627,-10.226593017578125,8.796554565429688,-39.69889831542969
1776445439067412700,29.346412841796877,-10.421875,7.63433837890625,-40.11457824707031
1776445439092428800,29.3714287109375,-10.3782958984375,6.7816314697265625,-40.09077453613281
1776445439117444900,29.39644482421875,-11.039581298828125,5.7133636474609375,-39.980072021484375
1776445439142461700,29.421461669921875,-12.207550048828125,4.5830841064453125,-40.14091491699219
1776445439167477500,29.4464775390625,-12.498687744140625,3.2035980224609375,-40.154052734375
1776445439192493600,29.47149365234375,-12.76873779296875,1.3928070068359375,-40.1248779296875
1776445439217509600,29.496509521484374,-12.627899169921875,0.020751953125,-40.23968505859375
1776445439242525700,29.521525634765624,-11.905487060546875,-1.44256591796875,-40.72503662109375
1776445439267541800,29.546541748046874,-12.28485107421875,-2.137359619140625,-40.7154541015625
1776445439292558600,29.57155859375,-13.659332275390625,-3.0983734130859375,-40.34417724609375
1776445439317574700,29.59657470703125,-15.076019287109375,-3.299163818359375,-39.92008972167969
1776445439342590700,29.6215908203125,-17.707305908203125,-2.162445068359375,-38.89698791503906
1776445439367606500,29.6466064453125,-18.3863525390625,-1.425872802734375,-38.6055908203125
1776445439392622600,29.67162255859375,-18.20428466796875,0.015655517578125,-38.43959045410156
1776445439417639700,29.6966396484375,-17.99127197265625,0.5511932373046875,-38.64463806152344
1776445439442655700,29.72165576171875,-17.919586181640625,0.0860595703125,-39.051513671875
1776445439467671600,29.746671630859375,-17.115234375,0.0102996826171875,-39.21766662597656
1776445439492687600,29.7716875,-17.455535888671875,-0.5832977294921875,-39.22682189941406
1776445439517703700,29.79670361328125,-17.03643798828125,-0.51312255859375,-39.22528076171875
1776445439542719500,29.821719482421877,-17.30224609375,-0.3671875,-38.96812438964844
1776445439567736600,29.846736572265623,-17.306304931640625,-0.405181884765625,-39.10490417480469
1776445439592752600,29.871752685546873,-17.56243896484375,-0.32098388671875,-38.93458557128906
1776445439617768700,29.896768798828123,-18.371307373046875,-0.5102996826171875,-38.88523864746094
1776445439642784500,29.921784423828125,-19.80072021484375,-0.6501922607421875,-38.02015686035156
1776445439667801000,29.946801025390624,-19.354339599609375,-0.50408935546875,-37.65834045410156
1776445439692818200,29.971818115234374,-19.836669921875,-0.546112060546875,-37.706573486328125
1776445439717834200,29.996834228515624,-21.219940185546875,-0.2741546630859375,-37.381622314453125
1776445439742850300,30.021850341796874,-22.16168212890625,-1.0543975830078125,-36.638824462890625
1776445439767866000,30.0468662109375,-22.26409912109375,-1.4336700439453125,-36.249267578125
1776445439792882200,30.071882080078126,-22.69677734375,-1.6697540283203125,-35.778411865234375
1776445439817898200,30.096898193359376,-22.77191162109375,-1.8441619873046875,-36.05279541015625
1776445439842915300,30.121915283203126,-22.3212890625,-1.362884521484375,-35.972869873046875
1776445439867931100,30.14693115234375,-22.88409423828125,-1.30169677734375,-35.92999267578125
1776445439892947200,30.171947265625,-23.106658935546875,-1.0203857421875,-35.544708251953125
1776445439917963300,30.19696337890625,-23.198272705078125,-1.225921630859375,-36.05412292480469
1776445439942979000,30.22197900390625,-22.5313720703125,-1.806976318359375,-36.22709655761719
1776445439967996200,30.24699609375,-22.053070068359375,-1.7392730712890625,-36.56745910644531
1776445439993012200,30.27201220703125,-20.545379638671875,-1.804473876953125,-37.307891845703125
1776445440018028300,30.2970283203125,-20.201171875,-2.468841552734375,-37.32135009765625
1776445440043044400,30.32204443359375,-20.641815185546875,-3.0155792236328125,-37.28758239746094
1776445440068060200,30.34706005859375,-20.7440185546875,-3.57080078125,-37.08683776855469
1776445440093076200,30.372076171875,-20.418487548828125,-4.547271728515625,-37.63890075683594
1776445440118093300,30.39709326171875,-20.006866455078125,-4.77813720703125,-37.77308654785156
1776445440143109400,30.422109375,-19.086883544921875,-5.5159454345703125,-37.87315368652344
1776445440168125200,30.447125244140626,-18.83465576171875,-6.5177001953125,-38.04368591308594
1776445440193141200,30.472141357421876,-17.443817138671875,-6.8531646728515625,-38.66600036621094
1776445440218157300,30.4971572265625,-17.0772705078125,-7.432037353515625,-38.76414489746094
1776445440243174400,30.52217431640625,-15.194305419921875,-7.99053955078125,-39.12440490722656
1776445440268190200,30.547190185546874,-14.5654296875,-8.516876220703125,-39.43003845214844
1776445440293206300,30.572206298828124,-13.80712890625,-9.30010986328125,-39.785186767578125
1776445440318222300,30.597222412109375,-12.992584228515625,-9.667648315429688,-39.878692626953125
1776445440343238100,30.622238037109376,-10.8089599609375,-10.14752197265625,-40.12092590332031
1776445440368254200,30.647254150390626,-9.645965576171875,-10.52911376953125,-39.99896240234375
1776445440393271300,30.672271240234377,-7.90228271484375,-10.930999755859375,-40.311553955078125
1776445440418287400,30.697287353515627,-7.422119140625,-11.283584594726562,-40.326690673828125
1776445440443303200,30.72230322265625,-6.333404541015625,-11.434051513671875,-40.585357666015625
1776445440468319200,30.7473193359375,-5.072723388671875,-11.246627807617188,-40.661834716796875
1776445440493335300,30.772335205078125,-3.5040283203125,-11.111907958984375,-40.89793395996094
1776445440518352400,30.797352294921875,-1.795989990234375,-10.843521118164062,-40.961578369140625
1776445440543368200,30.8223681640625,1.17291259765625,-10.926773071289062,-40.72833251953125
1776445440568384300,30.84738427734375,3.017791748046875,-10.8846435546875,-40.795013427734375
1776445440593400300,30.872400390625,4.4884033203125,-10.325042724609375,-40.92976379394531
1776445440618416400,30.89741650390625,4.319366455078125,-10.092208862304688,-41.05891418457031
1776445440643432200,30.92243212890625,3.557159423828125,-10.004318237304688,-41.07164001464844
1776445440668448800,30.94744873046875,3.16265869140625,-9.809066772460938,-41.224456787109375
1776445440693464800,30.97246484375,3.959014892578125,-9.249160766601562,-41.144744873046875
1776445440718481000,30.99748095703125,4.71197509765625,-8.51336669921875,-40.96827697753906
1776445440743497000,31.0224970703125,6.421417236328125,-8.140029907226562,-41.038330078125
1776445440768512800,31.0475126953125,6.7952880859375,-7.8581390380859375,-40.91389465332031
1776445440793529900,31.07252978515625,7.421295166015625,-7.4719696044921875,-40.72819519042969
1776445440818546000,31.0975458984375,7.569000244140625,-7.5066986083984375,-40.70582580566406
1776445440843562000,31.12256201171875,6.860076904296875,-7.6189422607421875,-41.452911376953125
1776445440868577800,31.147577880859377,5.998504638671875,-7.5938568115234375,-41.275909423828125
1776445440893593900,31.17259375,6.33746337890625,-7.7180023193359375,-41.17181396484375
1776445440918610000,31.19760986328125,6.9736328125,-7.688446044921875,-41.03813171386719
1776445440943627000,31.222626953125,6.96246337890625,-7.1176300048828125,-41.12335205078125
1776445440968642800,31.247642822265625,6.3492431640625,-6.9742889404296875,-41.37330627441406
1776445440993659000,31.272658935546875,5.605255126953125,-6.93963623046875,-41.43212890625
1776445441018675000,31.297675048828125,5.765411376953125,-6.8023529052734375,-41.30265808105469
1776445441043690800,31.322690673828124,5.83197021484375,-6.5246124267578125,-41.32183837890625
1776445441068707600,31.34770751953125,5.299713134765625,-6.4936065673828125,-41.31739807128906
1776445441093723600,31.3727236328125,5.3204345703125,-5.7349700927734375,-41.54402160644531
1776445441118740000,31.397739990234374,4.592071533203125,-5.6573638916015625,-41.45133972167969
1776445441143756000,31.422756103515624,3.688720703125,-5.1729888916015625,-41.63682556152344
1776445441168771800,31.447771728515626,3.884918212890625,-4.2917327880859375,-41.867828369140625
1776445441193788000,31.472787841796876,4.185333251953125,-3.57147216796875,-41.652435302734375
1776445441218804700,31.4978046875,4.5501708984375,-2.0743255615234375,-41.90521240234375
1776445441243820800,31.52282080078125,4.4766845703125,0.0225067138671875,-41.695159912109375
1776445441268836900,31.5478369140625,3.21112060546875,1.93389892578125,-41.88450622558594
1776445441293853000,31.57285302734375,1.676788330078125,1.9290924072265625,-41.96031188964844
1776445441318869000,31.597868896484375,0.72222900390625,1.4317779541015625,-41.87152099609375
1776445441343885800,31.6228857421875,-0.13836669921875,1.41094970703125,-41.96136474609375
1776445441368901600,31.647901611328123,-2.58001708984375,1.7180023193359375,-42.09638977050781
1776445441393917700,31.672917724609373,-2.31610107421875,1.553558349609375,-42.12031555175781
1776445441418933800,31.697933837890623,-0.813934326171875,1.458099365234375,-42.04412841796875
1776445441443949800,31.72294970703125,0.433258056640625,0.792938232421875,-42.115234375
1776445441468966700,31.747966552734376,1.91058349609375,-0.08197021484375,-41.79234313964844
1776445441493982700,31.772982666015626,1.7591552734375,-0.9139556884765625,-41.96308898925781
1776445441518998800,31.797998779296876,0.531982421875,-1.3022918701171875,-42.01771545410156
1776445441544014600,31.8230146484375,-0.681854248046875,-1.2392730712890625,-42.24253845214844
1776445441569030700,31.84803076171875,0.095977783203125,-0.5935821533203125,-42.39556884765625
1776445441594046700,31.873046630859374,0.95391845703125,0.1908721923828125,-42.31919860839844
1776445441619063800,31.898063720703124,3.783935546875,1.36163330078125,-41.794708251953125
1776445441644079600,31.92307958984375,5.53668212890625,2.5620880126953125,-41.57029724121094
