time,seconds_elapsed,z,y,x
1776445409798611500,0.077611572265625,0.10440437732636929,0.1715676960170269,-0.11152706881314516
1776445409823627300,0.102627197265625,-0.2149555868446827,-0.4696180379167199,-0.06164696642197668
1776445409848643300,0.127643310546875,-0.1462526374965906,-0.5135479266665876,-0.08142134195007383
1776445409873659400,0.152659423828125,0.08914894052743912,0.15601546822860837,-0.14293299155458808
1776445409898675500,0.177675537109375,-0.15065408732593058,0.2545858787044883,0.19040859008729458
1776445409923690200,0.202690185546875,-0.06282032105028629,-0.13641396504938602,0.08781228509619832
1776445409948706300,0.227706298828125,0.18441607167422772,-0.20864859565496444,-0.18928192414492367
1776445409973722000,0.25272216796875,0.005907178217172623,-0.0478894400306046,-0.13399053729474544
1776445409998738200,0.27773828125,-0.05293897850513458,0.08729542161524295,-0.02274462351053953
1776445410023754200,0.302754150390625,0.019686112722754476,-0.11454290950298308,-0.07397270644456148
1776445410048769300,0.327769287109375,0.11961071428656578,-0.3356454746700823,-0.18562420535497368
1776445410073785300,0.352785400390625,-0.03390168507993221,-0.2925597816593945,-0.5397194558858871
1776445410098801400,0.377801513671875,-0.2523860305726528,0.2507382633656263,-0.3146582892861217
1776445410123817500,0.4028173828125,0.08656009307801724,0.5158841145291925,-0.45193435105755925
1776445410148833300,0.427833251953125,0.4147726412683725,-0.1749540505196899,-0.9318276992730796
1776445410173848300,0.452848388671875,-0.04925473703444004,-0.8361777062885463,-0.470108488314785
1776445410198864100,0.477864013671875,-0.47375382254719733,-0.18577113954499364,0.10842475541625171
1776445410223880200,0.502880126953125,0.3839700912475586,0.764213782383129,0.09533577593620866
1776445410248896300,0.527896240234375,-0.46437107717394827,0.3412812885999679,0.49140291301701217
1776445410273912300,0.552912353515625,-1.0700924067556858,-0.5194698640614748,0.9488120056912303
1776445410298927400,0.57792724609375,-0.41464521549642086,-0.4489347308501601,0.5631608660215511
1776445410323943400,0.602943359375,0.5398702625334263,-0.1050951360695064,-0.38865974690113214
1776445410348959500,0.62795947265625,0.8394681261360645,0.04541377063207328,-0.3011612039292231
1776445410373975300,0.652975341796875,0.2018745714753866,-0.45518027417622503,-0.3388738255994394
1776445410398991400,0.677991455078125,0.5643892022401094,-0.75791278254278,-0.5355417318098247
1776445410424007400,0.70300732421875,0.39497546938657757,-0.6258133927568793,0.1964835078204982
1776445410449022200,0.728022216796875,-0.4354553638130426,-0.4492846402663737,0.7321163702461868
1776445410474038300,0.753038330078125,0.1049959134787321,-0.17568879453502595,0.3307301935670897
1776445410499054300,0.778054443359375,0.6651648676753044,0.15763335175402463,0.13769587635239586
1776445410524070100,0.803070068359375,0.18789163883030413,0.02255991459339857,-0.049182146722264584
1776445410549086200,0.828086181640625,0.07533259662091732,-0.1930903034519404,-0.3377045991569757
1776445410574101500,0.8531015625,-0.09916296954154968,0.18213037188984452,0.07304949065241963
1776445410599117300,0.878117431640625,-0.35042613356411456,0.1505664821077138,0.10075898829502984
1776445410624133400,0.90313330078125,-0.6665080989778042,-0.25046025014184414,0.39980756571814413
1776445410649149200,0.928149169921875,-0.6041565644830464,-0.27959092142768205,0.478570721309632
1776445410674165200,0.953165283203125,0.34320261205136776,-0.3459350326899439,-0.23068448637425898
1776445410699181300,0.978181396484375,0.3216074508368969,-0.5510617378290742,-0.566470903884992
1776445410724196000,1.003196044921875,0.39493805998563764,-0.32815088113099333,-0.20651479849666357
1776445410749212200,1.028212158203125,0.17326339401900767,-0.19955000098533926,0.032314671616815026
1776445410774228200,1.053228271484375,-0.4841986441940069,0.014646949511766432,0.6263949189718813
1776445410799244300,1.078244384765625,-0.7908002490788698,0.18180636409986764,0.7070980296500027
1776445410824260400,1.10326025390625,0.45617958741188047,0.231128101955913,-0.5013214092347771
1776445410849275400,1.128275390625,0.26816695255041123,-0.09718180566169321,-0.7168100069776177
1776445410874291200,1.153291259765625,-0.10772037000656128,0.6896984934944659,-1.6683469075880943
1776445410899307300,1.178307373046875,0.5003016377329826,0.3569937484513968,-1.087227373690903
1776445410924323300,1.2033232421875,0.5848357779413461,-0.19412156446212903,-0.6274957928858697
1776445410949339400,1.22833935546875,0.19476035555601118,-0.49903278684094543,-0.9407826476883142
1776445410974355200,1.253355224609375,-0.053980011990666384,-0.30965543949753044,-0.06187577020917087
1776445410999370200,1.278370361328125,0.1307113694936037,-0.4519186054991558,-0.24747728880830108
1776445411024386300,1.30338623046875,-0.08685235402286053,-0.12015344286113977,-0.2684363075437024
1776445411049402000,1.328402099609375,0.4856453358709812,0.1286262885815464,0.31528427569735795
1776445411074418400,1.35341845703125,-0.03787643392980099,0.7248513476792723,0.7198940905980765
1776445411099434500,1.3784345703125,0.29782208610177036,0.10316596723836846,0.04522186478916555
1776445411124450300,1.4034501953125,0.456370726069808,-0.6346465414233505,-0.491747013746947
1776445411149466400,1.42846630859375,0.22023206594288347,-0.3053564819282852,-0.17615504207359625
1776445411174481400,1.4534814453125,0.20889643293619153,-0.0019546366325346753,0.29368182622557504
1776445411199497200,1.478497314453125,-0.13206746027767657,-0.1203564728862606,0.3568096240561455
1776445411224513300,1.50351318359375,-0.27748773860335346,-0.3255696689987555,-0.18434631263995543
1776445411249529300,1.528529296875,0.14450316348075865,-0.2196725688965991,-0.4719146974865347
1776445411274545200,1.553545166015625,0.4606009109854698,-0.07646529957843012,-0.40056620206572113
1776445411299561200,1.578561279296875,0.8433475979179144,0.21091697897836564,-0.4058195560166612
1776445411324576300,1.603576171875,0.27372283311188217,0.14990778073696417,-0.362712235696055
1776445411349592300,1.62859228515625,0.04851940849721431,0.3512953906793147,0.4707761219106614
1776445411374608400,1.6536083984375,-0.27709201728403565,0.29138770567271854,0.21874568157633764
1776445411399624400,1.67862451171875,-0.07443243291079997,0.3172122115526348,-0.13302740961732343
1776445411424640300,1.70364013671875,0.1466623873412609,0.12073878673473372,-0.4090189731124788
1776445411449656300,1.72865625,-0.675814856505394,-0.023106972283218053,-0.16486262715412303
1776445411474671400,1.75367138671875,-0.09842004221975803,-0.14349537467770276,-0.3150570062801242
1776445411499687200,1.778687255859375,-0.2818997098267078,0.04146760855587199,-0.5223711384609341
1776445411524703200,1.803703125,-0.23010697874724864,-0.15142242308361456,-0.4749256428055465
1776445411549719300,1.82871923828125,0.35361119334101676,-0.05369807151043787,-0.09653114146692678
1776445411574735400,1.8537353515625,-0.6091390290707349,0.12010784102058969,0.10184057298665866
1776445411599751200,1.878751220703125,-0.14558335993289948,-0.02315189142046729,-0.07074320473773404
1776445411624767200,1.903767333984375,-0.44884208413064475,0.006977449213631916,0.26278865704555066
1776445411649779000,1.928779052734375,-0.5688228007733822,0.08434409752897917,0.8069083571843803
1776445411674795000,1.953794921875,0.3251572522729635,0.06486095089926384,0.1324205845642835
1776445411699810800,1.978810791015625,0.5534726714283228,-0.16596331840502096,0.3375884254314005
1776445411724827000,2.003826904296875,-0.41939737845957276,0.026280702381930313,1.0455221752531827
1776445411749843000,2.028843017578125,-0.5684843625992536,-0.16344470491390675,0.7938904701791704
1776445411774858800,2.053858642578125,-0.284340673238039,-0.32533834446091203,0.013886386068584397
1776445411799874800,2.078874755859375,-0.3234101163446903,-0.6857514363691211,-0.7165823357015848
1776445411824891000,2.103890869140625,-0.79820380333364,-0.37969394829832015,0.24028724944004787
1776445411849905700,2.12890576171875,-0.4466331759095192,-0.15689838854297994,0.44478111830204725
1776445411874921700,2.153921630859375,0.4800865327000618,0.1732646178617142,-0.005210720385611057
1776445411899937800,2.178937744140625,0.27922961383461953,0.3611783771922812,-0.5600557761456817
1776445411924953600,2.20395361328125,0.3806143510788679,0.0776404077724088,-0.3281748465284705
1776445411949969700,2.2289697265625,-0.08643149826228617,0.0059596253570402035,0.2578515659695491
1776445411974985700,2.25398583984375,-0.12993921607732772,-0.020623101311922073,-0.6629290714472532
1776445412000001800,2.279001708984375,-0.04482639919817447,0.0008229337554425001,-1.2258305193476378
1776445412025017900,2.304017822265625,0.10283259796500205,-0.422777924275957,0.28786161390580234
1776445412050033000,2.329032958984375,0.22645137884914873,-0.3803095229133963,0.7867843645010143
1776445412075048700,2.354048583984375,-0.025143209084868428,-0.581352319739759,1.084765002165362
1776445412100064800,2.379064697265625,-0.009607201778888701,-0.14762122243605552,1.2946549031183123
1776445412125080800,2.404080810546875,0.17023557063043115,-0.14850626164227723,0.22745785247795283
1776445412150097000,2.429096923828125,0.37978842164874077,-0.17832323469184339,0.32661241951733827
1776445412175112700,2.45411279296875,0.4748386951744556,0.5570756643563509,0.2289037404373288
1776445412200128800,2.479128662109375,0.32934710517823695,0.5010373315963894,-0.32195626427456736
1776445412225144800,2.504144775390625,-0.13699556432962418,0.17862470185644924,-0.5270077122204005
1776445412250159600,2.52915966796875,-0.09195055394470691,-0.15740794550031423,-0.04633220065124333
1776445412275176000,2.554176025390625,0.0034638767182826992,-0.5457895695798098,-0.2591140236534178
1776445412300192000,2.57919189453125,-0.20165011506974695,-0.3274193519860506,0.123592550464347
1776445412325207800,2.604207763671875,-0.29591128404438494,0.25061478311643004,1.0834785425513982
1776445412350224000,2.629223876953125,-0.18469781122505663,-0.25077771859318015,1.022125298378989
1776445412375240000,2.654239990234375,0.19255320090055464,0.01899213910922408,0.4878140582121908
1776445412400255700,2.679255859375,0.4050871135562658,0.332504400165379,-0.1661406294669956
1776445412425271800,2.704271728515625,-0.03341828547716141,0.23850845799818635,0.13155147357955574
1776445412450287900,2.729287841796875,-0.4795674772620201,-0.012852759571373462,0.21064159610308705
1776445412475302700,2.754302734375,0.07902502139806747,0.225233965883404,0.4881619218017906
1776445412500318700,2.779318603515625,0.15236849002838135,0.5432203036136924,0.7229654608674347
1776445412525334800,2.804334716796875,0.14067454510331154,0.7599674500502646,0.33123080003298816
1776445412550350800,2.829350830078125,0.0935761093199253,0.5060878199189901,0.10348353615440428
1776445412575366700,2.85436669921875,-0.10166823036074638,-0.37357831496223803,0.6081571053612977
1776445412600382700,2.8793828125,-0.13776421061456204,-0.35985154903531075,0.2245299092672765
1776445412625398800,2.904398681640625,-0.22086861028075216,-0.09702741881757974,0.013101144841872156
1776445412650414600,2.92941455078125,-0.4104255519747734,-0.4467269916728139,0.28165355304591355
1776445412675430700,2.9544306640625,-0.3646025429546833,-0.6875692263808101,0.17013583658300338
1776445412700446500,2.979446533203125,-0.021292963397502897,-0.32071072119288146,-0.08843743125721812
1776445412725461500,3.00446142578125,-0.010983750829100608,1.1324806930642575,0.25569508205540475
1776445412750477300,3.029477294921875,0.1738590218245983,0.5320425645824521,0.16761274784617125
1776445412775493400,3.054493408203125,0.008400164076685906,-0.07978256176710129,-0.08810352312773466
1776445412800509400,3.079509521484375,0.3615940087884664,-0.47705585976727305,0.011693433468416333
1776445412825525500,3.104525390625,-0.11647007817327976,-0.2714261735420674,0.24814802767671643
1776445412850541300,3.129541259765625,0.5014812029063701,-0.04546637760214507,-0.16253990156129003
1776445412875557400,3.154557373046875,0.26208266420066356,-0.2662050778929144,-0.7708535126585513
1776445412900573400,3.179573486328125,-0.3546744386583566,-0.6797311531662941,-0.3010140140108764
1776445412925589200,3.20458935546875,-0.884747529798746,-0.7349136728145181,0.3749430274441838
1776445412950605300,3.229605224609375,-0.4147644579619169,-0.17209456943534313,0.10628683007210492
1776445412975621400,3.254621337890625,0.4192705372095108,0.05156389075964689,-0.6173017311297356
1776445413000636400,3.279636474609375,-0.4649971001178026,-0.6166158677574247,-0.2616476337842643
1776445413025652500,3.304652587890625,-1.0223217707991599,-0.3424165397075936,-0.5056690099850296
1776445413050668500,3.32966845703125,-0.609592033535242,-0.01377579270042479,-1.2162361770503223
1776445413075684400,3.354684326171875,0.21079496003389359,-0.6797130329877138,-1.6797966684937475
1776445413100700400,3.379700439453125,0.16870295423567294,-1.321291273370385,-1.301930739340186
1776445413125716500,3.404716552734375,-1.1158137089669704,-0.8837560345433652,-0.3864643922813236
1776445413150732500,3.429732666015625,-1.2153478499084711,-1.3654432804383336,-0.27592355802655216
1776445413175748400,3.454748291015625,-0.41375206604897974,-1.3473903218753636,-0.2712954598344862
1776445413200764400,3.479764404296875,-0.3253589123249054,-0.8957169598415493,0.10147855300754308
1776445413225780500,3.504780517578125,-0.6103297001600265,-0.65447717718333,0.6601223434634507
1776445413250796300,3.52979638671875,0.07679623943269252,-0.9120038585800677,0.6971656875699758
1776445413275812400,3.554812255859375,0.8132166635483503,-0.69116659328565,0.790013628745824
1776445413300828400,3.579828369140625,0.5804337435901165,-0.45959947885796426,1.260138008749485
1776445413325843500,3.604843505859375,0.6943219885766506,-0.5362530949495733,2.2125357639729977
1776445413350859500,3.629859619140625,1.117427573904395,-0.30654651369675995,2.1786785025566817
1776445413375875600,3.65487548828125,0.47051089510321614,-0.5260674356956034,1.147708876530081
1776445413400891400,3.679891357421875,0.9061018679946661,-0.07255801734104753,1.0873432551555335
1776445413425907500,3.704907470703125,0.5692237827897072,-0.0003317892376333475,0.9350900620698929
1776445413450923500,3.729923583984375,0.7975701816052198,-0.2908863320218399,0.5899933068349957
1776445413475939600,3.754939697265625,-0.9027467123478651,-1.235504795013368,-0.23790786175653336
1776445413500955400,3.779955322265625,-1.1504162357926369,-1.1758634693253784,-0.3625685529090464
1776445413525971500,3.804971435546875,0.11641279502809047,-0.6765731275267899,-0.07898863491043448
1776445413550987500,3.829987548828125,0.3662789517343044,-0.8056897021096199,0.46898529297113417
1776445413576003300,3.85500341796875,0.4383949243962765,0.17329276624396442,0.984399598031491
1776445413601019400,3.880019287109375,-0.10430500860512255,-0.4589101083543151,-0.18144596982225775
1776445413626035500,3.905035400390625,0.39704233878850936,-0.1976443865597248,-0.5566064394094049
1776445413651051500,3.930051513671875,0.7381745743066072,-0.01593574721328914,-0.25980492852702736
1776445413676067600,3.955067626953125,-1.0425544114887715,0.17619944747090338,0.6059206515461206
1776445413701083600,3.980083740234375,-0.4657376893520355,-0.12798603618294,-0.14972951982691884
1776445413726098400,4.005098388671875,1.7210352723330258,1.281984806637466,0.9958473131105303
1776445413751114500,4.030114501953125,1.5919441975176334,1.5376140569150447,0.8758117975406349
1776445413776130600,4.055130615234375,1.02209789891541,1.3219105743125081,-0.15014146162867545
1776445413801146600,4.080146728515625,1.4781091440230607,-0.6698279641155153,-2.234056544777006
1776445413826162700,4.10516259765625,0.7834528089255094,-1.4074074220731854,-1.74736155372262
1776445413851178800,4.1301787109375,-0.07768237461745739,-0.8878972260013223,-0.326278584453091
1776445413876194600,4.155194580078125,-1.861318772292137,0.02797412166185677,1.9920130445204673
1776445413901210600,4.180210693359375,-2.192693583905697,-0.5060132203128188,0.9260944163180888
1776445413926226700,4.205226806640625,-0.9134522307574748,-1.012811161262542,0.7478770531535148
1776445413951242500,4.230242431640625,-0.6989964101284742,-1.4965296207241714,0.27398405959764494
1776445413976258600,4.255258544921875,-0.14074234964251517,-1.2089416361279786,0.549698267456144
1776445414001274600,4.280274658203125,-0.4535679436087608,-1.0381523040723055,0.9094069739546626
1776445414026290700,4.305290771484375,-0.3122469172954559,-0.9896422479253262,0.997581808752939
1776445414051306500,4.330306396484375,-0.20845219630002973,-1.2777145819723605,1.0092305262967944
1776445414076322600,4.355322509765625,0.3188257111638784,-1.221739304511249,0.38408264824394134
1776445414101338600,4.380338623046875,0.8802829516053199,-0.621086729561165,0.1971827238647267
1776445414126354400,4.4053544921875,0.572566078954935,-0.031710714374296366,0.45063970813713966
1776445414151370500,4.43037060546875,0.8973393003463744,0.1581137008831836,0.35500524151530116
1776445414176386600,4.455386474609375,0.6508440813779831,0.0600383256489411,-0.1403860835507512
1776445414201402600,4.480402587890625,0.40540333989858623,0.29610284282742066,-0.2873446408269927
1776445414226417700,4.505417724609375,0.23389701867997645,0.09259913578024133,-0.28074834783449765
1776445414251433700,4.530433837890625,-0.15929507442116736,0.1997074931019917,-0.298204911406897
1776445414276449500,4.555449462890625,0.062004328492283815,0.4464796658482402,-0.6485406267412006
1776445414301465600,4.580465576171875,0.22324819889366626,0.15747381381075828,-0.8572755855053663
1776445414326481700,4.605481689453125,-0.24061668232381342,0.7054292196549474,-0.48464401334132995
1776445414351497700,4.630497802734375,-0.3355225789427757,0.6399407753739506,-0.6462515659559518
1776445414376513500,4.655513427734375,0.12402853072881698,0.4808753084575757,-0.8556464499335735
1776445414401529600,4.680529541015625,0.027760698106884956,0.2275468459356576,-1.0615145480245352
1776445414426545700,4.705545654296875,-0.5717103389084339,-0.2524000956306234,-0.7795788170363753
1776445414451561500,4.7305615234375,0.024160627788305283,-0.17126812854856252,-0.6079746979990974
1776445414476577500,4.75557763671875,-1.2773884187579154,-0.14839326625447719,1.2077335755124687
1776445414501593600,4.780593505859375,-1.2425965068399905,0.09392609180137515,2.0140116719692944
1776445414526609700,4.805609619140625,0.5457593205720186,1.129853559431061,0.6270329976797103
1776445414551625500,4.83062548828125,1.3902373838245867,0.5908016275431961,-0.8744728770870714
1776445414576641500,4.8556416015625,0.3641518765777349,-0.07668408429510891,-0.12752587132528423
1776445414601657600,4.88065771484375,-0.3571399519890547,-0.3541306506378576,0.08910342088527977
1776445414626673400,4.90567333984375,-0.9147475312650203,-0.42464488719161597,0.5095405907213688
1776445414651689500,4.930689453125,-0.14655600435733795,-0.47180827796999364,1.0865167412035166
1776445414676705500,4.95570556640625,0.11458441055715084,-1.6760642039671538,-0.7970907275252044
1776445414701721300,4.980721435546875,0.3432335917115211,0.02261913396734744,0.34966705882512034
1776445414726737400,5.0057373046875,0.11347907966375351,0.4735252744883299,0.34935284177679565
1776445414751753500,5.03075341796875,-0.007939560827612876,0.11269789355765096,0.09836575474925338
1776445414776769500,5.05576953125,-0.11914368129670619,-0.22957243347913026,-0.14650193608254194
1776445414801785300,5.080785400390625,-0.06802315039038657,-0.403896369401738,-0.8745731956563889
1776445414826801700,5.1058017578125,0.7670318354785441,-0.11481962581882253,-1.157172724315524
1776445414851817700,5.130817626953125,0.6313409240067005,-0.35125571625605223,-0.5343737840089947
1776445414876833500,5.15583349609375,-0.2424205168753862,-0.794943924754858,0.7537994289398193
1776445414901849600,5.180849609375,-1.2687626292318106,0.4876323449697345,2.3699945628777144
1776445414926865700,5.20586572265625,-1.481405847480893,0.8949334082484245,1.219529227246344
1776445414951881700,5.2308818359375,-0.1893617113828659,0.21292594418060035,-0.3054900634463876
1776445414976897500,5.2558974609375,0.3203828774780035,-0.6994124435834587,-0.5455928779639303
1776445415001912600,5.28091259765625,0.5097691387802362,-0.5317849365595728,0.671971040558815
1776445415026928600,5.3059287109375,-1.0970558170050382,0.045471163375116884,1.2684817664638162
1776445415051944400,5.3309443359375,0.06385843192636967,-0.11641144332122057,-0.09581084610205143
1776445415076960500,5.35596044921875,1.517234701231122,-0.35661187299434094,-0.9160412243373691
1776445415101976600,5.3809765625,0.8542723120361566,-0.3621751696772873,-0.19808255878128112
1776445415126992400,5.405992431640625,-0.23028934957683084,-0.2987155278101563,0.7173546352483332
1776445415152008400,5.431008544921875,-0.11886954053044319,-0.12110979373790323,-0.035204949698224665
1776445415177024500,5.4560244140625,1.311470136579871,-0.17671653014756739,-0.4558982862524688
1776445415202040300,5.481040283203125,0.8935153581440448,0.10389781604371964,0.35276597468852994
1776445415227056400,5.506056396484375,-0.061407531642913814,0.522948792218417,-0.10228446256294846
1776445415252072400,5.531072509765625,-0.16437632320821285,0.5389775514774025,-0.7267676296293735
1776445415277088800,5.5560888671875,0.37650808480381964,0.3025673444001004,-0.2699187646538019
1776445415302104600,5.5811044921875,0.4293383422374725,0.5278952356446535,0.44208223460689183
1776445415327120600,5.60612060546875,-0.8653063317477703,1.044593808361888,0.05458426149412989
1776445415352136700,5.63113671875,-1.1128338163733482,1.116589954036474,0.029397651658952233
1776445415377152500,5.656152587890625,0.020569325298070908,0.7486975757561624,0.43029198970049615
1776445415402168600,5.68116845703125,0.47514206203520293,0.4344602152958512,0.7584348336555063
1776445415427184600,5.7061845703125,0.24845395182073116,0.2037581201996654,0.7520162718500941
1776445415452200700,5.73120068359375,0.6338163742095232,-0.2555594729769975,-0.26656602015979586
1776445415477216500,5.756216552734375,-1.7887731760412453,0.8726580827500671,-0.29417576548866925
1776445415502232600,5.781232666015625,1.170436695036292,0.5091432254342362,0.593443520354107
1776445415527248600,5.80624853515625,0.6693360158801078,-0.4738399664606899,-0.2702592486545443
1776445415552264400,5.831264404296875,0.4452338305056095,-0.6152958712000399,-0.32613011589311064
1776445415577280500,5.856280517578125,-0.7899351566821337,-0.9365743823435156,0.22279497523345052
1776445415602296600,5.881296630859375,-2.1323235786169765,-2.141591757699847,0.0448738185364753
1776445415627312600,5.906312744140625,-1.5831033039361238,-1.1727900532294064,0.3249857316309586
1776445415652329000,5.931328857421875,0.0234627086520195,-0.03463194471639581,-0.6014520182320848
1776445415677345000,5.956344970703125,0.9544184473961591,2.4178015853218735,-0.11287632799763232
1776445415702361000,5.981361083984375,1.6864099491536617,2.734932329136133,0.07169003886748104
1776445415727377000,6.006376953125,0.3632768473088741,2.2667364329770208,0.2517198217488825
1776445415752393000,6.03139306640625,0.20330197393000124,1.5781686240129171,0.3961981795819476
1776445415777409000,6.056408935546875,0.4174620264828205,-0.6870213101744651,-2.5165242637500165
1776445415802425000,6.081425048828125,-0.29015608151853084,-1.0604212728951126,-1.415252290354669
1776445415827441000,6.10644091796875,0.34471827731132504,-1.1166661610778421,-0.6947418944891541
1776445415852457000,6.13145703125,0.3955874638050794,-0.29072876683995125,0.06171130036246031
1776445415877473000,6.15647314453125,0.4173042055726051,-0.006945362158492207,0.6129399557236581
1776445415902488800,6.18148876953125,-0.220658182400465,0.00411554556004703,0.6250915082231163
1776445415927505000,6.2065048828125,-1.0366162536114454,-0.6967410324171185,0.8663678234994411
1776445415952521000,6.23152099609375,-1.470206408074498,-1.032172060618922,0.9092422118470073
1776445415977537300,6.256537353515625,-0.29211598341464995,-0.9726848295141011,0.8706392172083258
1776445416002553000,6.281552978515625,-0.330570509493351,-1.0582472167916595,1.0013057977121322
1776445416027569200,6.306569091796875,-0.45117374194860455,-0.8250538894016295,0.8953399432227015
1776445416052585200,6.331585205078125,-0.035081834775209424,-0.8035143308319151,0.5566932409100234
1776445416077601000,6.35660107421875,0.1443278069138527,-0.9491405069932342,0.35629075128119436
1776445416102617000,6.3816171875,0.7850830404758453,-0.954177185986191,0.6168029147621243
1776445416127633200,6.406633056640625,-0.03733165952861309,-0.2144020811477676,0.4224549393992871
1776445416152649200,6.431649169921875,-0.08265724042057991,0.20795144370365887,-0.19158720541261134
1776445416177665000,6.4566650390625,-0.026600422155857086,0.5571073381362482,-0.28132293285205956
1776445416202681000,6.48168115234375,0.2682119607359171,0.1783315641287714,-0.014235226905718445
1776445416227697200,6.506697265625,-0.19324235220849512,-0.4350193470159545,0.5318441194009036
1776445416252713000,6.531712890625,-0.5467214436024427,-0.7984811589702964,0.28073548835292456
1776445416277729000,6.55672900390625,-0.04433890794217586,-0.9092114513825624,-0.6883109846588223
1776445416302745000,6.5817451171875,0.08317045063972472,-0.760421623558551,-0.5798002679921687
1776445416327761000,6.606760986328125,-0.41490532773733135,-0.5740315118649975,-0.5246621720075607
1776445416352777000,6.63177685546875,0.08762392291724681,-0.8160849124610423,-0.3182577020175755
1776445416377793000,6.65679296875,0.24490648847222327,0.10850854297587648,0.14402385553121566
1776445416402809000,6.68180908203125,-0.014319617253541946,1.1298839545693249,0.32923184476811435
1776445416427825000,6.706824951171875,-0.2516325818568468,1.654655797496438,0.6265256326794624
1776445416452841000,6.731841064453125,0.0077507602572441095,0.9690899468272924,0.34596257828399535
1776445416477857000,6.75685693359375,0.07178045709729194,0.4718282978447154,0.024067286949045953
1776445416502872800,6.781872802734375,0.10892799223065376,-0.2714875483404845,-0.07330171184781939
1776445416527889000,6.806888916015625,-0.15829904912114143,-1.0070078087460248,0.11637816210612655
1776445416552905000,6.831905029296875,-0.1682376748114824,-0.6323887525591999,-0.012352993355691433
1776445416577921300,6.85692138671875,-0.33613866501450534,-0.30440610413458197,-0.05139262584596872
1776445416602937000,6.88193701171875,-0.26318974865972994,0.21166896638944743,0.06438201740905643
1776445416627953200,6.906953125,0.2138660380423069,0.4817663755457848,0.5928704697065055
1776445416652968700,6.93196875,0.2159656406700611,0.3719287211243063,0.7837712272249162
1776445416677984800,6.95698486328125,1.0893933195531367,-0.022701807282119988,-0.37174803079515695
1776445416703000800,6.982000732421875,0.6645435209065675,-0.8340032848589122,-0.5297495582744479
1776445416728016600,7.0070166015625,-1.1402549072623251,0.004239683396369219,0.9022434390008449
1776445416753032700,7.03203271484375,-0.7504875279128551,-0.13536694021448492,0.4426142956569791
1776445416778048800,7.057048828125,-1.6758330255597829,-1.185077214807272,-0.9907672333672642
1776445416803064600,7.082064697265625,-1.1064169350683688,-0.9826254279658198,-0.6632745969492941
1776445416828080600,7.10708056640625,0.6450526384949684,-0.4447545225560665,-0.1521890600745566
1776445416853096700,7.1320966796875,0.2561152802288532,-0.1451346663173288,0.9400411086060106
1776445416878112500,7.157112548828125,0.3578384556472301,-0.0700384357355535,1.2177629482261836
1776445416903128600,7.182128662109375,0.42299218808114525,0.11408069881871342,0.7637961414929479
1776445416928144600,7.20714453125,1.010262499693036,0.3055368982627988,0.477353892865777
1776445416953160700,7.23216064453125,1.0323054046750069,0.056191002571023996,0.7834832040637731
1776445416978176500,7.257176513671875,1.1583055277377365,0.27527050094529987,1.3296151573404669
1776445417003192600,7.282192626953125,0.9889701208174229,0.503486076455377,0.7295365098208189
1776445417028208600,7.307208740234375,1.1569780785262584,0.25975305220931766,0.40722299307379867
1776445417053224400,7.332224365234375,1.2174065360039472,0.45482788054198026,-0.25031923423595726
1776445417078240500,7.357240478515625,-0.3768354170620441,-0.16270692869126796,1.5560875789776443
1776445417103256600,7.382256591796875,-2.749697352069616,-1.2438954606093466,1.1714430225346237
1776445417128273000,7.40727294921875,-0.7868225776195525,-2.3036709098815917,-0.39716866858191785
1776445417153288700,7.432288818359375,0.11493570821285247,-0.3053036740288138,-0.026997495182044803
1776445417178304800,7.4573046875,-0.03513210365772247,-0.33060945326425134,0.4942223908845335
1776445417203320800,7.48232080078125,0.12691314625442027,-0.8540595460683107,0.8647964825294912
1776445417228336600,7.507336669921875,1.2441840682923793,1.6185048721849917,-0.46125762132853265
1776445417253352700,7.532352783203125,3.3555139587193725,0.4567881112316623,-1.4263906472235917
1776445417278368800,7.55736865234375,2.744182972562313,-0.31351697376389054,-0.8698838687963784
1776445417303384800,7.582384765625,-0.2077957782179117,-0.7854984894089401,-0.17188801401257514
1776445417328400600,7.607400634765625,-1.1046955181032418,-0.4038113214667886,2.8869743636891245
1776445417353416700,7.632416748046875,-2.9613351926684377,0.10173749620467423,2.737675490364432
1776445417378432800,7.657432861328125,-0.95482702819705,-0.5337401988131926,1.4350447860613464
1776445417403448600,7.682448486328125,0.905270093345642,0.09334160644430667,-0.10203121845424175
1776445417428464600,7.707464599609375,0.8340577915251255,-0.285342269762326,-0.903603767568618
1776445417453480700,7.732480712890625,0.07689443911015988,-0.011718677507527172,-1.2767501208543777
1776445417478496500,7.75749658203125,-0.10099836827516555,0.36689620684981344,-1.0334025522619485
1776445417503513600,7.782513671875,-0.8170482045352458,0.3405390919305384,-0.2689319090409204
1776445417528529700,7.80752978515625,-1.1041782162308693,-0.024044417530111967,-0.16632895511332899
1776445417553545700,7.832545654296875,-0.37624972612857815,-0.13565355686983094,-0.887748830506578
1776445417578561800,7.857561767578125,0.2164151380032301,-0.06720226246155798,-1.2415393990024923
1776445417603577600,7.88257763671875,-0.05410977585017681,-0.14421064680758863,-0.9593106764171272
1776445417628593700,7.90759375,-0.532653170761466,-0.6710999568127095,-0.04436458123954944
1776445417653609700,7.932609619140625,-0.653227761644125,-1.3957222449764608,0.42627858934067187
1776445417678625800,7.957625732421875,-0.4437088128954172,-1.4423030866265296,-0.9817848854884504
1776445417703641600,7.9826416015625,-0.8925111495375633,-0.4389834648739546,-0.47024902929663653
1776445417728657700,8.00765771484375,0.3217337075650692,0.6772300570655614,-0.11333174361493438
1776445417753673700,8.032673828125,0.7961626528948546,0.28153204555809497,-0.5588582369241863
1776445417778689500,8.057689453125,-2.211218251633644,-1.1131928589440883,1.1657651960939168
1776445417803705600,8.08270556640625,-0.7599836705327033,-0.2925397617846727,1.1799022963874042
1776445417828721700,8.1077216796875,-1.2240531344115733,-0.6104332335997372,0.4535271732069552
1776445417853737700,8.13273779296875,-0.83953242354393,-0.9220387111864984,-0.11261230676658451
1776445417878753500,8.15775341796875,0.3910182561933994,-0.6908691447090357,0.40436581354439255
1776445417903769900,8.182769775390625,0.498855530577898,-0.4589531437784433,1.0446349440898746
1776445417928786000,8.207785888671875,0.5256523520886898,0.13687719864696263,1.211034370623529
1776445417953801700,8.2328017578125,1.1447317604154348,0.47412397103384135,0.5629453235747293
1776445417978817800,8.25781787109375,0.9566220949202775,0.5687238704435527,0.13975922035668045
1776445418003833900,8.282833740234375,0.17016835061311722,0.545389318215847,0.31206681148819626
1776445418028849700,8.307849609375,0.2588128487497568,-0.061532180935889476,0.434761317134276
1776445418053865700,8.33286572265625,0.7910492554038763,0.19516301807276903,0.5348974425569176
1776445418078881800,8.3578818359375,-0.10549334160685539,0.14578651782218366,1.0138737489927558
1776445418103897900,8.38289794921875,-0.14089900150895118,0.6765314072769135,0.9418804528623819
1776445418128913700,8.40791357421875,-0.34156945789158344,0.5584557936031371,0.688209277850017
1776445418153929700,8.4329296875,-0.9552958147525786,-0.1183717653424479,0.13002996310070156
1776445418178945800,8.45794580078125,-0.10262333912849425,-0.11746181089067831,-0.2287524953983724
1776445418203961600,8.482961669921876,0.13095569964349268,0.02798316348483786,-0.6056278060793876
1776445418228977700,8.507977783203126,0.6019675300061702,-0.7729333876725286,-1.0023233041916042
1776445418253993700,8.53299365234375,0.09708265613615512,-1.932292735312134,-1.3514087637364864
1776445418279009800,8.558009765625,-0.05491816962361335,-1.0863645463164895,-1.5098682641163468
1776445418304025600,8.583025634765624,0.1293733988881111,-0.6308590587738901,-0.9156186150111257
1776445418329041700,8.608041748046874,0.02370703880190849,-0.6350668126620352,-0.18222035172823817
1776445418354057700,8.6330576171875,-0.052063364714384074,-0.2086868818387389,1.1970642243947833
1776445418379074800,8.65807470703125,0.816962279817462,0.03721771429274231,1.20500853446275
1776445418404090600,8.683090576171875,2.0038065042972564,-0.4763036166278645,-0.5595089559178799
1776445418429106700,8.708106689453125,0.47954175829887385,-0.6382965152982621,-0.09212079594507813
1776445418454122800,8.733122802734375,-0.32922494010329245,0.33281288159266115,0.7467104935921728
1776445418479138600,8.758138671875,-1.0065800117880106,-0.026436262836400416,2.0563575063981117
1776445418504154600,8.783154541015625,-1.1851128706425427,-0.15812025848813355,2.2262734896853567
1776445418529170700,8.808170654296875,-1.372060506621003,-0.19927220695726572,2.1060371908463535
1776445418554186800,8.833186767578125,-1.9354817406117915,0.10748995878417045,1.9053421845443546
1776445418579202600,8.85820263671875,0.11553835028111933,-0.4850893094234168,1.1132980728842317
1776445418604218600,8.883218505859375,0.3687672614187002,-0.5632124135456978,0.5632942466102541
1776445418629234700,8.908234619140625,-0.08172726609408855,-0.3069452306907624,-0.19900588417127726
1776445418654251000,8.9332509765625,0.3710398825258016,-0.002414294600114226,-0.29144758263379333
1776445418679266800,8.958266845703125,0.20793255634009836,0.7775612666688859,-0.786795689612627
1776445418704283000,8.983282958984375,0.0882955385684967,1.3348400523819028,-1.047199387750402
1776445418729299000,9.008298828125,0.09317921895682811,1.641075746563822,-1.244526013597846
1776445418754315300,9.033315185546876,0.5226315429627895,1.2645634239763022,-1.2461676433250308
1776445418779331000,9.0583310546875,-0.8646142578303814,3.1442052039444444,-0.5588982766736299
1776445418804347100,9.08334716796875,1.1528805800795554,1.5780205938443541,-1.7882561664298176
1776445418829363200,9.10836328125,1.0051099392354488,-1.6830451488956808,-3.0477137916997075
1776445418854379000,9.13337890625,3.3740263514876365,-1.6935060448944568,-0.9852001007594168
1776445418879395000,9.15839501953125,-0.8085755597442388,-0.09110431237891316,0.9494798219501972
1776445418904411100,9.1834111328125,-1.194575695514679,-0.5804182537600397,1.0589499582335353
1776445418929427200,9.20842724609375,0.5467606065690517,-1.123701539607346,-1.0584135132692754
1776445418954443000,9.233443115234374,0.9248276112526654,-0.6556469516150653,-1.703804882199317
1776445418979459000,9.258458984375,0.3046405339449644,0.571543311778456,-0.26586444776169954
1776445419004476200,9.28347607421875,-0.3110088999330997,-0.302685728349071,0.9047706193909049
1776445419029492200,9.3084921875,-1.7711954337745903,0.02475402710419148,1.682073819645494
1776445419054508000,9.333508056640625,-0.9285410788178443,-0.5215659595578909,1.3036976028822362
1776445419079524000,9.358524169921875,1.3400222773253916,0.37771194416824727,-1.522505042849481
1776445419104540200,9.3835400390625,2.2407255011469123,0.9334631184551865,-1.9811893065586685
1776445419129556000,9.408555908203125,-0.5369704494386911,-0.5692155994832515,0.3165739136490971
1776445419154572000,9.433572021484375,-2.8981676656156776,-1.1768163861360401,0.8451615154720842
1776445419179588000,9.458588134765625,-0.1682867746502161,-0.6674097239926458,-1.4518600195229052
1776445419204604200,9.483604248046875,0.8174076854974031,-0.3279486730897799,-0.06664572455734014
1776445419229620000,9.508619873046875,-0.31128713235259053,0.16190218817964194,1.9655574376627802
1776445419254636000,9.533635986328125,-1.6036206067860126,0.36286819344274696,2.2537521559804676
1776445419279652000,9.558652099609375,-0.4711164597809314,-0.09194090933352708,0.39804830096065996
1776445419304668000,9.58366796875,0.055986675637960434,-0.2612559310529381,-0.3483836679510772
1776445419329684000,9.60868408203125,-0.07008242100775242,-0.08422469066670164,0.8206849536024033
1776445419354700000,9.633699951171875,-0.8130793009042739,-0.07465681625120342,1.395291890735179
1776445419379716000,9.658716064453126,-1.1186819578796625,-0.9003780104551464,-1.1776688382469116
1776445419404732000,9.68373193359375,0.44048575919568533,-0.1540425241878256,0.41864261456951496
1776445419429748000,9.708748046875,0.3809907831758261,0.17167088239686562,-0.6187186852555722
1776445419454764000,9.733763916015626,-0.4342681998550892,0.4468123684013262,-1.2286813787341118
1776445419479779800,9.75877978515625,0.49246203014850615,0.051069202577881515,-0.9838076234877109
1776445419504797000,9.783796875,2.259462350320816,-0.35203619910925626,0.8806080188412219
1776445419529813000,9.80881298828125,-0.3033884880572557,-0.4169983544938266,0.9923786871518939
1776445419554829000,9.8338291015625,1.5236317087918518,-0.596450374019891,1.448544611364603
1776445419579844900,9.858844970703124,-0.48345922400355335,0.06622445780481212,0.1535050928428769
1776445419604861000,9.88386083984375,0.18890169265568255,-0.4560852236593142,-1.6410583570376038
1776445419629877000,9.908876953125,0.652349225243926,-0.39431419246625155,-0.7593051867492496
1776445419654893000,9.93389306640625,1.9303478848546742,-2.03140178270936,-0.36184535320103167
1776445419679909000,9.9589091796875,0.8045698312342167,-1.3243766721650958,0.22867533850893376
1776445419704925200,9.98392529296875,-1.8116081081837414,-2.1379490172833204,0.5296173101969063
1776445419729941200,10.008941162109375,-3.106641489225626,2.2790958560734986,3.3997745407283304
1776445419754957300,10.033957275390625,-1.0916799691855907,2.497315705411136,3.330417511385679
1776445419779973400,10.058973388671875,-1.0845464640438556,0.24209077346436678,1.910402244412899
1776445419804989200,10.0839892578125,-0.8351338963240384,-1.0286129798978567,0.5264196831993758
1776445419830005200,10.109005126953125,-0.0978945570409298,0.22280651954077182,-0.2912643350213766
1776445419855021300,10.134021240234375,1.413808813548088,-0.35814036120325327,1.614834805370122
1776445419880037400,10.159037353515625,1.400555948743224,0.24008809187244623,1.2622623074270785
1776445419905053200,10.18405322265625,1.5932219623684882,0.4574504110652953,0.483019663542509
1776445419930069200,10.2090693359375,0.729461691018939,-0.2954149518948048,-0.20850787201002238
1776445419955085300,10.234085205078125,0.9573036474436522,-0.5595514798853546,-0.6436546082653105
1776445419980102400,10.259102294921876,0.4127694847524166,-0.4491366466304287,-0.10755451192036271
1776445420005118200,10.2841181640625,0.6522568707853555,-0.024778631822485474,-0.5424010961852967
1776445420030134300,10.30913427734375,0.44472529646158215,0.3790103864809498,-0.7610136711675674
1776445420055150300,10.334150390625,0.9413847782999276,-0.21056403735484927,0.31731333383955057
1776445420080166100,10.359166259765624,1.0946721367388963,0.11672893917202018,0.16884948656689375
1776445420105182200,10.38418212890625,-0.2646837866097689,0.8692705592036247,0.5196177480995655
1776445420130198300,10.4091982421875,-0.45623394794762134,-0.02515705494713038,-0.6613629181090742
1776445420155214300,10.43421435546875,-0.7371715347439051,-0.6545861905157566,-1.2646946491405366
1776445420180230100,10.459230224609374,-2.15025846375823,-0.06980926662217825,0.467948643399775
1776445420205246200,10.48424609375,-1.8821897108852863,-0.14659271963853387,0.30900680286306886
1776445420230262300,10.50926220703125,0.7391577401250601,0.2919552216286771,-2.549321202458441
1776445420255278000,10.534278076171875,1.5544669920384884,-0.7899025695867836,-3.0855729822337628
1776445420280294100,10.559294189453125,0.9414853160649538,-0.2799818021751009,-1.5389531965643166
1776445420305310200,10.584310302734375,-0.025062545064091682,0.5586185464167968,-0.35212617894764986
1776445420330326300,10.609326171875,-1.1212176138371228,-0.5545514796409755,-0.22741193097699433
1776445420355343000,10.634343017578125,-0.7394739664673805,-0.91027666946128,-0.1820703305319883
1776445420380359200,10.659359130859375,0.12069558691382408,-1.0575457905240355,0.3178849231824279
1776445420405375200,10.684375244140625,-0.05357084666788578,-0.6392062505543231,0.9148336751785129
1776445420430391300,10.709391357421875,-0.2018926916539669,0.5667542143383995,2.482574940136075
1776445420455407000,10.734406982421875,0.6475479624420404,0.7887880324736237,2.4446035213991997
1776445420480423200,10.759423095703125,1.6335422823190688,0.1201550502963364,1.89171274151206
1776445420505439200,10.784439208984375,1.2413713489592075,1.0277660076797008,2.042956903685629
1776445420530455000,10.809455078125,2.186896880325675,-0.31722667846940455,4.15442181866914
1776445420555471000,10.83447119140625,0.7427478735715151,-0.9208641875144093,3.8458632344976067
1776445420580487200,10.859487060546876,-3.0792689136534928,-3.3059885880500075,-1.12084994956851
1776445420605503200,10.884503173828126,-1.3092396010488272,-1.716284862935543,0.230719502888713
1776445420630519000,10.90951904296875,0.48263680170476436,-0.5751505424901843,-0.876341739698872
1776445420655534800,10.934534912109376,-0.12100012281835079,-0.16111439880281686,-0.9991809145126491
1776445420680551000,10.959551025390626,-0.7562082436472177,1.535732919343561,0.8591817113876342
1776445420705566700,10.984566650390626,0.09707388830780983,0.009043138155341147,0.5654297973342239
1776445420730582800,11.009582763671874,0.24877777694761752,-1.3331160050682722,0.4140369839375838
1776445420755599600,11.034599609375,-0.10739128418266773,-1.4357082184061407,0.18198749282043425
1776445420780615700,11.05961572265625,-0.30970892325043675,-0.013901537971943616,0.6817050835877656
1776445420805631700,11.0846318359375,-0.6245405963420868,0.2635302326604724,0.9383218105327338
1776445420830647800,11.109647705078125,-0.7108014142125845,-0.3929375338181853,1.426655581770092
1776445420855663900,11.134663818359375,0.009964929175376891,-0.7132987109210341,0.5090832754079252
1776445420880679700,11.1596796875,1.034511390286684,-0.21090762662813067,-1.0738034631680697
1776445420905695700,11.18469580078125,0.9688508773744106,0.23885960952341556,-1.3138771977216004
1776445420930711800,11.2097119140625,0.7608224594444036,0.15822974674459545,-0.696704792059958
1776445420955728000,11.234727783203125,0.08523439743220805,-0.17113591700363903,-0.4424741565339267
1776445420980743700,11.25974365234375,0.14223755663633345,-0.9303674174621701,0.2542384535063058
1776445421005759700,11.284759765625,-0.036869887235760686,0.028898935756040734,0.18225827258583158
1776445421030775800,11.30977587890625,-1.8478841211795807,-1.4657899068064988,-0.8701483649514615
1776445421055791600,11.33479150390625,-0.2739011122882366,-0.8301192830324172,-0.9535745439179241
1776445421080807700,11.3598076171875,0.4104693911164999,-1.4595442904151976,-1.1760866105567662
1776445421105823700,11.38482373046875,0.44046120927631854,-0.7579593981634825,-0.8075998465798795
1776445421130840800,11.4098408203125,-1.043627593678236,-0.37220563836954534,-0.34961189457178116
1776445421155856600,11.434856689453126,-1.0808335810005665,0.0018237813610583542,0.23378318304196
1776445421180872700,11.459872802734376,-0.03890811506509781,0.03665500237606466,0.12595029257163404
1776445421205888800,11.484888671875,0.22181378217637537,-0.3854094764009118,-0.06541998215466738
1776445421230904800,11.50990478515625,0.08344809853732585,-0.8022856658197939,-0.31074703412652016
1776445421255920600,11.534920654296876,-0.7453121711015701,-0.3409567328207195,0.3447119206357747
1776445421280936700,11.559936767578124,-0.024734628283977506,0.4960680918164551,0.3581044131070375
1776445421305952800,11.584952880859374,1.2509458175122736,0.696811540370062,0.46952736395858224
1776445421330968600,11.609968505859374,0.9901806656509637,0.10120156269706786,0.05138948404081165
1776445421355984600,11.634984619140624,1.3279951549232005,-0.014151457612402737,-0.29284433422181755
1776445421381000700,11.660000732421874,-0.011222235760092734,-0.8562221309296786,0.30605737847294656
1776445421406016800,11.685016845703124,-0.4426309545308351,-0.8174903222795575,1.5915686422035098
1776445421431032600,11.710032470703124,-0.5650421131908894,0.9076467593491077,1.780228342796862
1776445421456049700,11.735049560546875,-0.2723608971089124,0.9544989652864635,0.9103016577720642
1776445421481065700,11.760065673828125,-1.786875233465433,-2.7814097104117272,-2.5582728629380465
1776445421506081800,11.785081787109375,0.7785854951500892,-0.7924800919245928,-1.0013840505801141
1776445421531097600,11.81009765625,0.5157733476310968,0.03247738789785653,0.4518343978144228
1776445421556113700,11.83511376953125,1.1104735169827937,-1.2142094935283063,0.3742081372983753
1776445421581129700,11.860129638671875,0.64822016261518,-0.31743677755612876,0.7000630164466798
1776445421606145500,11.8851455078125,0.06196458100378513,-0.3559347774503752,1.2729245712168513
1776445421631161600,11.91016162109375,-1.487728620761633,-0.15841858384758234,3.0820021380096674
1776445421656177700,11.935177734375,-1.9213743048042058,-0.17852832880988717,3.7874089997023344
1776445421681193700,11.96019384765625,-1.2827642665773629,-0.3153832425598055,3.6608746236324308
1776445421706209800,11.985209716796875,0.38803310290277004,-0.714978846027702,2.534621645976603
1776445421731225900,12.010225830078125,1.9728093084871767,-1.4528205351181327,0.15671912298593668
1776445421756242000,12.035241943359376,1.4403969607442617,-1.1955335076961666,-1.4115347311362623
1776445421781258800,12.0602587890625,1.475777486205101,-0.872715585090965,-1.9687395748302339
1776445421806274800,12.08527490234375,0.9174819246649741,0.27429548190068453,-0.9044548314400017
1776445421831290600,12.11029052734375,-0.30923136886656283,0.622705928260833,-0.21651837918199598
1776445421856306700,12.135306640625,-0.7265016721695661,1.2790559135787187,0.15618066872768102
1776445421881322800,12.16032275390625,0.04746083935499191,0.7469252323213964,-0.6455788543261587
1776445421906338800,12.1853388671875,0.14368132570385933,1.6561799383237956,-2.4594606065303086
1776445421931355000,12.21035498046875,1.2764677967816591,2.1470704813718795,-2.9456191526204347
1776445421956371000,12.235370849609374,3.374748236021399,0.9278652253828942,-2.5312206053614617
1776445421981387000,12.260386962890625,1.1085153686523437,-3.258582693752646,-4.304345838154852
1776445422006402800,12.28540283203125,-1.4637456876277923,-1.3530164911940694,-2.0947652707256377
1776445422031419000,12.3104189453125,-2.119493323138356,1.1197983216237277,2.835333023779094
1776445422056435000,12.33543505859375,-1.1049971313983202,-0.9654159344896673,2.8272213212549686
1776445422081451800,12.36045166015625,1.05057638990283,0.02891324740918353,-0.048499169426783915
1776445422106467800,12.3854677734375,0.9202262549370527,0.7477137523505837,0.05018116769697517
1776445422131484000,12.41048388671875,0.002139350116252899,-0.32654560135882343,-0.4611363330364227
1776445422156500000,12.4355,-0.37237785313129423,-0.4814155893467366,-0.28649938564188776
1776445422181515800,12.460515869140625,-0.40122459290921686,-0.12245426714941858,0.6652310647793114
1776445422206531800,12.48553173828125,-0.12760171304047108,-0.4469290170509368,0.3166618476608768
1776445422231548000,12.5105478515625,-1.0791232699513436,-0.9319017874225973,-0.04749200167823583
1776445422256564000,12.53556396484375,-1.0111550646185874,-0.3442676839996129,1.0091544653858988
1776445422281579800,12.560579833984375,-0.14477671972513198,0.5322001662969589,3.082254943726957
1776445422306595800,12.585595947265626,-0.2712526436060667,0.27547822541184724,2.0295609771482646
1776445422331612000,12.61061181640625,-0.013681319350004195,0.0806920047622174,-0.043977792145358394
1776445422356627700,12.635627685546876,-0.031326866155862804,0.42704139040671285,1.4965078472837805
1776445422381644800,12.660644775390624,-1.3661480677068232,1.1614582196149974,-0.8335239769093692
1776445422406660900,12.685660888671874,0.15315291840434073,-1.2452315315186977,-0.705802656077221
1776445422431677000,12.710677001953124,-0.8465800039678811,-0.9034789721451699,0.8283249469615519
1776445422456692700,12.735692626953124,-0.3332008579969406,-0.31928244195543226,0.8484897100467235
1776445422481708800,12.760708740234374,-0.0018950199663639068,0.5557609284959734,-0.2482298059423454
1776445422506724900,12.785724853515624,0.12578735709488392,-0.27291451240368186,0.6041876537410542
1776445422531741000,12.810740966796875,-0.6007324352532625,-0.5005331084012985,0.879871594325453
1776445422556756700,12.8357568359375,-0.9510814119279384,-0.7826913960989564,1.2117716719221323
1776445422581772800,12.860772705078125,-0.3153156572163105,-0.7039673304088413,1.5719595402397215
1776445422606788900,12.885788818359375,-0.2970382422477007,-0.047888124856352805,1.3990169026076793
1776445422631804700,12.9108046875,0.5402297434955835,1.1885021477546542,0.7931830525621771
1776445422656821200,12.9358212890625,1.47846511785388,1.4921987519130109,0.7324081197343766
1776445422681837300,12.96083740234375,0.3796808696210384,0.9639283993456512,0.4721738598793745
1776445422706853400,12.985853271484375,0.8781021004348992,0.5623033358767628,-0.08464856036826968
1776445422731869200,13.010869140625,0.6933008288353681,0.008325929796695709,-0.8025475316263735
1776445422756885200,13.03588525390625,0.17545476658344267,-0.5209810723420232,-0.5352075314193964
1776445422781901300,13.0609013671875,-0.26555121709406376,-0.946612595950812,0.3876628813508898
1776445422806917400,13.08591748046875,0.32356033847033977,-0.6691335521105677,0.1276709058191627
1776445422831933200,13.11093310546875,-2.3475082980424165,-1.0421180658981204,-0.15308496773466468
1776445422856949200,13.13594921875,0.3952671458095312,-1.4422357204787433,-0.01962261903248727
1776445422881965300,13.16096533203125,1.8255641528218984,-0.7188069529484957,-0.7012409741848706
1776445422906981000,13.185981201171876,1.2816741332530974,0.2092369900021702,0.06510711681321263
1776445422931998200,13.210998291015626,-0.007287818920612334,1.118263878598064,1.255229193919897
1776445422957014300,13.23601416015625,0.9584352818220854,1.6408436913736164,0.09206563169173895
1776445422982030300,13.2610302734375,0.3655962301671505,1.8641186321437357,-0.5348873595543205
1776445423007046100,13.286046142578124,0.5155915613234043,-0.26499402160272,-2.5413366334453222
1776445423032062200,13.311062255859374,-1.523008608457446,-1.492573722705245,-0.6132121237285435
1776445423057078300,13.336078369140624,-2.3487562522768974,-0.3866161122443154,-0.0794768568187952
1776445423082094300,13.36109423828125,-0.5325479568213224,0.1642785436558537,-1.5458882565245031
1776445423107110100,13.386110107421874,0.7060626952528953,0.31059330486953257,-1.870376085103303
1776445423132126200,13.411126220703125,0.8871130898863077,-0.9224409353118389,-1.766363775834441
1776445423157142500,13.436142578125,0.4854495210379362,-0.8262634843870997,-1.328657272093743
1776445423182158300,13.461158447265625,0.5266857867896556,-0.5746002881962806,-0.7698100680202246
1776445423207175200,13.486175048828125,0.7103624382734298,-0.695437037146464,-0.3123246587067842
1776445423232191200,13.511191162109375,0.646918432366848,-1.3610538133077323,1.0233800476804376
1776445423257207300,13.536207275390625,-0.7681681460320949,-0.8930192451901733,1.9326137839600444
1776445423282223000,13.56122314453125,-0.8084183233559131,-1.037054571963474,2.3604599879436194
1776445423307239200,13.5862392578125,-1.1354144814938305,-0.5480498426619916,2.6803748095184563
1776445423332255500,13.61125537109375,0.05209200628697872,-0.1465975419441238,2.2498514952801165
1776445423357271600,13.636271484375,0.8272446043789387,-0.2316567654725164,1.5945573026254771
1776445423382287400,13.661287353515625,1.9538357279479504,0.9680703945212066,1.1369633183710277
1776445423407303400,13.686303466796875,1.8199609259873628,0.768665501094982,2.233046490951627
1776445423432319500,13.711319580078126,0.5160293682187795,1.1279191573023795,3.2449960669487714
1776445423457336300,13.73633642578125,-0.1410287653684616,-1.1651613119166344,0.015159063752368092
1776445423482352400,13.761352294921876,-2.459433134001493,-5.302396798789501,0.42125192028507585
1776445423507368400,13.786368408203124,-0.11615268278717994,-0.6202471369318664,1.4011540607668458
1776445423532384500,13.811384521484374,-1.296781686013937,-0.21769129541888832,0.5366318651340901
1776445423557400300,13.836400390625,0.999658103570342,-0.5182873762786389,-0.2655772283181548
1776445423582416400,13.86141650390625,2.494984924376011,2.070823107993603,-0.4936434950180351
1776445423607432400,13.886432373046874,0.8924912757933139,1.0282136783819644,-0.16287161773368716
1776445423632448500,13.911448486328124,-2.1817910816192625,-0.4927397511113435,0.6117077835801988
1776445423657465300,13.93646533203125,-2.1527736614495514,-0.504459926456213,1.4678982772625981
1776445423682481400,13.9614814453125,-1.0975380475640297,-0.03523253182489425,1.8860221286550163
1776445423707498000,13.986498046875,-0.23123218338489532,0.4673951377028599,1.1304396156907082
1776445423732514000,14.01151416015625,0.8824047660648823,0.5057539848547429,-0.06859758927747607
1776445423757530000,14.036530029296875,1.2113310154825447,-0.13140413753073663,-0.454459047229588
1776445423782546200,14.061546142578125,1.3959417329460382,-0.8220892674423754,-2.331057513979077
1776445423807562200,14.086562255859375,1.6158423749774693,-0.6506162639714778,-2.6453759768515823
1776445423832578300,14.111578369140625,1.1824088723808526,0.06065090458933264,-2.249303359878063
1776445423857594400,14.136594482421875,0.44828854190111156,0.39205885128751394,-1.8064079091921448
1776445423882610200,14.161610107421875,-0.16990122410953043,0.37102768063135444,-1.2359928707912564
1776445423907626200,14.186626220703126,-1.4652613528877496,-2.7007085724949835,0.49038113222122187
1776445423932642300,14.211642333984376,-2.103687266719341,-1.7438649437785148,0.0776804749213159
1776445423957659100,14.2366591796875,-0.7917413293212652,-0.7421880477316677,-0.6141087803073227
1776445423982675200,14.26167529296875,1.193363397115469,-0.24597718644365668,-1.146738131801784
1776445424007691300,14.286691162109374,0.39687282744050023,-0.6573417728342116,-0.5737416986055672
1776445424032707300,14.311707275390624,-0.39328795469105243,-0.4133744649082422,-0.15489552428796888
1776445424057723400,14.336723388671874,-2.405741875824332,-1.465978561246395,0.24381050992906092
1776445424082739200,14.3617392578125,-0.7458855870753526,-0.5575601599376648,0.19357852536030112
1776445424107755300,14.38675537109375,-0.09115268156528472,-0.715367699214816,0.6390064901985227
1776445424132771300,14.411771240234375,0.19967735369205475,-0.22480200420692562,0.7573843016892671
1776445424157787100,14.436787109375,0.4428402133673429,0.11336553628668189,0.7625551284559071
1776445424182803200,14.46180322265625,0.9662971012383699,1.258901452691853,1.321233697964251
1776445424207820300,14.4868203125,0.765502726215124,1.6925272629901766,1.038711180064082
1776445424232836400,14.51183642578125,1.0760837561249732,0.7321441350359469,0.07427139713019132
1776445424257852200,14.53685205078125,0.7834569005787372,-0.5423386619409546,-1.0319646284133195
1776445424282868200,14.5618681640625,-0.14377426468431947,-0.859606877997145,-1.027635074776411
1776445424307884300,14.58688427734375,0.17330431055128573,-0.22178914092546329,-0.4178210690535605
1776445424332900400,14.611900390625,0.4586234734326601,-0.14350059884209185,0.0468403693690896
1776445424357916200,14.636916259765625,0.9077151484102011,-0.2820921636588871,0.22888459734544156
1776445424382932200,14.66193212890625,-0.6687789665192365,-1.151291045865789,1.671864852581173
1776445424407948300,14.6869482421875,-1.1118389601171017,-0.6307558175951242,1.7220920879095791
1776445424432964000,14.711964111328125,-0.6855915696322917,-0.017745646179467438,3.4302824917167425
1776445424457981200,14.736981201171876,-0.8690203838348388,-0.8105456907734274,3.167607999102771
1776445424482997200,14.761997314453126,-0.34700141981244087,-1.326982616879791,1.810743600308895
1776445424508013300,14.787013427734376,0.48540509737432,-1.6466151143819092,1.1283252538852393
1776445424533029000,14.812029052734376,0.4141624004155397,-0.348817163997516,0.6240769243530929
1776445424558045200,14.837045166015624,1.0544254665464161,-0.33650983641445636,0.3984625808499753
1776445424583061200,14.862061279296874,1.1218541581749915,-0.7278437344282865,-0.055278746564313766
1776445424608077300,14.887077392578124,0.1481611014664173,-0.3745375153832137,-0.6491950720619409
1776445424633093000,14.912093017578124,0.5288409189969301,-0.23190124175287782,-0.18989589132480322
1776445424658112000,14.937112060546875,0.47666415703594683,-0.42389742982517925,-0.09461867717541754
1776445424683129000,14.962129150390625,-1.533782515928149,1.8724401780262587,-1.0946773974359034
1776445424708145200,14.987145263671875,-0.8190086909532547,1.642127593704313,-1.3895312813818455
1776445424733161000,15.012160888671875,0.68095105035007,0.19166158582307397,-1.7558038033753633
1776445424758177000,15.037177001953125,0.5269231026768684,-0.5499201665785163,-1.7019721138142048
1776445424783193000,15.062193115234376,-0.17855390164256094,-0.44001324631310995,0.30871786638647314
1776445424808209200,15.087209228515626,0.12855273015499113,-0.9398640715386718,1.1208699694432318
1776445424833225000,15.112224853515626,1.5983622478663921,-1.014613680639863,0.16733298105672
1776445424858241000,15.137240966796876,1.1180997740775347,-0.746249598082155,-0.3292292509522289
1776445424883257000,15.162257080078126,-2.926227638930082,5.026598328447341,-0.864297373900935
1776445424908274200,15.187274169921874,0.35357261489629743,2.8213515524387356,-2.2279896459534765
1776445424933290000,15.2122900390625,0.8588046947687864,0.2699688874058425,-1.1866885955266653
1776445424958306000,15.23730615234375,1.468255858528614,-0.006979264428094029,-0.3228973445169627
1776445424983322000,15.262322021484374,-0.9793214179843663,0.2578912769254297,1.1227991839401423
1776445425008338000,15.287337890625,-1.9754560236036776,-1.3428846810191868,0.6979387908343225
1776445425033354000,15.31235400390625,-1.550170756149292,-0.7493595467962324,-1.0003267235469073
1776445425058370000,15.3373701171875,1.2325386386841535,-1.3300436118856072,-2.9899373100355264
1776445425083386000,15.36238623046875,0.023881226325035095,2.3330615472778677,1.1030428555253893
1776445425108402000,15.38740185546875,0.44175066456496714,-0.46606198940295723,0.3974788305096328
1776445425133419000,15.4124189453125,-0.0756119980841875,-0.4228123014695942,-1.3419292799904943
1776445425158435000,15.43743505859375,-0.9092658849835396,-0.4258872154029086,-0.5170731051180512
1776445425183451100,15.462451171875,-0.305568170183897,-0.033412221062555904,-0.9593432635124772
1776445425208467000,15.487467041015625,0.03879179520905018,0.3322591932326555,-0.20973617169596254
1776445425233483000,15.51248291015625,-0.29710721583068367,-0.02588916861396283,1.44813953769505
1776445425258499000,15.5374990234375,0.30190672506690025,0.5167331691065803,0.9607328912399709
1776445425283515000,15.562514892578125,0.7292068394750356,0.4886554044071585,0.028073198122158645
1776445425308531000,15.587531005859375,0.32515549870729443,0.6846550194345414,0.7608698057174682
1776445425333547000,15.612547119140626,0.489435375803709,0.6828356219876557,1.3972639214605092
1776445425358564000,15.637564208984376,0.2952408374369144,0.14497722899960352,1.1168208401829003
1776445425383580000,15.662579833984376,-0.07933364895582198,-0.13000251797134987,0.9211584942858666
1776445425408596000,15.687595947265624,-0.25376024153530596,-0.04323399260730948,0.8919384642161429
1776445425433612000,15.712612060546874,-0.31865795338153835,-0.15987970590870826,0.9346787047900259
1776445425458628000,15.737628173828124,0.670223320108652,0.6234963479861617,1.31329545231089
1776445425483644000,15.762643798828124,1.565032809716463,-0.02345204112753272,-1.4808517207294702
1776445425508660000,15.787659912109374,1.0135007509618996,-0.012070961543917656,-0.8969333498939871
1776445425533676000,15.812676025390624,-0.03374912486672401,-0.0033332360759377477,-0.48546705669462675
1776445425558693000,15.837693115234375,-0.4448503841459751,-0.09230323983989655,0.15284019919335842
1776445425583709000,15.862708984375,-0.615136808180809,-0.5014454009406268,0.10824059448838233
1776445425608725000,15.88772509765625,-0.9339496598631143,-0.4420183755904436,0.390608469816111
1776445425633741000,15.912740966796875,-1.0157190115332604,-1.265823507039994,0.5484822427298873
1776445425658757000,15.937757080078125,-1.1527905637085436,-0.8088418094649911,0.6066966043546795
1776445425683773200,15.962773193359375,0.6204249777168035,0.7704710161469877,-0.6031077130172401
1776445425708789200,15.987789306640625,1.0665718314141035,0.03116290776580572,-0.29477380444705487
1776445425733805000,16.01280517578125,0.8301619531303643,-0.4019033689536154,-0.16707754499092697
1776445425758821400,16.0378212890625,-1.3423013281732796,-0.4157748040482402,-0.018128654147684574
1776445425783838200,16.062838134765624,-1.2448831564724445,-0.036680794404447076,0.6805783445801585
1776445425808854300,16.087854248046874,-0.6827478706389665,0.22555348016135393,-0.038450945882126684
1776445425833870300,16.112870361328124,-0.33726796130537984,-0.5342929738577455,-0.4258350833568722
1776445425858886100,16.13788623046875,-0.7485235343635082,-0.00826820826008916,-0.4342147161021828
1776445425883902200,16.162902099609376,0.28863457103967666,0.18590967123284935,0.0739087012976408
1776445425908918300,16.187918212890626,0.028956629893183705,0.10637940372638403,-0.11057342135012149
1776445425933934300,16.212934326171876,-0.18951134898662567,-1.0838844199385493,-0.33138372557237744
1776445425958950400,16.237950439453126,0.18290917424261569,-0.924391119531542,-0.17317893060594797
1776445425983967200,16.26296728515625,0.6139455525696277,-0.4812741715820506,-0.14493746324479578
1776445426008983300,16.2879833984375,0.7837269496917724,-0.2589877486589365,-0.4012039885126054
1776445426033999000,16.3129990234375,0.8275339427143334,0.26955544776674356,-0.6775288938816636
1776445426059015200,16.33801513671875,0.16297639328241348,0.01438263601977378,-0.34503282315321265
1776445426084031200,16.36303125,-0.34759938570559024,0.9018834465820342,0.5643611451894045
1776445426109047300,16.38804736328125,-0.05146598334312439,0.3411670145705342,0.6564573181498795
1776445426134063400,16.4130634765625,0.35106033981442447,-0.49208344262707976,-0.5724898719135671
1776445426159079400,16.438079345703127,0.32015374489724635,-0.7796224369823932,-0.29708841979866846
1776445426184095500,16.463095458984377,0.17192600793540477,-1.0732751284450293,0.004884776366874575
1776445426209112300,16.4881123046875,-0.7175345218598842,0.14552362910229713,-0.10781217647586017
1776445426234128100,16.513128173828125,-1.9029753092825412,-0.5973263166042044,0.17351378858350217
1776445426259144200,16.538144287109375,-2.4280928238421677,-0.42407786442600187,1.013962815515697
1776445426284160300,16.56316015625,-0.5370090278834104,0.3825186137976125,0.01128755608126521
1776445426309176300,16.58817626953125,1.5322493150115013,0.8995782383795827,-1.2347763346083462
1776445426334192400,16.6131923828125,1.815137451353669,-0.007234243836160749,-1.8128627844199536
1776445426359208400,16.63820849609375,0.8070984729290008,-0.29352115577114746,-0.956629547574371
1776445426384225300,16.663225341796874,-0.9219704682558775,-0.44328525372110306,0.6625063159905373
1776445426409241000,16.688240966796876,-1.1605173585683106,-0.43042248421236873,0.7026283368900418
1776445426434257200,16.713257080078126,0.9427782784849404,-1.2389369614191352,-0.6403882999457419
1776445426459273200,16.738273193359376,1.114697272157669,-1.1531566205419599,-0.1569993646994233
1776445426484289300,16.763289306640626,-0.2034486889243126,-0.6473514169566333,1.611245694836974
1776445426509305300,16.788305419921876,-0.061516837236285205,-0.344880445603095,1.9806641136407852
1776445426534321400,16.8133212890625,0.49064358254969115,0.10852985975854099,1.577966525569558
1776445426559337500,16.83833740234375,0.9939356342703104,-0.04461838247068226,1.709971734265983
1776445426584353300,16.863353271484375,1.3499889600664376,0.34480880513899026,3.103116237708926
1776445426609370000,16.8883701171875,1.8359078521817922,1.0572342403568327,2.707410408221185
1776445426634386200,16.91338623046875,-1.6512386825293301,-1.6961217803508042,0.3286819192677736
1776445426659402800,16.93840283203125,-1.7636387347847222,-2.8331051185965537,0.7547882938466965
1776445426684418800,16.963418701171875,-1.404006381458044,-0.9574478782199323,1.0490196619801222
1776445426709435000,16.988434814453125,0.6354799235075712,-0.11420359454602003,-0.7568354356348515
1776445426734451000,17.013450927734375,1.2854098126500844,0.42134449393935497,-0.26556729144603014
1776445426759467000,17.038467041015625,0.32901100509166714,0.5417145021606237,-0.35315205139666794
1776445426784483000,17.063483154296875,0.22915245450139043,-1.1204133847821502,-0.09157207602113485
1776445426809500000,17.0885,0.3083043171495199,-2.0060200886934996,-0.03235606307312846
1776445426834516000,17.113515869140624,0.5913701481461524,-1.0628495960205793,0.380371774494648
1776445426859531800,17.13853173828125,-1.4331611642718314,0.5192981242237612,0.6594968319762498
1776445426884547800,17.1635478515625,-0.7561556366771459,-0.2665339445210993,1.2204156546920537
1776445426909564000,17.18856396484375,-0.6936030266523361,-0.42264556660056113,0.9351510715421288
1776445426934580000,17.213580078125,0.08195639867484569,-0.08220512187206186,0.47651985319443046
1776445426959596000,17.238595947265626,0.24602993954420088,0.21876445934204383,0.5469553254235535
1776445426984612900,17.26361279296875,0.185784437417984,-0.11342786093316971,-0.5045215204503387
1776445427009629000,17.28862890625,0.4189695084363222,-0.357678296649456,-0.7152062250427901
1776445427034645000,17.31364501953125,0.07388882755339145,-0.1191686696074903,-0.40964499605633314
1776445427059660800,17.338660888671875,-0.07589490667879581,0.02327997249625623,-0.5103903394185006
1776445427084676900,17.3636767578125,-0.07921908266544342,0.042834640859067435,-1.0139460835766048
1776445427109693000,17.38869287109375,0.1026999114960432,0.20245887416936456,-1.1955450520034878
1776445427134709000,17.413708984375,0.15148410840928553,0.05354834257513284,-1.2286451383769512
1776445427159725000,17.43872509765625,0.2865016506642103,-0.11062968158200383,-1.56305215729326
1776445427184742000,17.463741943359373,0.321141002368927,0.11073299582600593,-1.3140727202937006
1776445427209758000,17.488758056640624,-1.269334291639924,-2.4983926869928834,1.3916387750551105
1776445427234773800,17.513773681640625,-0.14260814351439474,0.03519391684755683,0.5100311141846702
1776445427259789800,17.538789794921875,0.1908300303697586,0.31362193197570737,-1.2310704658277332
1776445427284806000,17.563805908203125,0.16956220141351222,-1.6794482934474944,-0.05784578404072672
1776445427309822000,17.588822021484376,-0.2807756742328405,-0.6261641789559275,0.6691160895191133
1776445427334838000,17.613838134765626,-1.9137375263154506,-0.5311246094873174,1.5338102807179093
1776445427359854000,17.63885400390625,-1.9419184956610203,-0.904361015676707,1.2892527518138288
1776445427384871000,17.663870849609374,-0.23596505712568758,0.46960678587034344,0.897860036284849
1776445427409887000,17.688886962890624,-0.08753156845867634,0.39866891707703467,1.2681281307205556
1776445427434902800,17.71390283203125,0.30296587873101233,0.27060375124327835,1.028801634337753
1776445427459918800,17.7389189453125,0.30405308944582937,0.041982846335321664,0.5371441255051642
1776445427484935200,17.76393505859375,0.38756548539102076,0.27721936999075114,-0.1465916510594543
1776445427509951000,17.788950927734376,0.7987924168765544,0.5429061230979859,-0.56225036358051
1776445427534967000,17.813967041015626,0.8169026585847139,0.26323314941003917,-0.7014921724669635
1776445427559983000,17.838983154296876,0.10074410125315189,-0.3979124361539259,-0.3405973249237984
1776445427585000000,17.864,-0.46636780394911764,0.12005323388967662,0.5885187042377888
1776445427610015700,17.889015625,0.2934907788991928,0.5288973253592848,0.5838309482803568
1776445427635032000,17.914031982421875,-0.7298819622576236,-1.4431427523210645,0.21974300378430633
1776445427660044000,17.9390439453125,0.44947102968394753,-0.8861060317356139,0.7057032873559743
1776445427685060000,17.96406005859375,0.382320570474863,-0.45752508373670275,-0.1479768674733117
1776445427710076200,17.989076171875,0.6635398968219757,-0.5297510195791721,-1.0545020389139652
1776445427735092200,18.01409228515625,0.15525135198831558,-0.30817020590845495,0.3535124456742778
1776445427760109000,18.039109130859377,-0.149551094520092,-0.9659861355930566,1.0490575097724795
1776445427785125000,18.064125,-0.1353951433956623,-0.4107753152605146,-0.11461568247824906
1776445427810141200,18.08914111328125,0.3672422438085079,0.057886225648969405,0.4828586277619004
1776445427835157200,18.1141572265625,-0.20137188265025616,-0.33840675607696175,2.0727919238485395
1776445427860173000,18.139173095703125,-0.18656652770638465,-0.18673220312949268,0.7560495459541678
1776445427885189000,18.164189208984375,0.14982348172068596,-0.10728022502362727,0.8384931436240672
1776445427910205200,18.189205078125,0.4837660979956388,-0.6278442409973591,0.7384988378249109
1776445427935221000,18.214220947265623,-1.2013432899534702,0.33328210653960705,0.5697311477899552
1776445427960238000,18.239238037109374,-0.4719757069587707,0.15375373384170232,0.5041106746271252
1776445427985254100,18.264254150390624,1.0904425363451242,0.7369007549785077,0.43150355744734403
1776445428010270200,18.289270263671874,1.4812445194393395,0.4309154553610831,-0.7959590931467712
1776445428035286000,18.3142861328125,0.6666302640527486,0.297922112410143,-0.6981728187859058
1776445428060302000,18.339302001953126,-0.4502519509285688,0.47444070883281525,-0.4390656632646918
1776445428085318100,18.364318115234376,-1.7041531111150978,2.5803587302789093,-0.22730887246131895
1776445428110334200,18.389334228515626,-0.78527943983078,2.514704939368367,-0.472171960183233
1776445428135351000,18.41435107421875,-0.06093874508738517,-0.2830497201120481,0.03557794772908091
1776445428160367000,18.4393671875,-0.45670916424393654,-1.0299018506646156,0.5355259497188032
1776445428185383200,18.464383056640624,0.4196136515587568,-0.6483188006840646,-0.5229863477498292
1776445428210399200,18.489399169921874,-0.37467034798264504,-0.5530219319861381,-1.1589524473391473
1776445428235415000,18.5144150390625,-1.3816887511879206,-0.5375964358499273,-0.5604290664374828
1776445428260431000,18.53943115234375,0.18816987124979495,-0.8236411730594932,-0.25217092651724815
1776445428285447200,18.564447265625,0.7388654791802167,0.5972026171592996,0.5327104173740371
1776445428310463000,18.589462890625,1.2196201204001902,0.4367337862510234,-0.832505009125173
1776445428335480000,18.61447998046875,1.2145640060544014,0.8341218697372823,-0.08064743496812879
1776445428360496000,18.63949609375,0.4040589395523071,0.35718247595652935,0.14085269641550258
1776445428385512200,18.66451220703125,-0.3623924656897783,-0.7520949631094932,-1.3462144099637865
1776445428410528000,18.689528076171875,0.18177695534229277,-0.4573603946942836,-0.19663005841802805
1776445428435544000,18.7145439453125,0.04692717086970806,-0.4710087616227567,-0.19595108144422993
1776445428460560100,18.73956005859375,-0.7614245169907807,-0.4529669455083087,-0.31874292825125156
1776445428485576200,18.764576171875,-0.4766033667594194,-0.38362485800646245,-0.341083756733872
1776445428510593000,18.789593017578124,0.6028992578983307,0.13671234520776196,-0.4108658796207979
1776445428535609000,18.814609130859374,0.530198763346672,0.29424408148452635,-0.4656378091741353
1776445428560625200,18.839625244140624,0.5849924298077821,0.2349511673754081,0.06873816679194569
1776445428585641200,18.86464111328125,-0.026326281389594076,0.08161901994664221,0.6919952261295169
1776445428610657000,18.889656982421876,0.560952798050642,0.2608800104126334,0.7960928025290369
1776445428635673000,18.914673095703126,0.6327279944509268,0.1388042942520231,0.8786912254344671
1776445428660689000,18.93968896484375,-0.36388124294281005,0.14019041484817862,1.7095682680316269
1776445428685706000,18.9647060546875,-0.46378246363103387,0.2026879336848855,2.9512597888559102
1776445428710721800,18.9897216796875,-0.06053484046161174,0.18994360292404888,2.378069878914207
1776445428735737900,19.01473779296875,-1.0970090552538632,-0.25515081911087034,-0.5997801029644906
1776445428760754000,19.03975390625,-0.38689094713032246,-0.5198110787145793,-2.6551895148575304
1776445428785770000,19.06477001953125,-0.020892565903067588,-0.45562297644242644,-0.9863633723851293
1776445428810785800,19.089785888671877,-0.8168319314360618,-0.8403015082202852,0.09391600879877805
1776445428835801900,19.1148017578125,-0.17956044833660126,-0.7430233295120299,0.060541270202398294
1776445428860819000,19.13981884765625,0.7197568740844726,-0.7574829397581517,-0.30377485702633855
1776445428885835000,19.1648349609375,-0.24078034845292567,-0.7400533737905323,-0.14326368481367827
1776445428910850800,19.189850830078125,-0.26345570611953734,-0.81942297084257,-0.3172979170747101
1776445428935867000,19.214866943359375,0.8790010951012373,-0.579065670107305,-0.260725988894701
1776445428960883000,19.239883056640625,0.054713002440333364,-0.3605738719604909,0.4080509317979216
1776445428985898800,19.264898681640624,-0.6452338402807712,-0.024234862068295476,1.8692799604296684
1776445429010914800,19.289914794921874,-0.7928080817699432,0.19896131437718867,1.8068125444702803
1776445429035932000,19.314931884765624,-0.27387656236886976,-0.530049710264802,0.5832759812787175
1776445429060948000,19.339947998046874,-0.28591479068696496,-0.9563764495961368,0.4992072666250169
1776445429085963800,19.3649638671875,-0.041398178315162654,-0.5875980822615325,-0.08527297587692736
1776445429110979800,19.389979736328126,-0.36848961352109905,-0.08979081862755119,0.44783246869668364
1776445429135996000,19.414995849609376,0.5519920774817466,0.04644581709355115,0.4174155569925904
1776445429161012000,19.440011962890626,0.8650590789884328,0.5187800551664083,0.027415976322442293
1776445429186027800,19.46502783203125,-0.012507014873623847,1.6281547440618276,0.23878932076618073
1776445429211044900,19.490044921875,0.08848083200752735,1.1553148945543914,0.4997819977730512
1776445429236061000,19.51506103515625,0.7044517529249191,0.1292403470929712,0.753612528065592
1776445429261077000,19.540076904296875,0.16754618541598318,0.20059629516787825,0.8573688167467712
1776445429286092800,19.5650927734375,0.4735878183305263,0.25152605274245143,-0.22400895413309335
1776445429311108900,19.59010888671875,0.8899924447149038,-0.7645929178938269,-0.16957133456803858
1776445429336125000,19.615125,-0.5433697950869798,0.42603864310495554,0.9689930623240768
1776445429361140700,19.640140625,-0.7746054856032133,0.07303980950862168,0.38805509553886947
1776445429386157800,19.66515771484375,-0.8484797001093626,-1.0940680333659052,-2.1081030373349785
1776445429411174000,19.690173828125,-0.578140664216876,-0.7389811414491385,-1.7730477836430072
1776445429436190000,19.71518994140625,-0.3589069616615772,-0.5670129748724401,-0.7597703200429677
1776445429461205800,19.740205810546875,0.1970218707472086,-0.03872925136685371,-0.5183078345447778
1776445429486221800,19.765221923828125,0.3619020518243313,0.5535086925897746,0.5333807543836534
1776445429511238000,19.79023779296875,-0.2951379615843296,0.24663060885109006,1.1639195682272314
1776445429536254000,19.81525390625,-0.9501204579412936,-0.25425299348831176,0.9953554379403591
1776445429561269800,19.840269775390624,-0.26420564770400523,-0.25459534065257755,0.4763797871366143
1776445429586286800,19.865286865234374,0.7879992201834917,0.0502195452122949,0.2416919103398919
1776445429611303000,19.890302978515624,0.9044108461678028,0.1955866503123194,0.5049415724933147
1776445429636319000,19.915319091796874,1.0067314029574395,0.0837705993568059,-0.5337048717714846
1776445429661334300,19.940334228515624,0.6887678615808487,0.08001777702877297,-0.7036022964887321
1776445429686350300,19.965350341796874,-0.20535364576280116,0.11399047238514758,0.5001331492982805
1776445429711366100,19.9903662109375,0.219934544301033,0.1381635212636087,0.47445144942253825
1776445429736383200,20.01538330078125,0.3707411918401718,0.12397979621626436,0.17720891677439213
1776445429761399300,20.0403994140625,0.16028876163363456,-0.24554909722469745,-0.19671572740748525
1776445429786415400,20.065415283203127,0.979545874390006,0.19197193041387944,-0.6071130762010812
1776445429811431400,20.090431396484377,1.912366237962246,-0.21099716807510702,0.1329377403061837
1776445429836447200,20.115447265625,0.43119653732478613,0.42617637107521295,2.0485420103415843
1776445429861463300,20.14046337890625,-0.8031184633821249,-0.9924336322095244,3.2035031960874796
1776445429886479400,20.165479248046875,-7.703559530130028,-4.011569637265802,0.02577536950856447
1776445429911496400,20.190496337890625,0.7024824986785649,-1.6438707841098308,-0.4642626483634114
1776445429936512300,20.21551220703125,0.8762848218798637,-1.175120249742642,-3.0818358415320515
1776445429961528300,20.2405283203125,1.5498486845880746,0.6162102095659822,1.219101941744983
1776445429986544400,20.26554443359375,0.9569675473570823,0.8091555515892803,0.299326426250115
1776445430011560200,20.290560302734374,-0.22134967179596424,0.7780510960124433,0.23636260507591067
1776445430036576300,20.315576171875,-1.4342372690707443,-0.7429979028098285,1.3314281981118024
1776445430061592300,20.34059228515625,-0.9791671042054891,-1.0574819315075874,2.2335545866042374
1776445430086609400,20.365609375,0.1789391015678644,-0.6292518427729606,1.2193935451027005
1776445430111625200,20.390625244140626,0.958199134978652,-0.1447612298950553,0.7672014929570257
1776445430136641300,20.415641357421876,0.6043821899324655,-0.850285142096132,0.4656722229003906
1776445430161657300,20.4406572265625,0.6134411101788282,-0.8281039976872503,0.24012889880686997
1776445430186673400,20.46567333984375,0.686792177593708,0.47159094542488456,-0.5138016091667116
1776445430211689200,20.490689208984374,0.6481359914630651,1.3041327794291078,-0.7219655631098896
1776445430236705300,20.515705322265624,-0.5097352365106343,0.25617513892361893,-0.7140446339175105
1776445430261722400,20.540722412109375,-0.16484335619807242,0.011152102266484871,-1.020200394731015
1776445430286738400,20.565738525390625,-0.25573826361000535,0.6838432646602391,-1.3161261456921696
1776445430311754200,20.590754150390627,-0.18718845899701117,0.6784701202545315,-0.8347791646022349
1776445430336770300,20.615770263671877,-0.5571101511478423,-0.2156912989743985,-0.8751152666438371
1776445430361786400,20.640786376953123,-0.6298001243054866,-1.6149822510167955,0.6596690467379986
1776445430386802200,20.66580224609375,-0.9660895959675312,-2.7731524619370695,0.39369843518808484
1776445430411818200,20.690818359375,-0.03937105640172958,-1.9107634789407253,-0.11439166446402668
1776445430436835300,20.71583544921875,1.2038643328636884,-0.22349537858776747,-1.2165842598356307
1776445430461851400,20.740851318359375,1.7545277920901774,0.28147746582664546,-0.9712580846466123
1776445430486867200,20.7658671875,0.7544722136348485,-0.21963117744028568,-1.2668512426525353
1776445430511883300,20.79088330078125,0.3812719382047653,-0.8882889287326484,-0.9125582045271993
1776445430536899300,20.8158994140625,-1.441906780785322,-0.14203691949769853,0.8552947869516908
1776445430561915400,20.840915283203124,-1.6675111874163149,-0.035441681063547725,1.0756648000605404
1776445430586931200,20.86593115234375,-0.14772387909293175,-0.3571428745985031,0.04367333843922242
1776445430611948300,20.8909482421875,-0.23826398171782492,-0.27518472235798835,-0.4840224473768845
1776445430636964400,20.91596435546875,0.30423721384108066,-0.6217090992432087,-0.04934489953592419
1776445430661980400,20.94098046875,0.2639227391093969,-0.934594533637911,0.14865622803959994
1776445430686996200,20.965996337890626,-0.5625625713348388,-0.32013741481695324,0.34447299731336534
1776445430712012300,20.99101220703125,-0.2972667903065681,-0.015442483803629874,0.2974220539335161
1776445430737028400,21.0160283203125,-0.31605332384109497,0.6467169184453785,1.9019483043223617
1776445430762045400,21.04104541015625,-0.2980278378069401,-0.3319385829761624,0.7793405513010918
1776445430787061200,21.066061279296875,0.5947516072779894,-0.281960427037999,0.464399755279161
1776445430812077300,21.091077392578125,-0.021389409509301183,0.3083367215817794,0.8771125048756598
1776445430837093400,21.11609326171875,0.08643558991551399,0.378878065338172,0.48040020175911485
1776445430862109200,21.141109130859373,0.6687392190307379,0.5052080414097756,0.16193915918916463
1776445430887125200,21.166125244140623,-0.08028349702656269,0.5732647287435829,0.22955898947566747
1776445430912141300,21.191141357421873,-0.4919903209835291,0.16192564212046562,0.5274984914120286
1776445430937158400,21.216158447265624,-0.091209964710474,-0.3806832515966147,0.4542802565965801
1776445430962174200,21.24117431640625,-0.2639011117994785,-1.884004651352763,-0.04280201266452204
1776445430987190300,21.266190185546876,1.423318400171399,0.11504282184913754,0.6977427568055689
1776445431012206300,21.291206298828126,1.4985352614581584,-0.955772492353618,0.4127622147614136
1776445431037222400,21.316222412109376,0.36835166635513306,-0.07196801555864513,0.8426971711851656
1776445431062238200,21.34123828125,-0.14614157833755015,0.35702392439395186,0.4244638680689037
1776445431087254300,21.366254150390624,-1.844371729144454,0.035510745978076005,-0.017070669527351857
1776445431112271400,21.391271240234374,-0.1915478232502937,-1.065327165115252,0.8866370698723941
1776445431137287400,21.416287353515624,-0.15597557460963726,0.38276838730759916,0.8839210158467292
1776445431162303200,21.44130322265625,-0.286364288020134,-0.05075911371540278,0.20881942217722535
1776445431187319300,21.4663193359375,-0.7051917576372623,0.0997881887678057,0.15541552957408128
1776445431212335400,21.49133544921875,-0.10684592525959015,-0.09971618297751993,0.6314226840060204
1776445431237351200,21.51635107421875,0.10379004482030868,-0.5242292604830115,0.07218428865782917
1776445431262368300,21.5413681640625,0.24738310771882532,-0.30266225614193826,-0.25230543961711227
1776445431287384300,21.56638427734375,0.37158991762399673,-0.32013818200193345,-0.4067108423005789
1776445431312400400,21.591400390625,0.8731184668034314,0.006686181499343365,0.04768091184645891
1776445431337416400,21.61641650390625,0.3988029187202453,0.1919835295201279,-0.15942542280256747
1776445431362432300,21.641432373046875,-0.6823392898380756,0.11357885024379938,-0.4961695063643157
1776445431387448300,21.6664482421875,-0.3298503785252571,0.7880236239723861,-0.24950536056980488
1776445431412464400,21.69146435546875,0.5067851545333862,1.241400282792747,-0.08042685102000832
1776445431437481500,21.7164814453125,-0.539109799554944,0.8032543647214769,-0.17218524339348076
1776445431462497300,21.741497314453124,-0.27771687118411065,1.6286233844868838,-2.489903675588965
1776445431487513300,21.766513427734374,0.6359551398038864,2.2871328859262166,-1.7116050345562397
1776445431512529400,21.791529296875,0.48440907207429407,0.5204901470199227,-1.1729076151944695
1776445431537545200,21.816545166015626,-0.47870706104040145,-1.2208670517213642,-0.025628654514253137
1776445431562561300,21.841561279296876,-2.6679239087462423,-1.2551786327764392,-0.44415275727063414
1776445431587577300,21.866577392578126,-0.26821312977969647,-2.1670063310720025,-1.6984709738254546
1776445431612594400,21.891594482421876,-0.017895137652754783,-1.2582273528225718,-1.0660441542781889
1776445431637610200,21.9166103515625,-0.4776917465180158,0.9447449754480272,0.2697492533057928
1776445431662626800,21.941626708984376,1.1184995870500802,-0.2098042319634929,0.07197407997325063
1776445431687643000,21.966642822265626,0.25193536419570445,-0.011364475508686155,0.37655565027259286
1776445431712658700,21.99165869140625,0.19631869091391563,0.050284399742586534,0.37104675065800546
1776445431737674800,22.0166748046875,-0.169075879201293,0.7198889760315418,-0.4762136367894709
1776445431762691800,22.04169189453125,0.045588031220436094,0.09684711208092048,-0.6939619961578398
1776445431787708000,22.0667080078125,0.09899871889054775,-0.2968906504705548,-0.20766513757556676
1776445431812723700,22.0917236328125,-0.35001813728511333,-0.2612655025988817,0.1991755416497588
1776445431837739800,22.11673974609375,-0.1258873103380203,-0.2917200063670054,-0.9318450887992977
1776445431862755800,22.141755859375,-0.02278992395699024,-0.43492615230716763,-0.5494538277084008
1776445431887771600,22.166771728515624,0.3809656487345695,-0.21751038589403032,0.4741999954121187
1776445431912787700,22.19178759765625,0.2627127787977457,-0.09689115215204655,0.47388442665692415
1776445431937804800,22.2168046875,0.17377309710681438,0.10630436572879552,1.3902892601422965
1776445431962820900,22.24182080078125,-0.407576592284441,0.4385190622325986,2.299708874382824
1776445431987836700,22.266836669921876,-0.33014906921088694,0.558139348065108,0.006144055712968111
1776445432012852700,22.291852783203126,-0.39384383500814435,0.41644320482909675,0.5383153977742419
1776445432037868800,22.316868896484376,-0.40242461634874344,-1.1794554294027388,2.468798343718052
1776445432062884900,22.341884765625,-1.0347376002579927,-0.8531313253074884,2.92925253970921
1776445432087902000,22.36690185546875,-0.715446025148034,-0.9841237036995589,0.7474299669731408
1776445432112917800,22.391917724609375,-0.192895730727911,-0.07835895870476961,-1.642052774902433
1776445432137933800,22.416933837890625,2.005826611948013,0.14825798596963286,-1.865871321029961
1776445432162950000,22.441949951171875,1.4720499901145696,0.39169220993220805,-0.27705007783845065
1776445432187965700,22.466965576171877,0.9151830000728368,-0.876472745667398,0.008255202648043632
1776445432212981800,22.491981689453127,0.4095961154133081,-0.6108079851962626,-0.3113030971067026
1776445432237997800,22.516997802734377,-0.6783797385573387,-0.516228105661273,-0.24358192533757536
1776445432263015000,22.542014892578123,-0.17212240729033945,-0.7131862635225057,0.04328713386692107
1776445432288030700,22.56703076171875,-0.35363691230416294,-0.5311671699874103,1.052019136057049
1776445432313046800,22.592046875,-0.8580793031036853,0.3848723007842898,1.1598649590741843
1776445432338062800,22.617062744140625,-0.45372342643141744,0.2565912271775305,0.43782567314095794
1776445432363078700,22.64207861328125,0.19596563969254494,-0.13531900941953062,0.6286557765759527
1776445432388094700,22.6670947265625,-0.20683014805614947,-0.16639628472849727,0.7847020783342421
1776445432413111800,22.69211181640625,-0.31576164741814133,0.2994818360075354,0.7359906543962657
1776445432438127900,22.7171279296875,0.0508989971101284,-0.08062675750628114,0.2827958914814517
1776445432463144000,22.74214404296875,-0.7639502360761166,-0.607632862291485,0.576871886390075
1776445432488159700,22.76715966796875,-0.36360534861087795,-0.6183486098341644,0.41758642004746943
1776445432513175800,22.79217578125,-0.4979103586822748,-0.36022651982754467,0.1828099151192233
1776445432538192000,22.81719189453125,-0.11087737273275852,0.633002573608607,0.23814594482872634
1776445432563208700,22.842208740234376,0.11118541576862334,0.9529126459430902,0.7192124650094658
1776445432588224800,22.867224853515626,0.17022388019263743,0.9441742628879845,1.1819627360485494
1776445432613240800,22.89224072265625,0.4614104738026857,0.15460530916973947,-0.12295469095222651
1776445432638257000,22.9172568359375,0.40641397824585435,-1.083276078781858,-0.5474961543019861
1776445432663273000,22.94227294921875,0.3615945933103561,-1.2918208487361669,-0.49665188305377955
1776445432688289000,22.9672890625,0.44455987676680087,-0.2183474212400615,-0.9768877610966563
1776445432713305000,22.99230517578125,0.623715835955739,-0.4037482661679387,-0.6608430589534342
1776445432738322000,23.017322021484375,0.24217618672549723,-0.15960772056691347,-0.34841830087304115
1776445432763337700,23.042337646484373,-0.1312555593729019,-0.061988327205553646,-0.1274614277869463
1776445432788353800,23.067353759765624,0.18097966748476027,0.3507866374395788,-0.33889512411579487
1776445432813370000,23.0923701171875,0.7105389638841152,0.19778781361840664,-0.6003801146842539
1776445432838386000,23.117385986328124,-0.31712884411811826,-0.44274983167015014,0.024223902282863852
1776445432863402000,23.142402099609374,-0.581654225295782,-0.31401129661947486,0.31964301889613267
1776445432888418800,23.167418701171876,0.13591945953071116,-0.2788160645976662,0.07334989837110042
1776445432913435000,23.192434814453126,0.09967384167313575,-0.5853317082321271,0.7072964748315512
1776445432938450700,23.21745068359375,-0.10112170239388941,0.19666695636231452,1.0187672931879759
1776445432963467000,23.242467041015626,-0.21541735913753507,-0.04663575017508119,0.29247940989956256
1776445432988483000,23.267483154296876,0.0004319616764783859,0.08374350128732622,0.5600530727319419
1776445433013499100,23.2924990234375,0.3855418706089258,-0.7196617431469261,0.43897491624131796
1776445433038515700,23.317515625,0.07425999895334243,-0.2012074128035456,0.8471352997630834
1776445433063531800,23.34253173828125,-0.04335223499238491,-0.5179836440917104,0.27154052063673734
1776445433088547800,23.3675478515625,-0.030633623194694516,-0.5545365378001704,0.6080681849688291
1776445433113564000,23.39256396484375,0.8429717503428459,-0.3087619977891445,1.3910758804753423
1776445433138580000,23.417580078125,0.39808512583971023,-0.46175106740128247,1.6283265934973954
1776445433163596000,23.442595947265627,1.1392734950095413,-0.1999957354588434,1.1722134954504668
1776445433188612000,23.467612060546877,-0.8608610427767038,-0.20948453502245246,0.815990877502039
1776445433213629000,23.49262890625,-1.599947471231222,-1.2380781526327131,-0.2861654044471681
1776445433238644700,23.517644775390625,-1.2633452803581953,-1.309576431787759,1.0172956132002173
1776445433263660800,23.542660888671875,-0.35410686790347096,0.2084410903841257,1.7779048682853578
1776445433288676900,23.5676767578125,0.4836059389978647,0.5292964076794684,0.008597440214455127
1776445433313693000,23.59269287109375,0.7736205662190914,0.2442660716768354,-0.37166780516579745
1776445433338709000,23.617708984375,1.2859575096607208,-0.49685639264993364,1.0160874064542353
1776445433363725800,23.642725830078124,-0.043351650470495225,0.08517674896083771,0.9887143924906849
1776445433388742000,23.667741943359374,-0.6548311051875353,0.0910890782771632,0.7314243693940341
1776445433413758000,23.692758056640624,0.046207624423503874,0.6216963128268719,0.8201333110690117
1776445433438773800,23.717773681640626,-0.6277098740279674,0.7519603038791567,0.9671680388540029
1776445433463789800,23.742789794921876,-0.7879477822571992,0.0022204525284469125,1.791966711385548
1776445433488806000,23.767805908203126,-0.4822369887322187,-0.12376202527973801,1.5687839789435267
1776445433513823000,23.792822998046876,-0.15226035347878933,0.060784358243271705,0.9148638511210679
1776445433538838800,23.8178388671875,1.0928741474062205,0.9566889496114105,0.18075462655723093
1776445433563854800,23.842854736328125,1.0481213979661463,1.0879283615671098,0.2595972771257162
1776445433588871000,23.867870849609375,0.41373686847984786,-0.47613852572664617,-0.4814391163527965
1776445433613886700,23.89288671875,-0.03734101187884807,-1.24494745388031,-0.016857611298561094
1776445433638902800,23.91790283203125,-0.38428865567743775,-0.21076967946216463,1.0637100122421979
1776445433663920600,23.942920654296874,-0.8045487884461879,0.3848375217318535,1.4568524209827183
1776445433688936400,23.9679365234375,-0.18836451703906057,-0.36386520512346177,0.5873059674471617
1776445433713952500,23.992952392578125,1.3142875320881604,-0.9017490796126425,0.5876192711800337
1776445433738968600,24.017968505859375,3.0908132209748027,-2.377121638278663,-0.9642588734090327
1776445433763984400,24.042984375,0.7834002019554376,0.16582297835256904,0.8386836977601051
1776445433789000400,24.06800048828125,-2.98339387974143,2.342809326571226,1.2622159840673208
1776445433814017500,24.093017578125,-0.6147095226794481,1.6251603845514355,0.87384853464365
1776445433839033600,24.11803369140625,-0.42256402579694985,-0.08545236929813399,-1.1267091969907284
1776445433864049400,24.14304931640625,0.4422165285110473,-0.3133776748910546,-1.1397510493934153
1776445433889065500,24.1680654296875,1.173831013649702,-0.8520957717146724,-1.6444968070536852
1776445433914081500,24.19308154296875,1.4906237576812504,-1.0854225892912597,-1.651899192264676
1776445433939097600,24.21809765625,0.9574158756464719,0.2509709030777216,-1.1182143403679132
1776445433964114400,24.243114501953126,0.3694526133343577,1.0591066831652074,-1.5216034178346394
1776445433989130500,24.268130615234377,1.6039859329670667,0.1402039319168776,-1.228859657910466
1776445434014146600,24.293146484375,2.8612112691402434,-0.5256198380585759,-0.6009072072982787
1776445434039162600,24.31816259765625,-0.46082741321772336,0.2213102896336466,0.4471031315088272
1776445434064178400,24.343178466796875,-1.1925894901335239,-0.15185363584142178,-0.02847147672474384
1776445434089194500,24.368194580078125,-1.889842271465063,0.37686077069900925,0.34888825647234917
1776445434114211600,24.393211669921875,-1.7279910828202962,0.5473801267068833,0.20137480525970458
1776445434139227600,24.4182275390625,-0.04786942015588283,0.39126656839866186,1.8350106110811233
1776445434164243500,24.443243408203124,-1.0860931089639663,0.5281554209508001,1.5133634127557276
1776445434189259500,24.468259521484374,-2.687617035731673,-0.14943539571855216,0.0033919805258512494
1776445434214275600,24.493275634765624,-0.7398994984030723,-1.4935301466472446,0.07757949876487255
1776445434239291400,24.51829150390625,0.5473083035796881,0.8440193596996366,-1.4038766175985335
1776445434264308500,24.54330859375,4.4120875432103865,0.12880745383473113,-0.8193991515755653
1776445434289324500,24.568324462890626,0.15228548792004584,0.13177130860900504,0.8724182095795869
1776445434314340600,24.593340576171876,-1.372760179322958,-0.001854989350074902,1.129115673610568
1776445434339356700,24.618356689453126,0.20205577326118945,-0.49853115746174004,0.3174368871539831
1776445434364372500,24.64337255859375,-0.46787762399017807,-0.8383285276468843,-0.18830489580631254
1776445434389388500,24.668388427734374,-0.17356968348920343,-0.558409324112907,-0.5327542930483817
1776445434414404600,24.693404541015624,1.3228864336073398,0.4171446310967207,-0.7747095304995775
1776445434439420400,24.71842041015625,0.9758844292730092,0.3016794556496665,-0.33903847810924054
1776445434464436500,24.7434365234375,0.277328164127469,0.15983035034164786,0.8973124123394489
1776445434489453600,24.76845361328125,-0.7071943296313286,0.3275468508232385,1.0143313565671443
1776445434514469600,24.7934697265625,0.036978900568187235,0.6138016871195286,0.8963748392283916
1776445434539485400,24.8184853515625,0.36896833694875236,0.7353918117202818,0.8940811753332615
1776445434564501500,24.84350146484375,-0.13151041091680526,0.08809563208222389,0.5491413642257452
1776445434589517600,24.868517578125,-0.5539733144268393,0.17200345708578824,0.3848398598194122
1776445434614533600,24.89353369140625,0.41688115785494445,1.104280069170147,-0.15332126070857047
1776445434639550500,24.918550537109375,0.6501395863704383,0.11558949594646692,-0.6497025101274252
1776445434664565800,24.943565673828125,-0.06499649604558945,-0.8667901405647397,-1.0354016171246767
1776445434689581800,24.968581787109375,-0.31583529717624187,-0.1775841798275709,-0.550898437026143
1776445434714598000,24.993597900390625,0.4929425071418285,-0.3085797730900347,-0.08915069409310818
1776445434739614000,25.018614013671876,-0.07370587220191956,-0.5989959668494761,0.23987375500202177
1776445434764629800,25.043629638671874,0.1781073269188404,0.004489712634682655,0.5440566083073616
1776445434789646800,25.068646728515624,0.20763269661068914,-0.9275485606491565,0.7631447649121283
1776445434814663000,25.093662841796874,-0.662444502800703,-1.080457733425498,0.6763993783950806
1776445434839679000,25.118678955078124,0.038288375731557606,0.1681922282345593,0.48070495685935016
1776445434864694800,25.14369482421875,1.338212597554922,0.1286820556230843,-0.015641805768013
1776445434889710800,25.1687109375,0.31435221901163457,-0.47594490285068747,-0.6003478198498488
1776445434914728000,25.19372802734375,0.03634089492559433,0.1360910167053342,-0.9630494976192712
1776445434939744000,25.218743896484376,0.5687665405414998,-0.07955057964213191,-1.2003484336972237
1776445434964759800,25.243759765625,-0.6907759865328669,-0.6993830713585019,-0.8360703003913164
1776445434989776000,25.26877587890625,-0.3467445224419236,-0.066081807064265,-0.27111118930876255
1776445435014792000,25.2937919921875,0.3530731409415602,0.6211601601235568,-0.30490298427343365
1776445435039808000,25.31880810546875,0.6758548962548375,-0.2843415865534916,-0.23900866260528564
1776445435064824800,25.343824951171875,0.1246288347095251,0.07152713992334901,0.08139934931397437
1776445435089841000,25.3688408203125,-0.8792202908098697,-0.002702317761257291,0.19247370592355728
1776445435114857000,25.39385693359375,-1.5350494671240449,-0.6596485154066234,0.49352001476883883
1776445435139873000,25.418873046875,0.46199791830182074,-1.1091168416768311,0.30501287438869473
1776445435164888800,25.443888916015624,-0.09363602281361817,0.43277291979603466,-0.5909288341194391
1776445435189905000,25.46890478515625,0.577747280985117,-0.2576340142287314,-0.14206862981021404
1776445435214922000,25.493921875,-1.0584098600074647,0.45610666830614205,0.11519465140998363
1776445435239938000,25.51893798828125,1.2806906751736997,-0.03910276085436344,0.44068274307250976
1776445435264953900,25.543953857421876,0.05427022710889578,-0.5887247482039034,0.17392156566679476
1776445435289970000,25.568969970703126,0.2255377711355686,-0.7805122254289686,-0.7347142047196626
1776445435314986000,25.593986083984376,1.6409899679765105,-2.4508088057801127,-1.7840636831760406
1776445435340001800,25.619001708984374,0.9735998254671693,-2.1462360763743518,-1.167764260956645
1776445435365019000,25.644018798828125,-0.31748101855665445,-0.7097953059099614,-0.2655021172553301
1776445435390035000,25.669034912109375,-0.31550124291628595,0.2958107462793588,0.5443956310033798
1776445435415051000,25.694051025390625,0.45271103451848027,2.020082370185107,2.9696348189800976
1776445435440066800,25.71906689453125,0.23477672412395476,0.22504107365980744,1.4326046994328498
1776445435465083000,25.744082763671877,-0.971824924749136,-1.4982826018713413,-0.18957681543827057
1776445435490099000,25.769098876953127,-0.31041809443309903,-0.45857612715959545,0.06671089874804019
1776445435515116000,25.794115966796873,-0.017881693649291992,0.4053878500685096,-0.23127836061418056
1776445435540131800,25.8191318359375,2.2578891096547244,-0.1862676908902824,0.553039540708065
1776445435565148000,25.84414794921875,1.8704276691600679,-1.1940785596475005,-0.0424245987534523
1776445435590164000,25.8691640625,0.9236886703506112,-0.654404404208064,-0.36149756267666816
1776445435615180000,25.894179931640625,1.7337831102252006,0.16032865525260567,-0.7508996158450841
1776445435640195800,25.91919580078125,2.4299299761414526,-0.2779752298593521,-0.18917466437816619
1776445435665213200,25.944213134765626,-1.6114030773557722,0.785711255376786,2.3601807326108215
1776445435690229200,25.969229248046876,-1.397487793344259,-1.0298882605306803,2.141502325850725
1776445435715245000,25.9942451171875,0.8583071205101906,-0.23644904125034807,0.9773884040951728
1776445435740261000,26.01926123046875,0.9404629872798919,0.543554942395538,0.31674072158336636
1776445435765277200,26.044277099609374,1.479444922671467,-0.8055040433444082,-1.7584142781347036
1776445435790294300,26.069294189453124,1.127218900078535,-0.8325817276231944,-1.7748399277567863
1776445435815310000,26.09431005859375,0.7133189499914646,-0.5697402078792453,-0.8783885161608457
1776445435840326100,26.119326171875,0.15540325461439788,-0.22232786917835473,0.006167290458083153
1776445435865342200,26.14434228515625,-0.24594459934830665,0.16797610126584767,-0.17283786208331584
1776445435890358000,26.16935791015625,-0.5926642796099185,-0.7327861592665315,-0.9997668246418238
1776445435915374000,26.1943740234375,-0.9095547849275171,2.2152613895446063,0.4740291323572397
1776445435940391200,26.21939111328125,0.7314474580086767,1.5401540967866778,1.485846460276842
1776445435965407200,26.2444072265625,1.4107352513216436,0.40792350602596994,0.7124187862813472
1776445435990423300,26.26942333984375,2.057501707997173,-0.07075520570278167,-0.1747124237835407
1776445436015439000,26.294439208984375,2.9813024604201317,-1.617352633409947,-2.0195704751402137
1776445436040455200,26.319455078125,2.588363465297222,-2.388377191786468,-1.1272568940013648
1776445436065471200,26.34447119140625,-0.8889888206303119,-1.7725773896522818,0.553897618842125
1776445436090488300,26.36948828125,-0.7959503983836621,-1.6382527980975805,0.8711603184729814
1776445436115504000,26.394504150390624,-1.4955717354774474,-1.1553231509260833,0.5327583847016096
1776445436140520200,26.419520263671874,-1.4701456177979706,-1.400703248259425,-0.2786228801131248
1776445436165536300,26.444536376953124,-1.2770792066782712,-2.0545701845899225,-0.45079146463274955
1776445436190552000,26.469552001953126,-1.7538520847856998,-1.509023776116222,0.20571488029062746
1776445436215568100,26.494568115234376,-1.4224217435926199,-0.3340845089636743,0.18544190759062765
1776445436240585200,26.519585205078126,-0.30923136886656283,-0.16764657705053687,-0.2671101369738579
1776445436265601300,26.544601318359376,-0.6484791058123112,-0.1392579563036561,0.6018079555302858
1776445436290617000,26.5696171875,-0.6696317839562893,-0.07232581602036953,0.37062604102790353
1776445436315633200,26.594633056640625,0.37876433929800984,0.040597383326292036,-0.28829847095310684
1776445436340649200,26.619649169921875,0.3785316265206784,0.17547873198091982,0.40983050869107246
1776445436365665300,26.644665283203125,0.13824644117355345,0.922857187962532,-0.08296002275943756
1776445436390681900,26.669681884765627,1.586241601961851,0.44960137806534767,-0.5177566304028034
1776445436415698200,26.6946982421875,2.1473966445863244,0.7139582708083093,-0.318440511238575
1776445436440714200,26.71971435546875,0.36486090162992474,0.0751664462737739,0.9371294589430094
1776445436465730300,26.744730224609373,-0.6862707840681076,-0.490697943085432,0.1914098760843277
1776445436490746000,26.76974609375,-0.22997546132206914,0.07282675127983093,-0.24397066892683505
1776445436515763000,26.794762939453125,-0.6613584611296653,-0.2615036222036928,0.949963221552968
1776445436540779000,26.819779052734376,-0.010861658819392323,-1.8144824945762752,0.08544657887816429
1776445436565795000,26.844795166015626,0.7483832491099834,-0.652350613483414,-1.7416051821529863
1776445436590811100,26.86981103515625,0.6503273640275001,-0.14119813058599828,-1.7179168480515479
1776445436615827200,26.8948271484375,0.28156770139336584,-0.13905162007659672,-0.022418168035149573
1776445436640843300,26.91984326171875,-0.1474818870306015,-0.5561658560350538,0.7483072612643241
1776445436665859600,26.944859619140626,-1.3969967949569224,0.6320027489162982,0.6407663394778966
1776445436690875600,26.969875732421876,-0.9392308882016688,0.944931364865601,0.22941022865474223
1776445436715891700,26.9948916015625,0.24448797079920767,0.33236806043460965,-0.11221651238203048
1776445436740907800,27.01990771484375,0.36391646038666364,-0.433578464025259,0.4753402149558067
1776445436765923800,27.044923828125,-0.007770707066729664,0.3525181374073028,1.3950772250711918
1776445436790939600,27.069939697265625,-1.8247440686106682,1.3731195141546428,2.2726292904078957
1776445436815956500,27.09495654296875,0.22764088089466095,0.7790943214550614,1.3305220430523157
1776445436840972500,27.11997265625,1.0555633845351635,1.419646433660388,-0.15156769503951073
1776445436865988600,27.144988525390627,1.8497920006275177,-0.037412104353681204,-1.087390163037181
1776445436891004700,27.170004638671877,2.076181858547777,-0.5297676784530282,-1.5584166064471006
1776445436916020700,27.195020751953123,1.285516780155897,-1.0284444914631545,-1.5014707303881645
1776445436941037600,27.22003759765625,-5.737433060407638,0.6098432318173349,-2.445129298838973
1776445436966053600,27.2450537109375,2.571147834341228,-0.6498508325569331,0.02012041248679161
1776445436991069400,27.2700693359375,0.8756148136638104,-0.1760429417349398,0.5129594592541455
1776445437016085500,27.29508544921875,-2.364443796882778,0.2323055117048323,-0.7608984472900628
1776445437041101600,27.3201015625,-1.5258862097203731,-1.3886436848923562,-0.7116261745989322
1776445437066118000,27.345117919921876,-0.3781260413944721,0.02552680157497525,0.35369945614635945
1776445437091134700,27.370134765625,0.9033587067663669,0.5929824056483805,0.8522539579510688
1776445437116150500,27.395150634765624,0.17875497717261313,1.6782536768354475,1.6363567552179097
1776445437141166600,27.42016650390625,0.5598945211693644,1.3695619678035378,1.3194365854144097
1776445437166182700,27.4451826171875,-0.1016832817994058,0.3707539051912725,-1.28185591956079
1776445437191198500,27.470198486328126,-0.24150179459527132,-0.8024236129857599,-1.6179945845752954
1776445437216214800,27.49521484375,-0.24352453259453177,-1.769060759833455,-1.9635002128720282
1776445437241231600,27.520231689453126,-1.2346690748415887,-1.3635028138950467,-0.7592442503422498
1776445437266247700,27.54524755859375,-1.8170891699433325,0.22426292889416216,0.5688187091201543
1776445437291263500,27.570263427734375,0.5039502233684062,0.9281661080256104,0.31335517079830166
1776445437316279600,27.595279541015625,1.9995079303205012,0.7989809251859784,-0.09470774369835853
1776445437341295600,27.620295654296875,1.376602680095285,0.7611648431412875,0.09293898046016692
1776445437366312700,27.645312744140625,0.5582501149632036,0.22657968140393495,0.7432564076155423
1776445437391328500,27.67032861328125,0.18161197403892873,0.10894947341009974,0.8467179511338472
1776445437416344600,27.695344482421874,-0.14647548646703362,-0.4866904610097408,0.007289572486281395
1776445437441360600,27.720360595703124,-0.10747735503092408,-0.42679304166883225,0.1456646084755659
1776445437466376700,27.745376708984374,0.6659983958899974,0.04563596201539039,0.33280162954628467
1776445437491392500,27.770392578125,1.4990322511948644,0.20257833583056925,0.023144728744029997
1776445437516409600,27.79540966796875,0.7237129182338714,0.34481004724800585,-0.2596545602709055
1776445437541425700,27.82042578125,0.18568039252161977,0.045063861215859646,-0.3882645735710859
1776445437566441700,27.845441650390626,-0.44186099307164545,-0.7954195794425905,-0.5589625010162591
1776445437591457500,27.87045751953125,-0.13362396900467574,-0.6287760419547558,-0.2640536720126867
1776445437616473600,27.8954736328125,0.8765548709928989,0.7536030295848846,0.3686924426168203
1776445437641489700,27.92048974609375,0.6454781704306602,1.620031935621798,1.4059692059636115
1776445437666506500,27.945506591796875,-2.407047113204002,0.28646541030704975,0.8379132979094982
1776445437691522600,27.9705224609375,-1.6725941897690295,-1.2341238620489836,0.15746785899400711
1776445437716538400,27.995538330078126,-0.7035445749521255,-0.6893044526755809,-0.14426760115921497
1776445437741555500,28.020555419921877,-0.023844985967874526,0.6493050352424383,0.2521060445874929
1776445437766571500,28.045571533203123,-0.7882302524603902,0.7539236398413777,0.5157610726714134
1776445437791587600,28.070587646484373,-0.04138772998638451,0.9549817803673446,0.6221785433858633
1776445437816603600,28.095603759765623,-0.2271018786471337,0.5607227886870503,0.14309738833606242
1776445437841619500,28.120619384765625,0.7332265965104102,-0.9722394968993961,-1.282719258391857
1776445437866635500,28.145635498046875,0.6563257276594638,-1.3631437713243066,-1.1945441313326357
1776445437891652600,28.170652587890626,-0.03886135331392288,-0.902066036607325,-0.1767301933467388
1776445437916668700,28.195668701171876,-0.25874226773157716,0.06295914499908685,-0.1296224052131176
1776445437941684500,28.2206845703125,0.24854937501922247,0.5709492914080619,-0.07827975598871707
1776445437966700500,28.245700439453124,0.46354821648374195,0.17055150471180677,0.3760860599994659
1776445437991716600,28.270716552734374,-0.28846608260497447,-0.09965279888510703,0.2633405553072691
1776445438016732400,28.295732421875,-0.24489479803442954,0.03991436949819326,0.2719324425637722
1776445438041749500,28.32074951171875,-0.33914076943993565,-0.3284612622544169,0.23376316316723822
1776445438066765600,28.345765625,-0.1670142704963684,0.10278846656233072,-0.03363163596689701
1776445438091781600,28.37078173828125,0.7360030754864215,0.13171908523142337,-0.7638596351832151
1776445438116797400,28.39579736328125,1.0687538516283035,-0.022814181615412234,-0.7610323028028011
1776445438141813500,28.4208134765625,0.9784603441756218,0.19459815073162315,0.25162264498472214
1776445438166830600,28.44583056640625,1.0074245728533715,0.3121379039630294,0.6920464448601007
1776445438191846700,28.4708466796875,0.8792939405679703,0.5115349794089794,0.609933394318819
1776445438216862500,28.495862548828125,1.242704058867693,0.6805088595405221,0.2916957121759653
1776445438241878500,28.52087841796875,1.255533145302534,-0.0512628619864583,0.102870007365942
1776445438266894600,28.54589453125,1.025326213312149,-0.11693097368329762,0.17731588428020476
1776445438291910700,28.57091064453125,0.3225356715977192,0.23124650417119264,0.5376461567431688
1776445438316927500,28.595927490234374,0.4555214157640934,0.6648340282857418,0.18582886108160018
1776445438341943600,28.620943603515624,1.114410271909833,0.44655864936858414,-0.5447568655312061
1776445438366959600,28.645959716796874,0.8147825976908206,-0.29983430270701644,-0.032059856605529784
1776445438391975700,28.6709755859375,-0.33577808807380494,-0.18831819367930291,0.8421756315290927
1776445438416991500,28.695991455078126,-0.4444412188231945,0.643790655735135,0.7947375885277986
1776445438442008600,28.721008544921876,0.43905200006552036,-0.21633447398245334,0.21942367216944694
1776445438467024600,28.746024658203126,0.16498656406104564,-1.0249548227164893,0.5870540385127068
1776445438492040700,28.771040771484376,-0.45080717365853484,-1.13184663294442,0.5367237812012434
1776445438517056500,28.796056396484374,-0.09511164832413196,-0.8948699876233935,0.18772505009174345
1776445438542072600,28.821072509765624,0.04988550921864807,-1.0951362471193073,-0.2407353402674198
1776445438567088600,28.846088623046874,0.20969898149073124,-1.2410421170048416,-0.48180794966518875
1776445438592105700,28.871105712890625,0.19714637390971182,-1.426146024812758,0.29081776029765605
1776445438617121500,28.89612158203125,-0.0643394203763455,-0.9858742006286978,0.9861538943529129
1776445438642137600,28.9211376953125,-0.0003343465209007263,-0.9548423718966543,0.970496891015768
1776445438667153700,28.946153564453127,-0.5089554843097925,-1.8669003718167543,0.7205635142922401
1776445438692169700,28.971169677734373,-0.46193245185017584,-0.9636351154875009,0.14218670323193072
1776445438717186800,28.996186767578124,-0.2819792230700143,-0.7427638748582452,-0.18410218341946602
1776445438742203000,29.021202880859374,-0.6407587406933307,-0.22571838839948177,-0.3980301807820797
1776445438767219000,29.046218994140624,0.14348490808261558,0.9011828970972448,-0.8999369156241417
1776445438792234800,29.07123486328125,-0.6586170534670353,0.7444055776506662,-0.17607962048351763
1776445438817250800,29.096250732421876,-0.9453963520288466,0.29459895933680236,0.1483311973363161
1776445438842267000,29.121266845703126,-0.410398737033084,0.37196284258961676,0.3025491146236658
1776445438867283700,29.14628369140625,-0.31798582627363503,0.5534724522326141,-1.0408329945236443
1776445438892299800,29.1712998046875,-0.9640344900686293,-0.6327686917874962,-1.69167239972651
1776445438917315800,29.19631591796875,-1.101235733038187,-0.7300292617738247,-0.8440928633272647
1776445438942332000,29.221331787109374,0.2694037278037518,-0.36713929489068686,-0.1761953558176756
1776445438967347700,29.24634765625,0.8478688747346401,-0.1411036937681958,0.5081926832437514
1776445438992364500,29.271364501953126,1.2503636337101458,1.5615991820059716,1.245445466530323
1776445439017380600,29.296380615234376,0.6416377885501832,2.3008355403251946,0.489797194853425
1776445439042396700,29.321396728515627,0.24929507881999013,1.2715706723898648,-0.05632628285586833
1776445439067412700,29.346412841796877,-0.4328069681961089,0.7992720901522785,-0.09310615372061729
1776445439092428800,29.3714287109375,0.12190196702890098,-0.23496150610633193,-0.6283031637459993
1776445439117444900,29.39644482421875,0.5578361273348331,-0.03551598840877414,-1.307766605886817
1776445439142461700,29.421461669921875,-0.32025362507514654,1.150275950539112,-0.9653770637840032
1776445439167477500,29.4464775390625,-0.5239993241846561,1.4523061558552086,-0.939202173563838
1776445439192493600,29.47149365234375,1.0588847840428353,-0.726483259730041,0.8662322144210338
1776445439217509600,29.496509521484374,1.1980078619204462,-1.752533841793984,1.1646078427523374
1776445439242525700,29.521525634765624,1.3502581323966383,-2.26313811622411,-0.3171060477644205
1776445439267541800,29.546541748046874,1.1979365502499044,-1.7442457597896455,-1.0202625001817942
1776445439292558600,29.57155859375,1.7236299650013447,-1.582390187230706,-1.3973597830504179
1776445439317574700,29.59657470703125,1.2632979340851307,-1.7286501312509177,-0.7463532045871019
1776445439342590700,29.6215908203125,-1.0163888736188411,-2.394680383583903,0.26911972323060035
1776445439367606500,29.6466064453125,-2.6584663445711136,-2.0984883829019965,-0.06995090358257293
1776445439392622600,29.67162255859375,-1.8128244982361792,-1.1293206946633756,1.6771020225822924
1776445439417639700,29.6966396484375,-1.3607891710221767,0.7973986244305968,2.9739117656469345
1776445439442655700,29.72165576171875,-0.5740461249122396,0.32294476385526355,0.8437854048132896
1776445439467671600,29.746671630859375,0.06505253708176315,0.008661956818029283,-0.38243805937469005
1776445439492687600,29.7716875,0.14649397197179495,-0.389353172525391,-1.0311480513334275
1776445439517703700,29.79670361328125,1.0596353101491927,-0.2681816021302715,-0.8909849628835916
1776445439542719500,29.821719482421877,0.5798597430944442,1.1629530612826346,-0.4921282681494951
1776445439567736600,29.846736572265623,0.32603925927188243,0.27474267767891286,-0.14018997645676134
1776445439592752600,29.871752685546873,0.5584077532103285,-0.5480901016071439,-0.4491629866480827
1776445439617768700,29.896768798828123,0.6131541099309921,-0.828159308071062,-0.19193828387260436
1776445439642784500,29.921784423828125,-1.0772650748640298,-0.3096052436802536,0.4760159222602844
1776445439667801000,29.946801025390624,-0.6633996115684508,-0.923329920040816,0.7296990069061517
1776445439692818200,29.971818115234374,0.08588613933920859,-0.5127328108914196,-0.3783528358876705
1776445439717834200,29.996834228515624,1.3471055135846137,1.3350313371703029,-0.08838380137383937
1776445439742850300,30.021850341796874,-1.1944950314939022,0.8913800996810197,0.22054770776331423
1776445439767866000,30.0468662109375,-0.25205511811785397,-1.414371269736439,0.3396750224471092
1776445439792882200,30.071882080078126,-0.8417593788783997,-1.0483091756232081,-0.3999123412668705
1776445439817898200,30.096898193359376,-0.4184368628643453,-1.2018430561691522,-0.6489233424484729
1776445439842915300,30.121915283203126,1.027584805893898,-0.7211648411862551,-0.4792559270948171
1776445439867931100,30.14693115234375,0.7126262915521859,0.47309535863846536,0.3526291965663433
1776445439892947200,30.171947265625,0.26969956894516944,0.2787450451880693,0.31491292163431645
1776445439917963300,30.19696337890625,0.39705994751043616,0.11899229012727737,0.10846505089402197
1776445439942979000,30.22197900390625,-0.9489232109807431,-0.4326576959185302,-0.2622457458078861
1776445439967996200,30.24699609375,-1.3475029884696006,-0.5952560496687889,-0.20581249544620514
1776445439993012200,30.27201220703125,0.43996378114819523,-0.36282223540917036,0.11079495514631271
1776445440018028300,30.2970283203125,0.6555694293994456,-0.41486411894410846,0.043460371541976926
1776445440043044400,30.32204443359375,1.526826120918989,-0.5611702401936054,-0.24922552071511744
1776445440068060200,30.34706005859375,0.9996722051609307,-0.5929623857736587,0.4887824648529291
1776445440093076200,30.372076171875,0.20901041470468043,-0.746277362871915,0.8132084802418946
1776445440118093300,30.39709326171875,0.21121172414124012,-1.0502686391279101,-0.09763619836568832
1776445440143109400,30.422109375,0.10093399780206382,-0.26642142405733465,0.3571954815685749
1776445440168125200,30.447125244140626,0.5475263302445411,-0.4752167347066104,0.15318389806449412
1776445440193141200,30.472141357421876,1.044616020193696,-0.049708472151309246,-0.020189970591664313
1776445440218157300,30.4971572265625,0.22272147160582242,-0.28935134100690485,0.23059973070025444
1776445440243174400,30.52217431640625,-0.8600316062152386,-0.1988974553607404,0.1844943976074457
1776445440268190200,30.547190185546874,0.3564934707790613,-0.10708148758113384,-0.840108762127161
1776445440293206300,30.572206298828124,1.057704634347558,0.22130247165337202,-0.703854956075549
1776445440318222300,30.597222412109375,0.006668225717544555,0.14152663188800216,0.15129180070757864
1776445440343238100,30.622238037109376,-0.6214888075560331,-0.11521481741517782,0.3204845842868089
1776445440368254200,30.647254150390626,0.2627694774210453,-0.17310644989162682,-0.3795551974147558
1776445440393271300,30.672271240234377,-0.02768060034168884,-0.7539724474191665,-0.5834188968807459
1776445440418287400,30.697287353515627,-0.4448270032703876,-0.33673312377631665,0.0580225653797388
1776445440443303200,30.72230322265625,-0.4727396770685911,-0.5778709073647856,-0.3367717022210359
1776445440468319200,30.7473193359375,-0.4540267932921648,-0.6861825212627649,-0.1853396162599325
1776445440493335300,30.772335205078125,-0.27559739481210704,0.49836248636394737,0.5530050539165735
1776445440518352400,30.797352294921875,-0.004428337836265564,-0.04010536202564835,0.7799965309917927
1776445440543368200,30.8223681640625,0.5898621547359972,0.195750097245723,0.2944885577648878
1776445440568384300,30.84738427734375,0.5922879205781966,-0.17467735247015953,-0.720394002944231
1776445440593400300,30.872400390625,1.163797110891342,-1.250965691256523,-1.183590775641799
1776445440618416400,30.89741650390625,1.119738188934326,-0.6937202232912182,-0.8130722866415977
1776445440643432200,30.92243212890625,0.28584875797973947,-0.6419238389499485,0.2685936535298824
1776445440668448800,30.94744873046875,-0.5537678549826145,-1.071099976363033,0.6132733523964882
1776445440693464800,30.97246484375,-1.033026047099754,-0.25729718348979946,0.09715805945992469
