time,seconds_elapsed,z,y,x
1776445409784852200,0.063852294921875,-0.05487416684627533,-0.020542027428746223,0.12418559938669205
1776445409809868300,0.088868408203125,-0.062420234084129333,0.002403236459940672,0.1081610918045044
1776445409834884400,0.11388427734375,0.02142859250307083,-0.032097749412059784,-0.0685734674334526
1776445409859899400,0.1388994140625,0.06193500757217407,0.01221538707613945,-0.029452962800860405
1776445409884915500,0.16391552734375,-0.013143232092261314,-0.04255598410964012,0.09260157495737076
1776445409909931500,0.188931640625,-0.07657307386398315,-0.17009876668453217,0.04145023599267006
1776445409934947300,0.213947265625,0.029036445543169975,-0.05220887437462807,-0.033617615699768066
1776445409959963400,0.23896337890625,0.15723569691181183,0.11153451353311539,-0.005305815953761339
1776445409984978400,0.263978515625,0.2136973738670349,0.11289219558238983,0.01167316734790802
1776445410009994200,0.288994140625,0.25096431374549866,0.08245626091957092,0.051835767924785614
1776445410035010300,0.31401025390625,0.356740266084671,0.07530167698860168,-0.01266732532531023
1776445410060026400,0.3390263671875,0.5755176544189453,0.21911130845546722,-0.15166489779949188
1776445410085042200,0.364042236328125,0.6404665112495422,0.2751452922821045,-0.18256661295890808
1776445410110057500,0.389057373046875,0.5132931470870972,0.3372374176979065,0.0529007650911808
1776445410135073500,0.414073486328125,0.6167343258857727,0.7168387770652771,0.07148963212966919
1776445410160089300,0.43908935546875,1.0072144269943237,1.211409330368042,-0.2218378484249115
1776445410185105400,0.46410546875,1.273337483406067,1.0654146671295166,-0.49633413553237915
1776445410210121500,0.48912158203125,1.2874476909637451,0.8865413069725037,-0.200823113322258
1776445410235137300,0.51413720703125,1.2296967506408691,0.6270117163658142,0.2206820398569107
1776445410260152300,0.53915234375,1.311053991317749,0.0002721750643104315,0.09935694932937622
1776445410285168400,0.56416845703125,1.3816591501235962,-0.4385661780834198,-0.31482771039009094
1776445410310184200,0.58918408203125,1.5578192472457886,-0.30149194598197937,-0.3102979362010956
1776445410335200300,0.6142001953125,1.6382997035980225,0.10788705199956894,0.1128743514418602
1776445410360216300,0.63921630859375,1.6489486694335938,0.37493765354156494,0.19844278693199158
1776445410385231400,0.6642314453125,1.986882209777832,0.6570473909378052,0.10637730360031128
1776445410410247400,0.689247314453125,2.2331700325012207,0.7975938320159912,-0.006326072849333286
1776445410435263500,0.714263427734375,2.146973133087158,0.6084761023521423,-0.22193320095539093
1776445410460279300,0.739279296875,2.176622152328491,0.22565709054470062,-0.31184259057044983
1776445410485295400,0.76429541015625,2.2048916816711426,0.21405743062496185,-0.07258232682943344
1776445410510310400,0.789310302734375,2.1296000480651855,0.27647021412849426,0.04716191813349724
1776445410535326200,0.814326171875,2.017195463180542,0.35282036662101746,0.03955353423953056
1776445410560342300,0.83934228515625,1.8048181533813477,0.4814355969429016,0.046066559851169586
1776445410585358300,0.8643583984375,1.7681128978729248,0.49619218707084656,0.08507601171731949
1776445410610374400,0.88937451171875,1.7890604734420776,0.26890042424201965,0.0746726393699646
1776445410635390200,0.91439013671875,1.7483969926834106,0.017119064927101135,-0.03340988978743553
1776445410660405500,0.939405517578125,1.8423519134521484,0.13499297201633453,-0.05560706928372383
1776445410685421300,0.96442138671875,1.8907034397125244,0.4148736298084259,-0.11224398016929626
1776445410710437400,0.989437255859375,1.818550705909729,0.49390798807144165,-0.127768874168396
1776445410735453400,1.014453369140625,1.7377972602844238,0.26345106959342957,-0.2994181215763092
1776445410760469200,1.03946923828125,1.4032009840011597,-0.23214241862297058,-0.5429815053939819
1776445410785485300,1.0644853515625,1.2085840702056885,-1.108121395111084,-0.5940500497817993
1776445410810500400,1.089500244140625,1.055222988128662,-0.9586690068244934,-0.19747339189052582
1776445410835516200,1.11451611328125,1.0570957660675049,-0.6033750772476196,-0.22640331089496613
1776445410860532200,1.1395322265625,1.0029970407485962,-0.17364582419395447,-0.2581396698951721
1776445410885548300,1.16454833984375,1.0173027515411377,-0.14367328584194183,-0.44510528445243835
1776445410910564000,1.189564208984375,0.8044951558113098,0.0750018060207367,-0.44069749116897583
1776445410935579400,1.214579345703125,0.9769654870033264,0.326219379901886,-0.2818005383014679
1776445410960595500,1.239595458984375,1.173377275466919,0.17026680707931519,-0.16178490221500397
1776445410985611300,1.264611328125,1.3461400270462036,0.01116423774510622,0.06574172526597977
1776445411010627300,1.28962744140625,1.6109908819198608,-0.0812666267156601,0.06323303282260895
1776445411035643400,1.314643310546875,1.6957124471664429,-0.14624616503715515,0.1547996997833252
1776445411060659500,1.339659423828125,1.1647255420684814,-0.14269323647022247,0.14126631617546082
1776445411085674200,1.36467431640625,0.6253432631492615,0.09001670777797699,0.10611552000045776
1776445411110690300,1.389690185546875,0.6389474868774414,0.3459123969078064,-0.006593187805265188
1776445411135706000,1.4147060546875,0.8058413863182068,0.38788115978240967,-0.07313413172960281
1776445411160722200,1.43972216796875,0.7938909530639648,0.30406081676483154,-0.021164940670132637
1776445411185738200,1.46473828125,0.7444813251495361,0.1282264143228531,0.043537355959415436
1776445411210754300,1.48975439453125,0.7742437720298767,-0.12405750155448914,-0.03982517868280411
1776445411235770000,1.51477001953125,0.9201352000236511,-0.17023219168186188,-0.11241442710161209
1776445411260785400,1.539785400390625,1.1184232234954834,-0.03593643009662628,0.016436230391263962
1776445411285801500,1.564801513671875,1.2451037168502808,0.11676070094108582,0.3252579867839813
1776445411310817300,1.5898173828125,1.2188981771469116,0.33491966128349304,0.5104403495788574
1776445411335833300,1.614833251953125,0.998224139213562,0.5195648670196533,0.49699804186820984
1776445411360849400,1.639849365234375,0.7379670143127441,0.40981706976890564,0.29261428117752075
1776445411385865200,1.664865234375,0.5986788868904114,0.20906320214271545,0.1112397089600563
1776445411410880300,1.68988037109375,0.6043255925178528,0.309550404548645,-0.017711352556943893
1776445411435896300,1.714896240234375,0.81321781873703,0.0935422033071518,-0.20749087631702423
1776445411460912000,1.739912109375,1.0909096002578735,-0.023029418662190437,-0.2476753145456314
1776445411485928200,1.76492822265625,1.2661956548690796,0.04843544214963913,-0.18465612828731537
1776445411510944300,1.7899443359375,1.377481460571289,0.0964924544095993,-0.2732584476470947
1776445411535960300,1.814960205078125,1.498896598815918,0.1659892350435257,-0.027606327086687088
1776445411560976400,1.839976318359375,1.5259923934936523,0.0989936888217926,-0.07400232553482056
1776445411585991400,1.864991455078125,1.5222673416137695,-0.012966930866241455,-0.2723982334136963
1776445411611007200,1.89000732421875,1.6151174306869507,0.01673050969839096,-0.25271692872047424
1776445411636019700,1.915019775390625,1.521903395652771,-0.26218342781066895,-0.24357138574123383
1776445411661035800,1.940035888671875,1.3931748867034912,-0.3616175949573517,-0.194638192653656
1776445411686051800,1.9650517578125,1.439958095550537,-0.11852824687957764,0.09693000465631485
1776445411711067600,1.990067626953125,1.2953367233276367,-0.14015232026576996,0.15055274963378906
1776445411736083700,2.015083740234375,1.0181262493133545,-0.07547131925821304,0.08457879722118378
1776445411761098800,2.0400986328125,0.8330786228179932,-0.025837456807494164,-0.0009653958841226995
1776445411786114800,2.06511474609375,1.3749303817749023,-0.023145265877246857,0.07640822231769562
1776445411811131000,2.090130859375,1.6665188074111938,-0.6247216463088989,-0.030834877863526344
1776445411836147000,2.11514697265625,1.4906615018844604,-0.8504812717437744,-0.08120351284742355
1776445411861163000,2.1401630859375,1.0621650218963623,-0.5580350160598755,-0.011753062717616558
1776445411886178800,2.1651787109375,0.7612709999084473,0.2479647994041443,0.15966342389583588
1776445411911195000,2.19019482421875,0.9671730399131775,0.8588417768478394,0.11445920169353485
1776445411936211000,2.2152109375,1.5750222206115723,0.684561014175415,0.32510244846343994
1776445411961225700,2.240225830078125,2.492527484893799,-0.13932859897613525,0.36522403359413147
1776445411986241800,2.26524169921875,3.536177396774292,-0.32196366786956787,0.7682561874389648
1776445412011257900,2.2902578125,4.013983726501465,-0.4164920151233673,1.3377268314361572
1776445412036273700,2.315273681640625,3.997384786605835,-0.8449664115905762,1.2214572429656982
1776445412061289700,2.340289794921875,3.736638307571411,-0.5865694880485535,0.7081822156906128
1776445412086305800,2.365305908203125,3.2755227088928223,-0.39961689710617065,0.38348454236984253
1776445412111321600,2.390321533203125,2.7432191371917725,-0.18253785371780396,0.43869665265083313
1776445412136337700,2.415337646484375,2.197521686553955,0.02912645973265171,0.4527325928211212
1776445412161353000,2.44035302734375,1.6685361862182617,0.37760642170906067,0.4346574544906616
1776445412186368800,2.46536865234375,1.4265738725662231,0.6268812417984009,0.3873346745967865
1776445412211384800,2.490384765625,1.516924262046814,0.6850284337997437,0.4963357150554657
1776445412236401000,2.51540087890625,1.6860275268554688,0.491606742143631,0.4451894462108612
1776445412261417000,2.5404169921875,1.9047743082046509,0.3354565501213074,0.40157780051231384
1776445412286432800,2.565432861328125,2.1509525775909424,0.2790084779262543,0.4015069603919983
1776445412311448800,2.59044873046875,2.084817409515381,0.16614742577075958,0.46349602937698364
1776445412336465000,2.61546484375,1.7098172903060913,-0.07268858700990677,0.30317211151123047
1776445412361480700,2.640480712890625,1.339701533317566,0.010031594894826412,0.008586564101278782
1776445412386495700,2.665495849609375,1.2816110849380493,0.4049128592014313,0.1103278398513794
1776445412411511800,2.69051171875,1.1095157861709595,0.4409225285053253,0.20915375649929047
1776445412436527600,2.715527587890625,0.9511258602142334,0.29205742478370667,0.022844329476356506
1776445412461543700,2.740543701171875,0.9636890888214111,0.259084552526474,-0.11896047741174698
1776445412486559700,2.765559814453125,0.9523858428001404,0.12479173392057419,-0.05957438051700592
1776445412511575800,2.790575927734375,0.7715446352958679,-0.03436756134033203,0.06343942880630493
1776445412536592000,2.815591796875,0.5932654738426208,0.18725217878818512,0.21063126623630524
1776445412561608000,2.84060791015625,0.5116984248161316,0.3502059578895569,0.21251918375492096
1776445412586624000,2.8656240234375,0.560531497001648,0.4589340388774872,0.07882450520992279
1776445412611638800,2.890638671875,0.7112208604812622,0.540278971195221,-0.05513782054185867
1776445412636654300,2.915654296875,0.8910060524940491,0.2773019075393677,-0.19441501796245575
1776445412661670400,2.94067041015625,1.1301137208938599,0.09582240134477615,-0.3321230709552765
1776445412686686500,2.9656865234375,1.3654674291610718,0.025056350976228714,-0.36390790343284607
1776445412711702300,2.990702392578125,1.1992675065994263,-0.08759775757789612,-0.12465883791446686
1776445412736718300,3.01571826171875,0.8407303690910339,-0.08036194741725922,-0.03845364972949028
1776445412761734400,3.040734375,0.9257885813713074,0.011267035268247128,-0.21868334710597992
1776445412786750200,3.065750244140625,1.1466442346572876,0.16912031173706055,-0.21754804253578186
1776445412811766300,3.090766357421875,1.445122241973877,-0.15773797035217285,-0.02347363345324993
1776445412836782300,3.1157822265625,1.7779889106750488,-0.5440800786018372,0.1466621458530426
1776445412861798400,3.14079833984375,2.053828716278076,-0.545734703540802,0.2942042052745819
1776445412886813400,3.1658134765625,2.3837392330169678,-0.48146969079971313,0.31693533062934875
1776445412911829500,3.19082958984375,2.5124900341033936,-0.7996500730514526,0.03664696216583252
1776445412936845300,3.21584521484375,2.475691556930542,-0.9941830635070801,-0.10672751069068909
1776445412961861400,3.240861328125,2.254788637161255,-0.5753194689750671,0.13602441549301147
1776445412986877400,3.26587744140625,1.8961962461471558,-0.17424876987934113,0.3611067831516266
1776445413011893500,3.2908935546875,1.512804388999939,0.2808876037597656,0.17482933402061462
1776445413036909300,3.315909423828125,1.3965086936950684,0.7055866718292236,-0.2267172932624817
1776445413061925400,3.34092529296875,1.765519142150879,0.6518904566764832,-0.15771585702896118
1776445413086941400,3.36594140625,2.4315292835235596,0.6203500628471375,0.25543442368507385
1776445413111957200,3.390957275390625,2.7389962673187256,0.40106645226478577,0.12376108765602112
1776445413136973300,3.415973388671875,3.1400296688079834,-0.02400493435561657,-0.4047730565071106
1776445413161989400,3.4409892578125,3.5798730850219727,-0.4286506772041321,-0.45129209756851196
1776445413187004400,3.46600439453125,3.685190439224243,-0.3336205780506134,-0.27654796838760376
1776445413212020500,3.4910205078125,3.4902896881103516,-0.19573675096035004,-0.3804512023925781
1776445413237036500,3.51603662109375,3.3554768562316895,-0.2381736785173416,-0.36002102494239807
1776445413262052600,3.541052490234375,3.2865142822265625,-0.09963525086641312,-0.09521466493606567
1776445413287068400,3.566068359375,3.0025391578674316,0.07332108169794083,0.1818382441997528
1776445413312084500,3.59108447265625,2.711179256439209,-0.12310381978750229,0.3048805296421051
1776445413337100500,3.6161005859375,2.3741235733032227,-0.4265933930873871,0.582351803779602
1776445413362116400,3.641116455078125,1.8541470766067505,-0.6054286360740662,1.0095643997192383
1776445413387132400,3.66613232421875,1.6388195753097534,-0.12905944883823395,0.9929044842720032
1776445413412148500,3.6911484375,1.1634999513626099,-0.11107219010591507,0.8028666377067566
1776445413437164300,3.716164306640625,0.790590763092041,0.06307244300842285,0.9968757629394531
1776445413462180400,3.741180419921875,0.4615758955478668,0.3663311302661896,1.0464571714401245
1776445413487196400,3.766196533203125,0.5386053919792175,0.2045917510986328,0.4436621367931366
1776445413512212500,3.79121240234375,0.8459342122077942,-0.13196256756782532,-0.04697602987289429
1776445413537228300,3.816228271484375,1.119779109954834,-0.2550243139266968,-0.00649784691631794
1776445413562243600,3.84124365234375,1.0447391271591187,-0.22742730379104614,0.07573231309652328
1776445413587259600,3.866259765625,1.0155975818634033,-0.18357010185718536,-0.12574274837970734
1776445413612275500,3.891275390625,1.171723484992981,-0.38759565353393555,-0.42242687940597534
1776445413637291500,3.91629150390625,1.2611428499221802,-0.22245198488235474,-0.11235769838094711
1776445413662307600,3.9413076171875,1.067779302597046,-0.2693726122379303,0.0894278809428215
1776445413687323600,3.96632373046875,1.3567020893096924,-0.9459958076477051,-0.08676312118768692
1776445413712339700,3.991339599609375,1.3783349990844727,-0.5901546478271484,0.22242987155914307
1776445413737355500,4.01635546875,0.7483080625534058,-0.22724966704845428,0.7298217415809631
1776445413762371600,4.04137158203125,0.41942816972732544,0.41163602471351624,1.1784828901290894
1776445413787387600,4.0663876953125,1.3852077722549438,1.1879125833511353,1.7071070671081543
1776445413812403500,4.091403564453125,2.782641887664795,1.4059703350067139,2.104221820831299
1776445413837419500,4.11641943359375,2.9586451053619385,1.854043960571289,1.958568811416626
1776445413862435600,4.141435546875,1.8654913902282715,1.6725082397460938,1.1877634525299072
1776445413887451600,4.16645166015625,1.2147830724716187,0.850874662399292,0.46904632449150085
1776445413912467500,4.191467529296875,1.0354841947555542,0.7410852909088135,0.14327886700630188
1776445413937483500,4.2164833984375,1.1719458103179932,0.4670255184173584,-0.07380019128322601
1776445413962499600,4.24149951171875,1.223859190940857,0.1955399364233017,-0.12170140445232391
1776445413987515400,4.266515380859375,1.4620962142944336,0.3479611575603485,-0.09860380738973618
1776445414012530700,4.29153076171875,1.8931884765625,0.2697228193283081,-0.10256339609622955
1776445414037546800,4.316546630859375,1.9887586832046509,-0.0026024410035461187,-0.18100839853286743
1776445414062562600,4.3415625,1.7815524339675903,-0.030916903167963028,-0.5532307028770447
1776445414087578600,4.36657861328125,1.4375876188278198,0.06511562317609787,-0.7312970757484436
1776445414112594700,4.3915947265625,1.3893005847930908,-0.09864987432956696,-0.691502571105957
1776445414137610500,4.416610595703125,1.3644143342971802,-0.20659232139587402,-0.6020147800445557
1776445414162626600,4.44162646484375,1.3282289505004883,-0.0861162394285202,-0.44404321908950806
1776445414187642600,4.466642578125,1.335044026374817,-0.02232980728149414,-0.35732829570770264
1776445414212658700,4.49165869140625,1.3234269618988037,0.14072781801223755,-0.33121228218078613
1776445414237674500,4.516674560546875,1.3352974653244019,0.14441177248954773,-0.3951909840106964
1776445414262690600,4.541690673828125,1.4367868900299072,0.12253736704587936,-0.36322852969169617
1776445414287706600,4.56670654296875,1.498626470565796,0.2570701539516449,-0.21580339968204498
1776445414312722400,4.591722412109375,1.4749512672424316,0.29374614357948303,-0.12774305045604706
1776445414337738500,4.616738525390625,1.5053304433822632,0.30048713088035583,-0.03338565304875374
1776445414362754600,4.641754638671875,1.7802637815475464,0.2734067738056183,0.1423262506723404
1776445414387770600,4.6667705078125,2.0685806274414062,0.44994398951530457,0.1397712081670761
1776445414412786400,4.691786376953125,2.2413270473480225,0.6670461893081665,-0.19799137115478516
1776445414437802500,4.716802490234375,2.404639959335327,0.7015218734741211,-0.42756226658821106
1776445414462818600,4.741818603515625,2.2284717559814453,0.5982599854469299,-0.7075289487838745
1776445414487834400,4.76683447265625,1.8893444538116455,0.02642068825662136,-0.7518332600593567
1776445414512850400,4.791850341796875,1.404821515083313,-0.43618637323379517,-0.3431363105773926
1776445414537866500,4.816866455078125,1.441758394241333,-0.09695983678102493,0.18809400498867035
1776445414562882600,4.841882568359375,1.7794584035873413,0.1758597046136856,0.4554455578327179
1776445414587898400,4.8668984375,2.012387752532959,-0.16441850364208221,0.25837695598602295
1776445414612914700,4.891914794921875,2.2555527687072754,-0.6187138557434082,0.0586092509329319
1776445414637929500,4.916929443359375,2.4454398155212402,-0.7394344210624695,0.05193883180618286
1776445414662945500,4.941945556640625,2.5144758224487305,-0.24368083477020264,0.17929092049598694
1776445414687961600,4.966961669921875,2.0750226974487305,0.3790442645549774,0.014843926765024662
1776445414712977700,4.991977783203125,1.603135585784912,0.09435659646987915,0.26102226972579956
1776445414737993500,5.016993408203125,1.705564260482788,-0.17658808827400208,0.47154462337493896
1776445414763009500,5.042009521484375,2.0728847980499268,-0.004172907210886478,0.5688786506652832
1776445414788025600,5.067025634765625,2.4297642707824707,0.5303690433502197,0.28994208574295044
1776445414813041400,5.09204150390625,2.710787296295166,1.1054185628890991,0.076259084045887
1776445414838057500,5.117057373046875,2.843292713165283,1.3820024728775024,0.19711492955684662
1776445414863073500,5.142073486328125,3.0482916831970215,1.0566123723983765,0.2864197790622711
1776445414888089600,5.167089599609375,2.881671667098999,0.35672324895858765,0.03304610028862953
1776445414913105400,5.19210546875,2.0477213859558105,-0.3751848042011261,-0.4999501705169678
1776445414938121500,5.21712158203125,1.6875346899032593,-0.6792736053466797,-0.6243647933006287
1776445414963137500,5.242137451171875,1.8057880401611328,-0.5488367676734924,-0.48476243019104004
1776445414988153300,5.2671533203125,1.9485502243041992,-0.36082157492637634,-0.3450183868408203
1776445415013169400,5.29216943359375,1.9594148397445679,-0.3861261308193207,-0.2371201366186142
1776445415038185500,5.317185546875,2.183013677597046,-0.28005295991897583,0.072075255215168
1776445415063201500,5.342201416015625,2.4694437980651855,0.41850271821022034,0.6139523983001709
1776445415088217600,5.367217529296875,2.7022130489349365,0.9871086478233337,0.7490233778953552
1776445415113233700,5.392233642578125,2.7205650806427,1.0554592609405518,0.34238505363464355
1776445415138249700,5.417249755859375,2.8476855754852295,0.8742302656173706,-0.18874381482601166
1776445415163265500,5.442265625,2.9859023094177246,0.9009612202644348,-0.48096102476119995
1776445415188281600,5.467281494140625,2.699368953704834,1.0013089179992676,-0.606034517288208
1776445415213297700,5.492297607421875,2.205355644226074,1.0077561140060425,-0.8039758205413818
1776445415238313500,5.5173134765625,1.9013278484344482,0.8516482710838318,-0.9038100242614746
1776445415263329500,5.54232958984375,1.8544576168060303,0.481032133102417,-0.7449644207954407
1776445415288345600,5.567345703125,1.6275064945220947,0.09460853040218353,-0.44149696826934814
1776445415313361700,5.592361572265625,0.9680947065353394,-0.12551185488700867,-0.37734729051589966
1776445415338377500,5.61737744140625,0.4174864590167999,-0.4344928562641144,-0.32870596647262573
1776445415363393500,5.6423935546875,0.12453633546829224,-0.8872411847114563,-0.08998634666204453
1776445415388409600,5.66740966796875,-0.09318294376134872,-1.1370710134506226,0.31765466928482056
1776445415413425400,5.69242529296875,-0.2834157347679138,-1.2242237329483032,0.486711323261261
1776445415438441500,5.71744140625,0.04664579778909683,-0.6246185898780823,0.2595388889312744
1776445415463457500,5.74245751953125,1.0164880752563477,0.7701315879821777,-0.30724382400512695
1776445415488473600,5.7674736328125,0.9444128274917603,0.3714851438999176,-0.039203327149152756
1776445415513489400,5.792489501953125,0.7624102830886841,0.336193710565567,0.2404320389032364
1776445415538505500,5.81750537109375,0.7494244575500488,0.07777176052331924,0.04338528960943222
1776445415563521500,5.842521484375,1.2240644693374634,-0.08041148632764816,0.005967078730463982
1776445415588537300,5.867537353515625,1.7765614986419678,-0.7730067372322083,-0.49644705653190613
1776445415613553400,5.892553466796875,2.930959939956665,-1.8130766153335571,-1.2006275653839111
1776445415638570000,5.917570068359375,3.243468999862671,-1.734870433807373,-1.1851892471313477
1776445415663586000,5.9425859375,2.8969554901123047,-1.2158129215240479,-0.780118465423584
1776445415688601900,5.967601806640625,1.690934658050537,-0.08801534026861191,0.06998893618583679
1776445415713618000,5.992617919921875,0.2505834698677063,0.7677022218704224,0.6284666061401367
1776445415738634000,6.017634033203125,-0.3293597996234894,0.5719678997993469,0.7991350293159485
1776445415763650000,6.042650146484375,0.09341836720705032,0.7733258008956909,0.6624274849891663
1776445415788666000,6.067666015625,1.3785914182662964,0.627409040927887,0.41796448826789856
1776445415813682200,6.09268212890625,2.756279230117798,0.3677860200405121,0.10457141697406769
1776445415838698200,6.1176982421875,3.449645519256592,0.09485860168933868,0.0388035885989666
1776445415863714000,6.142714111328125,3.276059865951538,0.1107022762298584,0.2780313491821289
1776445415888730000,6.167730224609375,2.6730594635009766,0.27676740288734436,0.3715519905090332
1776445415913746200,6.19274609375,2.2071073055267334,0.29003021121025085,0.32507795095443726
1776445415938762000,6.217761962890625,2.069762706756592,-0.16288825869560242,0.0009571401169523597
1776445415963778000,6.242778076171875,1.9232696294784546,-0.2057126760482788,-0.11906726658344269
1776445415988794000,6.267794189453125,1.862640380859375,-0.23811562359333038,-0.2529398500919342
1776445416013810200,6.29281005859375,1.9235352277755737,-0.5044378638267517,-0.40691423416137695
1776445416038826000,6.317825927734375,2.009624481201172,-0.691057026386261,-0.416248083114624
1776445416063842000,6.342842041015625,2.1189768314361572,-0.4178483784198761,-0.2391473352909088
1776445416088858000,6.367858154296875,2.1377151012420654,-0.2996538281440735,-0.12278557568788528
1776445416113873000,6.392872802734375,1.9136165380477905,-0.23387961089611053,0.01798166334629059
1776445416138890000,6.417889892578125,1.5815110206604004,-0.09705571085214615,0.10126989334821701
1776445416163906000,6.442906005859375,1.4046225547790527,0.14618517458438873,0.1756109744310379
1776445416188921900,6.467921875,1.3102840185165405,0.23226892948150635,0.21397434175014496
1776445416213938000,6.49293798828125,1.1838496923446655,0.17233873903751373,0.1090678945183754
1776445416238953200,6.517953125,1.2486557960510254,-0.18854515254497528,-0.06702883541584015
1776445416263970000,6.542969970703125,1.5604190826416016,-0.12187690287828445,-0.18123263120651245
1776445416288985900,6.56798583984375,1.7745296955108643,0.06934179365634918,-0.3420010209083557
1776445416314002000,6.593001953125,1.7991706132888794,0.07709052413702011,-0.5537726283073425
1776445416339018000,6.61801806640625,1.7635021209716797,0.19905798137187958,-0.6626272201538086
1776445416364034000,6.643033935546875,1.8720413446426392,0.43592190742492676,-0.6493710875511169
1776445416389050000,6.668050048828125,1.9756369590759277,0.2198687195777893,-0.3494831621646881
1776445416414066200,6.693066162109375,1.7554982900619507,0.0038136467337608337,-0.096468485891819
1776445416439082200,6.718082275390625,1.513184666633606,-0.16774745285511017,0.019035477191209793
1776445416464098000,6.74309814453125,1.4476333856582642,-0.1565491259098053,0.040465667843818665
1776445416489114000,6.768114013671875,1.6690030097961426,-0.16440865397453308,0.34194642305374146
1776445416514130200,6.793130126953125,2.1917014122009277,-0.19269701838493347,0.8321086764335632
1776445416539146000,6.81814599609375,2.6091504096984863,-0.3437797427177429,1.1763126850128174
1776445416564162000,6.843162109375,2.8072474002838135,-0.47176674008369446,1.4838331937789917
1776445416589178000,6.86817822265625,2.6177685260772705,-0.49522626399993896,1.5472012758255005
1776445416614194200,6.893194091796875,2.189481019973755,-0.47005245089530945,1.3907959461212158
1776445416639210000,6.9182099609375,1.6213276386260986,-0.3479633033275604,1.1771008968353271
1776445416664225500,6.9432255859375,1.3970391750335693,0.12620294094085693,1.0603269338607788
1776445416689241600,6.96824169921875,1.5584858655929565,0.8401471376419067,0.8156806826591492
1776445416714257700,6.993257568359375,1.291926622390747,1.097663164138794,0.22240564227104187
1776445416739273700,7.018273681640625,0.8837311267852783,0.9954627156257629,-0.4925609529018402
1776445416764289500,7.04328955078125,0.7784510254859924,1.380179524421692,-0.935687780380249
1776445416789305600,7.0683056640625,0.7727691531181335,1.407822608947754,-1.0742638111114502
1776445416814321700,7.09332177734375,1.2062532901763916,0.5009341835975647,-0.6654248833656311
1776445416839337500,7.11833740234375,1.497624158859253,-0.4581017792224884,0.005066131241619587
1776445416864353500,7.143353515625,1.4730417728424072,-1.0787309408187866,0.3506578803062439
1776445416889369600,7.16836962890625,1.2569148540496826,-0.9711344838142395,0.09425166994333267
1776445416914385700,7.1933857421875,0.9107555747032166,-0.2505400776863098,-0.25445252656936646
1776445416939401700,7.218401611328125,0.4057650864124298,0.5121703743934631,-0.3122332692146301
1776445416964417800,7.243417724609375,-0.02569524385035038,0.7168803215026855,-0.1759611815214157
1776445416989433900,7.268433837890625,-0.27437537908554077,0.6306740641593933,0.031744878739118576
1776445417014449700,7.29344970703125,-0.6644312739372253,0.7971796989440918,0.5891119837760925
1776445417039465700,7.3184658203125,-0.9160203337669373,1.4431246519088745,0.8431211113929749
1776445417064481800,7.343481689453125,-0.912453830242157,1.4800634384155273,0.7019138932228088
1776445417089497600,7.36849755859375,-0.6805753111839294,0.2181302011013031,0.02154417335987091
1776445417114513700,7.393513671875,0.6655638813972473,-1.4553775787353516,-0.3856659233570099
1776445417139529700,7.41852978515625,0.9160347580909729,-1.7678470611572266,-0.3630034923553467
1776445417164545800,7.4435458984375,0.9427012205123901,-1.8814860582351685,-0.47912025451660156
1776445417189561600,7.4685615234375,0.9144565463066101,-1.6549221277236938,-0.7011011242866516
1776445417214577700,7.49357763671875,0.6796818375587463,-0.8479529023170471,-0.7504175305366516
1776445417239593700,7.51859375,1.2439085245132446,0.6903523206710815,0.0006788397440686822
1776445417264609500,7.543609619140625,1.6850587129592896,2.179121494293213,0.7019637227058411
1776445417289625600,7.56862548828125,2.5744285583496094,2.014495611190796,0.8639478087425232
1776445417314641700,7.5936416015625,2.322782039642334,0.9876385927200317,0.7625948190689087
1776445417339657700,7.61865771484375,0.9458285570144653,0.2243814468383789,-0.1541789174079895
1776445417364673500,7.643673583984375,0.5190740823745728,-1.3805238008499146,-0.9810984134674072
1776445417389689600,7.668689697265625,0.731555163860321,-1.3471968173980713,-0.7782115936279297
1776445417414705700,7.69370556640625,0.9800571203231812,-0.6021148562431335,-0.34308919310569763
1776445417439721500,7.718721435546875,1.365464448928833,0.09855213761329651,-0.1668209433555603
1776445417464737500,7.743737548828125,1.302628755569458,0.7931780219078064,-0.19938288629055023
1776445417489753600,7.768753662109375,0.9374483823776245,0.7523602843284607,-0.23350410163402557
1776445417514769700,7.793769775390625,0.626274824142456,0.2710152566432953,-0.41587257385253906
1776445417539785700,7.81878564453125,0.42992475628852844,0.25766855478286743,-0.6286418437957764
1776445417564801800,7.8438017578125,0.4400990903377533,0.4713518023490906,-0.5075697302818298
1776445417589817900,7.86881787109375,0.5060232281684875,0.5045211911201477,-0.3698214590549469
1776445417614833700,7.893833740234375,1.052393913269043,0.42182207107543945,-0.3216981291770935
1776445417639849700,7.918849609375,1.4026235342025757,0.33191508054733276,-0.39828187227249146
1776445417664865800,7.94386572265625,1.8700226545333862,0.2139895260334015,-0.520113468170166
1776445417689881900,7.9688818359375,2.254657030105591,0.008728244341909885,-0.5523936748504639
1776445417714897700,7.993897705078125,2.3706037998199463,0.2901950776576996,-0.27457642555236816
1776445417739913700,8.018913818359374,2.548611640930176,0.5710403323173523,0.19811893999576569
1776445417764929800,8.0439296875,3.3059768676757812,0.5737228989601135,0.6456903219223022
1776445417789945600,8.068945556640625,3.5251259803771973,0.04901973903179169,0.09364020824432373
1776445417814961700,8.093961669921875,3.4973881244659424,-0.7383446097373962,-0.775194525718689
1776445417839977700,8.118977783203125,3.605344772338867,-1.0977510213851929,-1.295446753501892
1776445417864993800,8.143993896484375,3.820168972015381,-1.3506733179092407,-1.2113516330718994
1776445417890010600,8.1690107421875,3.9517321586608887,-1.6112326383590698,-0.7808158993721008
1776445417915026700,8.194026611328125,3.9760212898254395,-1.8327032327651978,-0.3099847435951233
1776445417940042800,8.219042724609375,4.022549152374268,-1.350211262702942,0.20246495306491852
1776445417965058800,8.244058837890625,3.9858598709106445,-0.3798714280128479,0.6170656085014343
1776445417990074600,8.26907470703125,3.6450753211975098,0.5344895124435425,0.7072935104370117
1776445418015090700,8.294090576171875,3.261366128921509,0.7861345410346985,0.7047634720802307
1776445418040106800,8.319106689453125,2.7292838096618652,0.961238443851471,0.6947172284126282
1776445418065122600,8.34412255859375,2.0139856338500977,0.9227283000946045,0.7806047201156616
1776445418090138600,8.369138671875,1.1703191995620728,0.5929160714149475,0.8448726534843445
1776445418115154700,8.39415478515625,0.5060805082321167,0.09236561506986618,0.6767094731330872
1776445418140170800,8.419170654296876,0.11581448465585709,-0.1970566064119339,0.2122800350189209
1776445418165186600,8.4441865234375,-0.030468693003058434,-0.21762579679489136,-0.2336535006761551
1776445418190202600,8.46920263671875,-0.07324918359518051,-0.1537807732820511,-0.5152367353439331
1776445418215218700,8.49421875,0.15122653543949127,-0.1671445220708847,-0.5315696001052856
1776445418240234500,8.519234375,0.8374330997467041,-0.23745250701904297,-0.42281490564346313
1776445418265250600,8.54425048828125,1.6226145029067993,-0.29738932847976685,-0.2711220383644104
1776445418290267000,8.569266845703124,2.302581787109375,-0.24310532212257385,-0.1092684343457222
1776445418315283000,8.594282958984374,3.194751739501953,-0.19053718447685242,0.18107657134532928
1776445418340298800,8.619298828125,3.6388180255889893,-0.38249489665031433,0.23796196281909943
1776445418365314800,8.644314697265624,3.2648682594299316,0.3038216829299927,-0.33365148305892944
1776445418390331000,8.669330810546874,2.6928794384002686,1.9337854385375977,-0.393307089805603
1776445418415346700,8.6943466796875,2.6578023433685303,2.337305784225464,0.17620672285556793
1776445418440362800,8.71936279296875,2.7418580055236816,1.926085114479065,0.3664320409297943
1776445418465378800,8.74437890625,2.589041233062744,1.3166002035140991,0.575466513633728
1776445418490395000,8.769394775390625,2.2343506813049316,0.4512484073638916,0.33939963579177856
1776445418515410700,8.79441064453125,1.961416482925415,-0.06628847867250443,-0.25937724113464355
1776445418540426800,8.8194267578125,1.8926153182983398,-0.8183883428573608,-0.7927271723747253
1776445418565442800,8.84444287109375,1.8582355976104736,-1.2012616395950317,-0.6516786813735962
1776445418590458600,8.869458740234375,1.8479455709457397,-1.0413037538528442,-0.43116843700408936
1776445418615474700,8.894474609375,1.95124089717865,-0.7394199967384338,-0.6207077503204346
1776445418640490800,8.91949072265625,2.1628308296203613,-0.4890647530555725,-0.5761845111846924
1776445418665508000,8.944508056640625,2.126858711242676,-0.25579342246055603,-0.4294048845767975
1776445418690524200,8.969524169921876,1.69405198097229,-0.274399071931839,-0.3750409781932831
1776445418715540000,8.9945400390625,0.8714893460273743,-0.2792564034461975,-0.5060696005821228
1776445418740556000,9.01955615234375,-0.021214740350842476,-0.32862475514411926,-0.7844732403755188
1776445418765572000,9.044572021484376,-1.092220425605774,-0.4364399015903473,-1.1924729347229004
1776445418790588200,9.069588134765626,-2.0983870029449463,-0.3191670775413513,-1.5030566453933716
1776445418815604000,9.09460400390625,-0.9792730808258057,0.37364521622657776,-0.8140111565589905
1776445418840620000,9.1196201171875,1.152376651763916,0.8214978575706482,0.09758860617876053
1776445418865636000,9.144635986328124,1.5966018438339233,0.44126927852630615,0.2988247871398926
1776445418890652000,9.16965185546875,1.2778126001358032,0.1239917203783989,0.10708064585924149
1776445418915668000,9.19466796875,1.6744747161865234,-0.050445329397916794,0.04582953825592995
1776445418940684000,9.21968408203125,2.368898391723633,-0.04647109657526016,0.37266892194747925
1776445418965700000,9.2447001953125,2.338893413543701,-1.0416027307510376,0.7025583982467651
1776445418990716000,9.2697158203125,2.6205079555511475,-2.1979966163635254,1.0857415199279785
1776445419015732000,9.29473193359375,2.5126755237579346,-2.5587189197540283,0.4504910111427307
1776445419040748000,9.319748046875,2.0440990924835205,-2.1333320140838623,-0.29230961203575134
1776445419065763800,9.344763916015625,1.5837438106536865,-0.8154945373535156,0.3581506907939911
1776445419090780000,9.36977978515625,1.9163342714309692,0.2493421882390976,1.0433071851730347
1776445419115796000,9.3947958984375,2.2533929347991943,-0.07269737124443054,1.6298418045043945
1776445419140812000,9.41981201171875,1.877422571182251,-0.5669664740562439,0.7360337972640991
1776445419165828000,9.444828125,2.0663001537323,-0.10131676495075226,-0.2574232816696167
1776445419190845000,9.469844970703125,2.6225473880767822,-0.3037976920604706,0.061173077672719955
1776445419215861000,9.494861083984375,2.3828632831573486,-0.6849749088287354,0.7991619110107422
1776445419240877000,9.519876953125,1.402826189994812,-0.6833016276359558,0.26019591093063354
1776445419265892900,9.544892822265625,0.5491622090339661,0.18242919445037842,-0.43718719482421875
1776445419290909000,9.569908935546875,0.28854578733444214,0.8515905141830444,-0.5681688785552979
1776445419315925200,9.59492529296875,0.3586407005786896,0.9211632013320923,-0.24468964338302612
1776445419340941000,9.619941162109376,0.4068857431411743,0.438178151845932,-0.07479381561279297
1776445419365957000,9.64495703125,0.8510445356369019,-0.35090821981430054,-0.26189684867858887
1776445419390973200,9.66997314453125,1.1192169189453125,-0.4522888958454132,-0.48727405071258545
1776445419415989200,9.6949892578125,0.6620136499404907,0.46751391887664795,-0.5253868103027344
1776445419441005000,9.720005126953126,0.6655974388122559,1.054871916770935,-0.5666218996047974
1776445419466021000,9.745021240234376,1.821451187133789,0.9789742827415466,-0.3701927065849304
1776445419491037200,9.770037109375,2.6602632999420166,1.5280307531356812,0.5463573336601257
1776445419516053000,9.795052978515624,3.2995781898498535,0.6508403420448303,0.5354764461517334
1776445419541069000,9.820069091796874,3.2515928745269775,0.24024322628974915,0.45668870210647583
1776445419566085000,9.845085205078124,1.803215742111206,-0.20225030183792114,0.25529834628105164
1776445419591101000,9.870100830078124,1.6267602443695068,0.4628656506538391,-0.08849071711301804
1776445419616117000,9.895116943359374,2.588489055633545,1.0131831169128418,-0.0789872258901596
1776445419641133000,9.920133056640625,3.2715983390808105,1.67463219165802,-0.05164135619997978
1776445419666149000,9.945149169921875,3.508864402770996,2.1447064876556396,-0.074643075466156
1776445419691166200,9.970166259765625,3.9784297943115234,1.854121208190918,-0.1973506212234497
1776445419716182300,9.995182373046875,3.6139724254608154,0.19312019646167755,-0.4574309289455414
1776445419741198300,10.0201982421875,2.3055195808410645,-1.1023627519607544,0.0807502418756485
1776445419766214100,10.045214111328125,1.8080575466156006,-2.450195550918579,0.18177779018878937
1776445419791230200,10.070230224609375,2.183710813522339,-3.029433250427246,-0.13706091046333313
1776445419816246300,10.095246337890625,2.785351276397705,-2.8185441493988037,-0.3191867768764496
1776445419841262000,10.120261962890625,2.451107978820801,-2.5478789806365967,-0.5018322467803955
1776445419866278100,10.145278076171875,1.5283117294311523,-1.4689359664916992,-0.5572984218597412
1776445419891294200,10.170294189453125,0.9360081553459167,-0.5057779550552368,-0.15528786182403564
1776445419916310300,10.195310302734375,0.6637004613876343,0.2902832329273224,0.15173733234405518
1776445419941326000,10.220326171875,0.591901957988739,0.9760541319847107,0.09211980551481247
1776445419966342100,10.245342041015626,0.6559892892837524,1.3886598348617554,-0.10445690155029297
1776445419991358200,10.270358154296876,0.7732017040252686,1.5452361106872559,-0.1251283586025238
1776445420016374000,10.2953740234375,0.8138782978057861,1.7552508115768433,-0.039562057703733444
1776445420041390000,10.32039013671875,1.503081202507019,1.8878560066223145,0.1598099023103714
1776445420066406100,10.34540625,2.5384647846221924,1.6177794933319092,0.32336553931236267
1776445420091422200,10.370422119140626,2.4514245986938477,0.9077818393707275,0.6570079326629639
1776445420116439000,10.39543896484375,2.056363105773926,-0.08819643408060074,0.7425588369369507
1776445420141455000,10.420455078125,2.3750667572021484,-0.3344440162181854,0.30618682503700256
1776445420166471200,10.44547119140625,2.3211443424224854,-0.741938054561615,-0.09545834362506866
1776445420191487200,10.4704873046875,2.0019021034240723,-1.5316637754440308,-0.5849316120147705
1776445420216503000,10.4955029296875,1.960663914680481,-1.1669143438339233,-0.649588942527771
1776445420241519000,10.52051904296875,2.2308149337768555,-0.23506471514701843,-0.06034696474671364
1776445420266535200,10.54553515625,2.5768041610717773,0.48304256796836853,0.4067682921886444
1776445420291551200,10.57055126953125,2.508498430252075,0.5813360810279846,0.5723716616630554
1776445420316567300,10.5955673828125,2.3772993087768555,0.210948184132576,0.3504253923892975
1776445420341583400,10.620583251953125,2.645354986190796,0.04418370500206947,-0.17611244320869446
1776445420366599400,10.645599365234375,2.9112181663513184,-0.40999045968055725,-0.26123613119125366
1776445420391615200,10.670615234375,3.080634355545044,-0.3864222764968872,-0.04374481737613678
1776445420416631300,10.69563134765625,2.549474000930786,-0.45471104979515076,-0.05831470713019371
1776445420441647400,10.7206474609375,2.0311362743377686,-0.5056948661804199,0.030880417674779892
1776445420466663200,10.7456630859375,1.3948532342910767,-0.5770377516746521,0.6205695271492004
1776445420491679200,10.77067919921875,0.8151227831840515,-0.043901942670345306,0.6817732453346252
1776445420516695300,10.7956953125,-0.1206585094332695,1.0553537607192993,1.1449885368347168
1776445420541712400,10.82071240234375,-0.8756580352783203,1.549804449081421,1.481795310974121
1776445420566728200,10.845728271484376,-0.09206414967775345,1.0177803039550781,1.562479853630066
1776445420591744300,10.870744140625,1.8192296028137207,-0.9345977902412415,0.7754096984863281
1776445420616760300,10.89576025390625,2.41959810256958,-0.5079966187477112,0.6203761696815491
1776445420641776400,10.9207763671875,2.4914093017578125,-0.08911549299955368,0.44928058981895447
1776445420666791700,10.945791748046876,1.7312978506088257,0.3622964322566986,0.2053065448999405
1776445420691807700,10.970807861328124,1.5051206350326538,0.5782310962677002,0.19225333631038666
1776445420716823800,10.99582373046875,1.5749313831329346,0.7016127109527588,0.02846812643110752
1776445420741839600,11.020839599609374,1.850446343421936,0.6015830636024475,-0.414902925491333
1776445420766855700,11.045855712890624,1.9158663749694824,0.36148497462272644,-0.5196455717086792
1776445420791871700,11.070871826171874,1.5893548727035522,-0.03436170145869255,-0.4612882733345032
1776445420816887600,11.095887451171874,1.3495185375213623,-0.6742335557937622,-0.49232447147369385
1776445420841903600,11.120903564453124,1.4661422967910767,-1.0703308582305908,-0.6778343915939331
1776445420866919700,11.145919677734375,1.542090654373169,-0.582800567150116,-0.8588712811470032
1776445420891935700,11.170935791015625,1.3863638639450073,0.18557971715927124,-0.9130905866622925
1776445420916952600,11.19595263671875,1.2859866619110107,0.7019495964050293,-0.6677109599113464
1776445420941968600,11.22096875,1.2386833429336548,0.711078941822052,-0.5455701351165771
1776445420966984700,11.245984619140625,1.3492841720581055,0.558887779712677,-0.7279748320579529
1776445420992000800,11.271000732421875,1.648496150970459,0.3917113244533539,-0.8541098237037659
1776445421017016600,11.2960166015625,1.8723100423812866,-0.22428317368030548,-0.4745073914527893
1776445421042032600,11.32103271484375,2.0716376304626465,-0.9164126515388489,-0.32712221145629883
1776445421067048700,11.346048583984375,2.359102487564087,-0.9111227989196777,-0.27798527479171753
1776445421092064500,11.371064453125,3.005204439163208,-0.39590391516685486,-0.1642049252986908
1776445421117080600,11.39608056640625,3.437195301055908,0.07267047464847565,-0.11343388259410858
1776445421142096600,11.4210966796875,3.8298869132995605,0.16909128427505493,-0.1973080039024353
1776445421167112700,11.44611279296875,4.142748832702637,0.05494900420308113,-0.24529550969600677
1776445421192128800,11.471128662109376,4.3000593185424805,-0.18212053179740906,-0.1761300265789032
1776445421217144800,11.496144775390626,4.397356033325195,-0.3452087938785553,-0.12933535873889923
1776445421242161700,11.52116162109375,4.740454196929932,-0.979089081287384,0.16119980812072754
1776445421267177700,11.546177734375,4.985710144042969,-1.2608683109283447,0.6829553842544556
1776445421292193500,11.571193603515624,4.664186477661133,-0.3631177544593811,1.0201339721679688
1776445421317209600,11.596209716796874,3.920269012451172,1.0382927656173706,1.1698483228683472
1776445421342225700,11.6212255859375,3.4317142963409424,1.81758713722229,1.3351819515228271
1776445421367241700,11.64624169921875,2.995861768722534,2.139106035232544,1.2874932289123535
1776445421392257800,11.6712578125,2.3052268028259277,1.9705173969268799,0.7855983972549438
1776445421417273900,11.69627392578125,1.3092217445373535,1.3098851442337036,0.29113730788230896
1776445421442290000,11.7212900390625,0.6760013699531555,0.515254020690918,0.2334122210741043
1776445421467305700,11.7463056640625,1.1131656169891357,-0.8081487417221069,0.15321750938892365
1776445421492321800,11.77132177734375,2.3371214866638184,-0.823462963104248,0.06306019425392151
1776445421517337900,11.796337890625,2.403622627258301,0.22250205278396606,-0.26414695382118225
1776445421542353700,11.821353759765625,2.4594104290008545,1.6121752262115479,-0.35111647844314575
1776445421567370800,11.846370849609375,2.878302574157715,2.0811071395874023,-0.061820223927497864
1776445421592386800,11.87138671875,3.1078319549560547,1.9974759817123413,0.1737222522497177
1776445421617403000,11.89640283203125,2.756654739379883,1.2551771402359009,-0.15602421760559082
1776445421642418700,11.921418701171875,2.393483877182007,-0.29165154695510864,-0.8223665356636047
1776445421667434800,11.946434814453125,2.016602039337158,-2.094947338104248,-1.2521626949310303
1776445421692450800,11.971450927734375,1.8151421546936035,-3.2234668731689453,-1.2128608226776123
1776445421717467000,11.996466796875,2.0701241493225098,-2.683213949203491,-0.9860995411872864
1776445421742483000,12.02148291015625,2.551279067993164,-1.2343008518218994,-0.9891243577003479
1776445421767498800,12.046498779296876,3.012927532196045,0.18871399760246277,-0.5456662774085999
1776445421792514800,12.071514892578126,2.959275484085083,0.7584400177001953,-0.26121190190315247
1776445421817531000,12.09653076171875,2.3535923957824707,0.8175555467605591,-0.17006386816501617
1776445421842546700,12.121546630859376,1.608970284461975,0.5147163271903992,-0.5429772734642029
1776445421867562800,12.146562744140626,0.8694280982017517,-0.26875370740890503,-0.9236998558044434
1776445421892578800,12.171578857421874,0.3805830180644989,-0.7983294129371643,-0.9237200617790222
1776445421917596000,12.196595947265624,-1.0958853960037231,-0.957724392414093,-1.0127021074295044
1776445421942611700,12.22161181640625,-0.42376405000686646,-0.11326158046722412,-0.37708309292793274
1776445421967627800,12.246627685546875,2.0766637325286865,0.7030971646308899,0.8074871897697449
1776445421992643800,12.271643798828125,3.759789228439331,0.2715521454811096,0.981117308139801
1776445422017660000,12.296659912109375,3.731104850769043,-1.0277889966964722,0.6775718331336975
1776445422042675700,12.32167578125,2.6958250999450684,-2.190546751022339,0.3660464286804199
1776445422067691800,12.34669189453125,2.4488942623138428,-1.6202014684677124,0.5194706320762634
1776445422092707800,12.371707763671875,2.0467019081115723,-0.39690181612968445,0.7270339131355286
1776445422117723600,12.3967236328125,1.5035113096237183,0.5043123960494995,0.8782865405082703
1776445422142739700,12.42173974609375,1.4558849334716797,1.2995959520339966,0.6113930940628052
1776445422167755800,12.446755859375,1.3659409284591675,1.3162732124328613,0.4625689685344696
1776445422192772900,12.47177294921875,1.5115950107574463,1.0611019134521484,0.7302685976028442
1776445422217788700,12.49678857421875,1.8640094995498657,0.6458301544189453,0.48663169145584106
1776445422242804700,12.5218046875,2.280872344970703,0.43942636251449585,-0.24561668932437897
1776445422267820800,12.54682080078125,2.067650079727173,-0.27595382928848267,-0.3037734627723694
1776445422292836900,12.5718369140625,1.6936620473861694,-0.8577083349227905,0.1312757283449173
1776445422317852700,12.596852783203126,1.886480450630188,-0.8557647466659546,0.1367591768503189
1776445422342868700,12.62186865234375,1.7041854858398438,-0.6828515529632568,0.44097551703453064
1776445422367884800,12.646884765625,1.6900449991226196,-0.2955259382724762,0.42857345938682556
1776445422392900600,12.671900634765626,2.3152925968170166,0.5835548043251038,0.47050386667251587
1776445422417916700,12.696916748046876,2.3442888259887695,0.8328325152397156,-0.1094263568520546
1776445422442932700,12.7219326171875,2.0558385848999023,0.9338619112968445,-0.2642947733402252
1776445422467948800,12.74694873046875,2.2590510845184326,1.033028244972229,-0.2150617092847824
1776445422492965600,12.771965576171874,2.9226789474487305,1.0941104888916016,0.05825425311923027
1776445422517981700,12.796981689453125,3.565916061401367,0.4025658369064331,0.27193936705589294
1776445422542997800,12.821997802734375,4.047972679138184,-0.42343515157699585,0.12894946336746216
1776445422568013800,12.847013916015625,4.259241580963135,-1.0382405519485474,-0.048340633511543274
1776445422593029600,12.872029541015625,4.2582316398620605,-1.5941221714019775,-0.004072505980730057
1776445422618045700,12.897045654296875,3.6603806018829346,-1.5164155960083008,0.17175684869289398
1776445422643061800,12.922061767578125,2.428964376449585,-0.9114165306091309,0.04342284053564072
1776445422668077300,12.947077392578125,1.2754781246185303,-0.19796660542488098,-0.25218138098716736
1776445422693093400,12.97209326171875,0.6693415641784668,0.2200242429971695,-0.28059065341949463
1776445422718109400,12.997109375,0.4858846962451935,0.7422730326652527,-0.15436720848083496
1776445422743125500,13.02212548828125,0.4666987359523773,0.6864774227142334,0.2758033573627472
1776445422768142300,13.047142333984375,0.8268632888793945,0.2268267571926117,0.16654929518699646
1776445422793158400,13.072158447265625,1.3146257400512695,0.17150570452213287,0.0023694143164902925
1776445422818174500,13.097174560546875,1.6474287509918213,-0.043770384043455124,-0.2726648151874542
1776445422843190500,13.1221904296875,1.9999239444732666,-0.4947969615459442,-0.6470637321472168
1776445422868206300,13.147206298828126,2.2158544063568115,-0.2626582682132721,-0.8761765360832214
1776445422893222400,13.172222412109376,1.9675135612487793,0.5299605131149292,-0.9532630443572998
1776445422918238500,13.197238525390626,1.2018531560897827,0.49149036407470703,-1.200844407081604
1776445422943254300,13.222254150390626,1.617995262145996,0.8033337593078613,-0.9282128214836121
1776445422968270300,13.247270263671876,1.5953642129898071,-0.228241965174675,0.7992109060287476
1776445422993286400,13.272286376953126,2.0963823795318604,-0.39249056577682495,1.2930989265441895
1776445423018302500,13.297302490234374,2.8494768142700195,-0.7478518486022949,1.165959119796753
1776445423043319300,13.3223193359375,2.805396318435669,-1.4032142162322998,0.6632746458053589
1776445423068335400,13.34733544921875,2.42059588432312,-1.110145092010498,-0.15369129180908203
1776445423093351400,13.372351318359375,2.4483096599578857,-0.5344005823135376,-0.28400108218193054
1776445423118367500,13.397367431640625,2.806257724761963,-0.2036716341972351,0.20820167660713196
1776445423143383300,13.42238330078125,3.159986972808838,-0.13824336230754852,0.42538726329803467
1776445423168399400,13.4473994140625,3.4376220703125,-0.1695070117712021,0.5662112236022949
1776445423193415400,13.47241552734375,3.7058024406433105,-0.3384512960910797,0.7548229098320007
1776445423218431200,13.49743115234375,3.8093373775482178,-0.42952394485473633,0.9661716818809509
1776445423243447300,13.522447265625,2.951894760131836,0.08094092458486557,0.8039654493331909
1776445423268463400,13.54746337890625,2.2232465744018555,0.5931655764579773,0.36453667283058167
1776445423293480400,13.57248046875,2.0424821376800537,0.038121819496154785,-0.013155749067664146
1776445423318496300,13.597496337890625,2.067347764968872,-0.9253989458084106,-0.031189877539873123
1776445423343512300,13.62251220703125,1.8571125268936157,-1.203863263130188,0.5020013451576233
1776445423368528400,13.6475283203125,1.1316030025482178,-0.21487155556678772,0.8542110323905945
1776445423393544400,13.67254443359375,0.3236270546913147,0.8698483109474182,1.5615639686584473
1776445423418560300,13.697560302734376,-1.0835249423980713,1.7177010774612427,1.7495665550231934
1776445423443576300,13.722576416015626,-1.368580937385559,2.1132636070251465,1.5713188648223877
1776445423468592400,13.74759228515625,1.1146825551986694,-0.09913989901542664,0.6649495363235474
1776445423493608200,13.772608154296876,2.3165454864501953,-0.6561131477355957,0.4669746458530426
1776445423518624300,13.797624267578126,2.371624231338501,-1.719028115272522,-0.018026670441031456
1776445423543640300,13.822640380859376,3.0452187061309814,-0.8056032657623291,-0.07709531486034393
1776445423568657400,13.847657470703124,2.5124599933624268,0.7299261093139648,-0.06424103677272797
1776445423593673200,13.872673095703124,1.930389642715454,1.6848278045654297,0.5817906856536865
1776445423618689300,13.897689208984374,1.9160666465759277,1.2946605682373047,0.32952436804771423
1776445423643705300,13.922705322265625,1.8668886423110962,0.31404101848602295,-0.20212461054325104
1776445423668722200,13.94772216796875,1.785452961921692,-0.9137529134750366,-0.48681411147117615
1776445423693738200,13.97273828125,1.6435335874557495,-1.5524548292160034,-0.4777356684207916
1776445423718754000,13.997754150390625,1.3584952354431152,-1.461900234222412,-0.292297899723053
1776445423743770000,14.02277001953125,1.3046543598175049,-1.2297601699829102,-0.1731419563293457
1776445423768786200,14.0477861328125,1.4868031740188599,-0.5102576613426208,-0.3275350034236908
1776445423793802200,14.07280224609375,1.4861485958099365,0.5963174700737,-0.5257708430290222
1776445423818819300,14.0978193359375,1.2712609767913818,1.3857403993606567,-0.5714430212974548
1776445423843835100,14.122835205078125,1.03791081905365,1.6363284587860107,-0.5402981042861938
1776445423868851200,14.147851318359375,0.7017812728881836,1.286789894104004,-0.41979700326919556
1776445423893867300,14.1728671875,1.3308238983154297,0.8885658383369446,-0.086699478328228
1776445423918883000,14.197883056640626,2.7912561893463135,0.10791607946157455,0.016471916809678078
1776445423943899100,14.222899169921876,3.2150888442993164,-0.02093830518424511,-0.3290276825428009
1776445423968915200,14.247915283203126,3.326744556427002,0.6513586044311523,-0.41028445959091187
1776445423993931000,14.272930908203126,3.7614192962646484,1.3006465435028076,-0.1559661626815796
1776445424018947000,14.297947021484376,4.321375846862793,1.398488163948059,0.12518322467803955
1776445424043964200,14.322964111328124,4.724399566650391,1.0973848104476929,0.2514854967594147
1776445424068980200,14.347980224609374,4.754676342010498,0.8021952509880066,-0.09634783864021301
1776445424093996300,14.372996337890624,4.75632905960083,0.31225937604904175,-0.3204168975353241
1776445424119012000,14.39801220703125,4.746637344360352,-0.18831345438957214,-0.4522939622402191
1776445424144028200,14.423028076171875,4.654969692230225,-0.5385262966156006,-0.3407011330127716
1776445424169044200,14.448044189453125,4.232830047607422,-0.4581787586212158,-0.2137269377708435
1776445424194060000,14.47306005859375,3.2108664512634277,-0.13869769871234894,0.03620700538158417
1776445424219076000,14.498076171875,2.346118927001953,0.07762235403060913,0.423613041639328
1776445424244092200,14.523092041015625,2.0094919204711914,-0.1995203047990799,0.7761556506156921
1776445424269108000,14.54810791015625,2.0863091945648193,-0.11634711921215057,0.8509955406188965
1776445424294125000,14.573125,1.8158001899719238,0.14440245926380157,0.6378105878829956
1776445424319141000,14.59814111328125,1.207743763923645,0.6937337517738342,0.4752746522426605
1776445424344157200,14.6231572265625,1.2074003219604492,1.4320688247680664,0.6449291706085205
1776445424369173200,14.64817333984375,1.935787558555603,1.597550392150879,0.6831799149513245
1776445424394189000,14.67318896484375,2.6256165504455566,0.8338930010795593,0.36888429522514343
1776445424419205000,14.698205078125,2.4423000812530518,0.4982782304286957,0.21600845456123352
1776445424444221200,14.72322119140625,1.5740690231323242,-0.2160167247056961,0.08390901237726212
1776445424469237000,14.748237060546876,1.0338423252105713,-0.8296473622322083,-0.43294984102249146
1776445424494253000,14.773253173828126,1.1982663869857788,-1.209364891052246,-0.941969633102417
1776445424519269000,14.79826904296875,1.65895414352417,-1.2990859746932983,-1.2601490020751953
1776445424544286200,14.8232861328125,1.8930635452270508,-0.9483346343040466,-0.9848220348358154
1776445424569302000,14.848302001953124,2.0324745178222656,-0.3475648760795593,-0.5082690715789795
1776445424594318000,14.873318115234374,2.370129108428955,0.05766436085104942,-0.40090322494506836
1776445424619334100,14.898334228515624,2.5574426651000977,0.447407603263855,-0.40121161937713623
1776445424644350000,14.923349853515624,2.40596604347229,0.5437549352645874,-0.4031567871570587
1776445424669369000,14.948369140625,2.1397626399993896,0.32469606399536133,-0.5848610401153564
1776445424694385200,14.97338525390625,1.748526930809021,0.11537346243858337,-0.6544675827026367
1776445424719401200,14.998401123046875,1.4929766654968262,0.08122241497039795,-0.3893751800060272
1776445424744417300,15.023417236328125,1.0935882329940796,0.1554092913866043,-0.35426726937294006
1776445424769433900,15.048433837890625,0.6252838373184204,0.4425177574157715,-0.835561215877533
1776445424794450000,15.073449951171876,0.3475409150123596,-0.16524861752986908,-1.2571550607681274
1776445424819466200,15.09846630859375,0.28800222277641296,-0.5043286681175232,-1.3126952648162842
1776445424844482300,15.123482421875,0.2668846845626831,-0.2537044286727905,-1.524241328239441
1776445424869498000,15.148498046875,0.046002112329006195,-0.5056431889533997,-1.61054265499115
1776445424894514200,15.17351416015625,0.3745861351490021,-0.21323958039283752,-0.2836058735847473
1776445424919530200,15.1985302734375,0.2976814806461334,0.2641696035861969,0.282360315322876
1776445424944546000,15.223546142578124,0.9412274360656738,0.34028273820877075,0.39759504795074463
1776445424969562000,15.24856201171875,1.1819462776184082,-0.31030887365341187,0.9660755395889282
1776445424994579200,15.2735791015625,1.6658639907836914,-2.074289321899414,0.8085170388221741
1776445425019595300,15.29859521484375,2.1959192752838135,-2.453235626220703,0.39616623520851135
1776445425044611000,15.323611083984375,2.6360971927642822,-1.5228359699249268,-0.008212922140955925
1776445425069627100,15.348627197265625,2.611137628555298,-0.10488566756248474,0.4455692172050476
1776445425094643200,15.373643310546875,1.0597442388534546,0.6191564798355103,0.2963906526565552
1776445425119659300,15.3986591796875,0.22337263822555542,1.5316624641418457,-0.15186941623687744
1776445425144675000,15.423675048828125,0.3922037184238434,1.4366384744644165,-0.4435289800167084
1776445425169691100,15.448691162109375,0.9998489618301392,0.951518177986145,-0.4169207811355591
1776445425194707200,15.473707275390625,1.6504184007644653,-0.022526880726218224,-0.23815424740314484
1776445425219724300,15.498724365234375,1.7736111879348755,-0.9179918766021729,0.12484952062368393
1776445425244740000,15.523739990234375,1.544994592666626,-1.057998776435852,0.07854993641376495
1776445425269756200,15.548756103515625,1.5525983572006226,-0.6197199821472168,0.2487512230873108
1776445425294772200,15.573772216796876,1.5508577823638916,-0.4029533267021179,0.36626294255256653
1776445425319788000,15.5987880859375,1.2464038133621216,-0.5217710733413696,0.34965068101882935
1776445425344804000,15.62380419921875,0.9740492701530457,-0.410603791475296,0.35260891914367676
1776445425369820200,15.648820068359376,1.099976897239685,-0.49691683053970337,0.33952879905700684
1776445425394836200,15.673836181640626,1.4695380926132202,-0.8162927031517029,0.3767520785331726
1776445425419852000,15.69885205078125,1.8725001811981201,-0.8782370090484619,0.29758429527282715
1776445425444869000,15.723869140625,1.9969793558120728,-0.7808178067207336,0.41120484471321106
1776445425469885200,15.74888525390625,2.3943076133728027,-0.9451596140861511,0.6738178133964539
1776445425494901200,15.7739013671875,2.0255892276763916,-0.200092613697052,0.9558167457580566
1776445425519917000,15.7989169921875,1.5177496671676636,0.7943314909934998,0.7047038674354553
1776445425544933000,15.82393310546875,1.4692398309707642,1.0311315059661865,0.5114547610282898
1776445425569949200,15.84894921875,1.757952094078064,0.6116002798080444,0.6477433443069458
1776445425594965000,15.873965087890625,2.0750999450683594,-0.07204143702983856,0.5730395317077637
1776445425619981000,15.89898095703125,2.7151498794555664,-0.39594414830207825,0.5022923946380615
1776445425644998100,15.923998046875,3.2439393997192383,-0.8629933595657349,0.210795596241951
1776445425670014500,15.949014404296875,3.4297783374786377,-0.5925871729850769,-0.03825870528817177
1776445425695030300,15.9740302734375,2.9128305912017822,0.025076324120163918,0.2482747882604599
1776445425720046300,15.99904638671875,2.474439859390259,0.7082985639572144,0.7207933068275452
1776445425745062400,16.0240625,2.4381234645843506,0.7622635364532471,0.43577277660369873
1776445425770078200,16.049078125,2.2654531002044678,0.6176243424415588,0.07735737413167953
1776445425795094300,16.07409423828125,1.7667226791381836,-0.13483451306819916,-0.21701966226100922
1776445425820110300,16.0991103515625,1.7774200439453125,-0.3873772919178009,0.03795510530471802
1776445425845126400,16.12412646484375,1.9763963222503662,-0.8832738399505615,0.06773936748504639
1776445425870143500,16.1491435546875,1.7053594589233398,-0.71122807264328,0.11635830253362656
1776445425895159300,16.1741591796875,1.0398647785186768,-0.12367133796215057,0.059246812015771866
1776445425920175400,16.19917529296875,0.788042426109314,0.25514253973960876,0.014366954565048218
1776445425945191400,16.22419140625,1.0015536546707153,0.42508286237716675,-0.1837807446718216
1776445425970207200,16.249207275390624,1.3503345251083374,0.5491270422935486,-0.31994497776031494
1776445425995223300,16.274223388671874,1.8183701038360596,0.5030932426452637,-0.14943982660770416
1776445426020239400,16.2992392578125,2.136573076248169,0.6487311124801636,0.15002012252807617
1776445426045255200,16.324255126953126,2.0107593536376953,0.7430347204208374,0.030293190851807594
1776445426070272300,16.349272216796876,1.8501688241958618,0.8890811204910278,-0.36177659034729004
1776445426095288300,16.374288330078127,2.291276693344116,0.6051668524742126,-0.05480492487549782
1776445426120304400,16.399304443359377,2.6549293994903564,0.797531008720398,0.2286432981491089
1776445426145320200,16.4243203125,3.0517730712890625,0.9964102506637573,0.18930494785308838
1776445426170336300,16.449336181640625,3.5836615562438965,0.3824232816696167,0.2336021065711975
1776445426195352300,16.474352294921875,3.824681282043457,-1.0556254386901855,0.9178230166435242
1776445426220368400,16.499368408203125,4.058237552642822,-1.682037591934204,0.9420540928840637
1776445426245384200,16.52438427734375,3.726745128631592,-2.1140472888946533,0.04448650777339935
1776445426270401300,16.5494013671875,2.937809467315674,-1.650363564491272,-0.881813108921051
1776445426295417300,16.574417236328124,2.159360885620117,-0.348517507314682,-0.7107143402099609
1776445426320433400,16.599433349609374,2.1027185916900635,0.603115975856781,0.11820387095212936
1776445426345449200,16.62444921875,2.350599765777588,0.8655688762664795,0.5365635752677917
1776445426370465300,16.64946533203125,2.272822618484497,0.7184340357780457,0.4479735195636749
1776445426395481300,16.6744814453125,2.374070882797241,-0.0030306773260235786,-0.09889435768127441
1776445426420497200,16.6994970703125,2.8538317680358887,-0.5614532232284546,-0.09445646405220032
1776445426445513200,16.72451318359375,3.0420987606048584,-0.15877020359039307,0.3461605906486511
1776445426470530300,16.7495302734375,2.853254556655884,0.0599815770983696,0.3470655381679535
1776445426495546400,16.77454638671875,2.510796070098877,-0.27378973364830017,0.22483789920806885
1776445426520562400,16.7995625,2.0857748985290527,-0.441165953874588,0.20152166485786438
1776445426545578200,16.824578125,1.7033647298812866,-0.43483561277389526,0.4317980110645294
1776445426570594300,16.84959423828125,1.0784492492675781,-0.1024017408490181,0.5966734886169434
1776445426595610400,16.8746103515625,0.2573535144329071,-0.16809925436973572,0.9190624952316284
1776445426620626200,16.899626220703126,-0.3617193102836609,0.43494588136672974,1.384446620941162
1776445426645642200,16.924642333984377,-0.47633084654808044,0.5372685194015503,1.0892632007598877
1776445426670660000,16.94966015625,0.7280115485191345,-0.9613625407218933,0.48315146565437317
1776445426695676000,16.974676025390625,1.1948413848876953,-0.8313922882080078,0.6842081546783447
1776445426720692000,16.99969189453125,1.6020528078079224,-0.2151368111371994,0.7500545382499695
1776445426745708000,17.0247080078125,1.6172133684158325,0.30345627665519714,0.7299495339393616
1776445426770724000,17.04972412109375,1.9048576354980469,0.7093116641044617,0.47155633568763733
1776445426795740000,17.074739990234374,2.456361770629883,1.063694715499878,0.24380627274513245
1776445426820756000,17.099755859375,2.7767367362976074,1.6792160272598267,-0.060797303915023804
1776445426845772000,17.12477197265625,2.3005130290985107,0.9970134496688843,-0.3906998336315155
1776445426870789000,17.1497890625,1.7848795652389526,0.48303377628326416,-0.4815424084663391
1776445426895805000,17.174804931640626,1.5564088821411133,-0.023601200431585312,-0.750230610370636
1776445426920821000,17.199821044921876,1.6933085918426514,-0.2160273641347885,-0.7384652495384216
1776445426945837000,17.224837158203126,1.8046666383743286,-0.3868907392024994,-0.4066772162914276
1776445426970852900,17.249852783203124,1.8987400531768799,-0.33736738562583923,-0.37659868597984314
1776445426995869000,17.274868896484374,2.0792465209960938,-0.0017265273490920663,-0.3924948275089264
1776445427020885000,17.299885009765624,2.0365874767303467,0.16668058931827545,-0.4048777222633362
1776445427045901000,17.324901123046875,1.854249119758606,0.1337926834821701,-0.446811318397522
1776445427070918000,17.34991796875,1.636900782585144,0.21302305161952972,-0.5039103031158447
1776445427095934000,17.374933837890627,1.3446859121322632,0.2993963062763214,-0.4977879524230957
1776445427120950000,17.399949951171877,1.4278011322021484,0.29621461033821106,-0.26510515809059143
1776445427145966000,17.424966064453123,1.4471724033355713,0.32794299721717834,-0.08297371119260788
1776445427170982000,17.44998193359375,1.3070714473724365,0.22973492741584778,0.005529521498829126
1776445427195998000,17.474998046875,2.077709197998047,0.13368216156959534,0.22500009834766388
1776445427221014000,17.500013916015625,2.7658944129943848,-0.022058697417378426,0.3183068633079529
1776445427246029800,17.52502978515625,2.79609751701355,0.4158414304256439,0.6313036680221558
1776445427271047000,17.550046875,3.315394401550293,1.0594520568847656,1.0510090589523315
1776445427296063000,17.57506298828125,3.813502550125122,0.7475064396858215,0.7829328775405884
1776445427321079000,17.6000791015625,3.6567752361297607,0.49590030312538147,0.15604233741760254
1776445427346094800,17.6250947265625,3.3440120220184326,0.02779354713857174,-0.42301225662231445
1776445427371111000,17.65011083984375,2.9832046031951904,-0.049138784408569336,-0.7621932625770569
1776445427396127000,17.675126953125,2.517806053161621,-0.3938591480255127,-0.6842440962791443
1776445427421143000,17.70014306640625,2.1576528549194336,-0.8938996195793152,-0.5450150966644287
1776445427446160100,17.72516015625,1.9350967407226562,-1.0245788097381592,-0.33256995677948
1776445427471176000,17.750176025390626,1.8238743543624878,-0.9189003109931946,-0.006465356331318617
1776445427496192000,17.77519189453125,1.9021267890930176,-0.2997930943965912,0.3724723756313324
1776445427521208000,17.8002080078125,1.9161020517349243,0.37270593643188477,0.7232306599617004
1776445427546223900,17.825223876953125,1.9357918500900269,0.634277880191803,0.811127781867981
1776445427571240000,17.850239990234375,1.7779572010040283,0.45771509408950806,0.5911306738853455
1776445427596256000,17.875256103515625,1.2708767652511597,0.24421533942222595,0.47924861311912537
1776445427621271800,17.900271728515627,0.8806575536727905,-0.15882906317710876,0.2698381245136261
1776445427646289000,17.925288818359373,0.7286770939826965,-0.2520197331905365,-0.1834619641304016
1776445427671301000,17.950301025390626,1.099755048751831,-0.5658540725708008,0.011864649131894112
1776445427696317000,17.97531689453125,1.8817552328109741,-0.07052556425333023,0.40323346853256226
1776445427721333000,18.0003330078125,2.5739517211914062,0.8549455404281616,0.33259525895118713
1776445427746349000,18.02534912109375,2.791402578353882,1.3347268104553223,0.018161959946155548
1776445427771364900,18.05036474609375,3.3420450687408447,1.5281721353530884,-0.18950255215168
1776445427796381000,18.075380859375,3.787395715713501,1.6113519668579102,-0.06962408870458603
1776445427821397000,18.10039697265625,3.544457197189331,1.2416183948516846,0.028552815318107605
1776445427846414000,18.1254140625,3.1111364364624023,0.7941991090774536,-0.06374648958444595
1776445427871430100,18.15043017578125,2.680774688720703,0.674243688583374,-0.277499258518219
1776445427896446000,18.175446044921873,2.5566763877868652,0.4352766275405884,-0.30461421608924866
1776445427921462000,18.2004619140625,2.753934144973755,-0.07431551069021225,-0.7128504514694214
1776445427946478000,18.22547802734375,2.8477470874786377,-0.6273826956748962,-0.8206051588058472
1776445427971494000,18.250493896484375,2.4574899673461914,-0.6382963061332703,-0.5139322876930237
1776445427996510000,18.275510009765625,1.8529257774353027,0.4665416181087494,-0.27868542075157166
1776445428021527000,18.300527099609376,1.853968620300293,1.1730371713638306,-0.2490263283252716
1776445428046543000,18.325543212890626,1.8359822034835815,0.9351516962051392,-0.5097801685333252
1776445428071559000,18.350558837890624,1.2510836124420166,0.019095662981271744,-0.541769802570343
1776445428096575000,18.375574951171874,0.5000388622283936,-0.4930107593536377,-0.08541583269834518
1776445428121591000,18.400591064453124,0.2774182856082916,-0.48512914776802063,0.037400636821985245
1776445428146607000,18.425607177734374,0.36826562881469727,-0.6678688526153564,-0.35579752922058105
1776445428171623000,18.450622802734376,0.5719375610351562,-0.9314061999320984,-0.35768091678619385
1776445428196640000,18.475639892578126,1.1215732097625732,-0.7302448749542236,-0.20029927790164948
1776445428221656000,18.500656005859376,1.5531699657440186,-0.9247065186500549,-0.7137823104858398
1776445428246672100,18.525672119140626,2.0536327362060547,-1.2406045198440552,-0.8265626430511475
1776445428271688000,18.55068798828125,1.9084182977676392,-1.225436806678772,-0.5714632272720337
1776445428296704000,18.5757041015625,1.7980103492736816,-0.9430415630340576,-0.2996112108230591
1776445428321720000,18.600719970703125,1.5543746948242188,-0.3146527409553528,0.14984089136123657
1776445428346735900,18.62573583984375,1.2212151288986206,-0.14614416658878326,0.16527125239372253
1776445428371752000,18.650751953125,1.34267258644104,-0.049243178218603134,-0.014134194701910019
1776445428396769000,18.67576904296875,1.8759351968765259,-0.19012519717216492,0.10661192983388901
1776445428421785000,18.70078515625,1.79703688621521,-0.5126672983169556,0.305220365524292
1776445428446801000,18.72580078125,1.695923089981079,-0.277842253446579,0.42036986351013184
1776445428471817000,18.75081689453125,1.7070544958114624,0.13463424146175385,-0.15729615092277527
1776445428496833000,18.7758330078125,1.5075454711914062,0.5039680600166321,-0.14620435237884521
1776445428521849000,18.80084912109375,1.6768196821212769,0.5196588635444641,0.18489688634872437
1776445428546865000,18.825864990234376,1.9238334894180298,0.2838956415653229,0.43161478638648987
1776445428571882000,18.850882080078126,2.113840103149414,0.015662848949432373,0.541100800037384
1776445428596898000,18.87589794921875,2.148732900619507,-0.2725470960140228,0.5685089826583862
1776445428621914000,18.9009140625,2.144758701324463,-0.34290647506713867,0.848567008972168
1776445428646930000,18.925929931640624,2.1281087398529053,-0.4888136386871338,0.9233754873275757
1776445428671945700,18.95094580078125,1.6291406154632568,-0.7018276453018188,0.7614994645118713
1776445428696961800,18.9759619140625,1.1436383724212646,-0.7122765183448792,0.5379012823104858
1776445428721977900,19.000977783203126,1.1999229192733765,-0.5058956742286682,0.5126950144767761
1776445428746994700,19.02599462890625,2.0690770149230957,-0.4418090879917145,0.32285207509994507
1776445428772010800,19.0510107421875,2.2892050743103027,-0.17861208319664001,0.5283213257789612
1776445428797026800,19.07602685546875,2.680738687515259,-0.15229445695877075,0.6800163388252258
1776445428822043000,19.10104296875,3.318063974380493,-0.34861522912979126,0.4448038339614868
1776445428847058700,19.12605859375,3.4777913093566895,0.2150510549545288,0.6759989857673645
1776445428872074800,19.15107470703125,3.621126651763916,0.5864371061325073,0.9828033447265625
1776445428897090800,19.1760908203125,3.622100830078125,0.4035376012325287,0.9792507290840149
1776445428922108000,19.20110791015625,3.5576324462890625,0.7809285521507263,1.1563119888305664
1776445428947123700,19.226123779296874,3.46930193901062,1.0341219902038574,1.0320593118667603
1776445428972139800,19.251139892578124,3.1293299198150635,0.6672813892364502,0.4752746522426605
1776445428997155800,19.27615576171875,2.2750244140625,0.43950653076171875,-0.13120009005069733
1776445429022171600,19.301171630859375,1.8987414836883545,0.4417547583580017,-0.38735997676849365
1776445429047187700,19.326187744140626,2.0999555587768555,0.35644814372062683,-0.5477363467216492
1776445429072203800,19.351203857421876,2.3657267093658447,0.5929259061813354,-0.5284337401390076
1776445429097219800,19.3762197265625,2.1588573455810547,0.3693964183330536,-0.3789249360561371
1776445429122236700,19.401236572265624,1.9571677446365356,0.04964238777756691,-0.31870049238204956
1776445429147252700,19.426252685546874,1.8920211791992188,0.28224313259124756,-0.10473120957612991
1776445429172268800,19.451268798828124,1.6573545932769775,0.3664933145046234,0.06372997909784317
1776445429197284900,19.476284912109374,1.0916979312896729,0.13631683588027954,0.08200831711292267
1776445429222300700,19.50130078125,0.8214722871780396,0.35385793447494507,0.1647556573152542
1776445429247316700,19.526316650390626,0.48147261142730713,0.5660732388496399,0.1132032573223114
1776445429272332800,19.551332763671876,0.19626805186271667,0.7563214898109436,-0.04181082919239998
1776445429297350000,19.576349853515627,0.30563822388648987,1.3238078355789185,-0.2207627296447754
1776445429322365700,19.60136572265625,1.1421256065368652,0.9802706837654114,0.29056206345558167
1776445429347381800,19.6263818359375,1.2586349248886108,-0.023617444559931755,0.6630607843399048
1776445429372397800,19.651397705078125,1.9395476579666138,-0.7929306626319885,0.4798973500728607
1776445429397413600,19.67641357421875,2.605492115020752,-0.8187353610992432,0.1762104481458664
1776445429422429700,19.7014296875,2.74509596824646,-0.7330862283706665,0.16134868562221527
1776445429447445800,19.72644580078125,2.7411415576934814,-0.5268044471740723,0.04454855993390083
1776445429472462800,19.751462890625,2.6046276092529297,-0.3815140724182129,0.21519353985786438
1776445429497478700,19.776478759765624,2.243041753768921,-0.3823247253894806,0.36649090051651
1776445429522494700,19.80149462890625,1.7964906692504883,-0.3321523666381836,-0.03846030682325363
1776445429547510800,19.8265107421875,1.6070150136947632,-0.30736181139945984,-0.553732693195343
1776445429572526800,19.85152685546875,1.775794506072998,-0.2067907303571701,-0.4857824146747589
1776445429597542700,19.876542724609376,1.7844792604446411,-0.24892406165599823,0.04059722647070885
1776445429622558700,19.901558837890626,1.6197185516357422,-0.029880933463573456,0.27314552664756775
1776445429647575800,19.926575927734376,1.4648821353912354,0.6726926565170288,0.41603291034698486
1776445429672591000,19.951591064453126,1.3187533617019653,0.9283483624458313,0.2963451147079468
1776445429697607200,19.976607177734376,1.310447335243225,0.7739574909210205,0.19637510180473328
1776445429722623200,20.001623291015626,1.3762662410736084,0.666998028755188,0.4277459979057312
1776445429747639300,20.026639404296876,1.2357592582702637,0.5867146253585815,0.6358773708343506
1776445429772655400,20.0516552734375,1.327499508857727,0.3644447922706604,0.3127552568912506
1776445429797671400,20.07667138671875,1.3097833395004272,0.7384985685348511,0.8556459546089172
1776445429822688300,20.101688232421875,1.1410832405090332,0.7486183047294617,1.4846696853637695
1776445429847704300,20.126704345703125,0.48398077487945557,0.06534891575574875,1.6810634136199951
1776445429872720100,20.15172021484375,0.11565709114074707,0.7058117389678955,0.16727128624916077
1776445429897736200,20.176736083984373,0.9668819308280945,-0.7600661516189575,-0.1705927699804306
1776445429922752300,20.201752197265623,2.7878217697143555,-0.45542851090431213,-0.16942551732063293
1776445429947768300,20.226768310546873,2.677365303039551,0.7675371170043945,0.7372657656669617
1776445429972785200,20.25178515625,1.9627350568771362,1.3081742525100708,1.2595933675765991
1776445429997801200,20.27680126953125,1.4152711629867554,1.4552998542785645,1.016974925994873
1776445430022817300,20.3018173828125,1.3051731586456299,0.8472005128860474,0.4837312400341034
1776445430047833000,20.3268330078125,1.265325665473938,-0.20648179948329926,-0.11385519802570343
1776445430072849200,20.35184912109375,1.3322445154190063,-0.9293822050094604,-0.5571788549423218
1776445430097865200,20.376865234375,1.4584846496582031,-0.7988359332084656,-0.4485277235507965
1776445430122881500,20.401881591796876,1.741235375404358,-0.4824763834476471,-0.4797287881374359
1776445430147898000,20.426898193359374,2.042914628982544,-0.1805948168039322,-0.9312940835952759
1776445430172914200,20.4519140625,1.972753882408142,0.22511567175388336,-1.023398518562317
1776445430197930200,20.47693017578125,1.449966549873352,0.504260778427124,-0.6396689414978027
1776445430222946300,20.5019462890625,0.9274035096168518,0.4277958273887634,-0.5411175489425659
1776445430247962000,20.526962158203126,0.8870848417282104,0.2763490378856659,-0.7357949018478394
1776445430272978400,20.551978515625,0.7150054574012756,0.28412094712257385,-0.460067480802536
1776445430297994500,20.576994384765626,0.3553253412246704,0.23748339712619781,-0.15938539803028107
1776445430323011300,20.60201123046875,0.21826708316802979,-0.18639996647834778,-0.2213025540113449
1776445430348027100,20.627027099609375,0.691066324710846,-0.4201093912124634,-0.04675818234682083
1776445430373043200,20.652043212890625,1.8333855867385864,-0.6507340669631958,-0.1197676807641983
1776445430398059300,20.677059326171875,2.358903408050537,-0.8733327984809875,-0.4446967542171478
1776445430423075000,20.702074951171873,2.3566536903381348,-0.46360519528388977,-0.4130115509033203
1776445430448091400,20.72709130859375,2.3749654293060303,0.5559106469154358,-0.07739252597093582
1776445430473107500,20.752107421875,2.6782143115997314,1.3323214054107666,0.13054415583610535
1776445430498124300,20.777124267578124,3.0658016204833984,1.7089054584503174,0.38336843252182007
1776445430523140000,20.80214013671875,3.3264572620391846,1.0545412302017212,0.230539470911026
1776445430548156200,20.82715625,2.9890873432159424,0.2965110242366791,-0.30916690826416016
1776445430573172200,20.852172119140626,2.9152939319610596,-0.05498868227005005,-0.30773279070854187
1776445430598188300,20.877188232421876,3.1214261054992676,0.02454795315861702,0.1320355236530304
1776445430623204400,20.902204345703126,3.527513265609741,0.2724866569042206,0.361964613199234
1776445430648220400,20.927220458984376,3.7989351749420166,0.1852865070104599,0.3458056151866913
1776445430673237200,20.9522373046875,3.8983840942382812,0.03238403797149658,0.2153961956501007
1776445430698253300,20.97725341796875,3.7886526584625244,0.001894839107990265,0.18803595006465912
1776445430723269000,21.00226904296875,3.0440926551818848,-0.005842975340783596,0.2399049997329712
1776445430748285200,21.02728515625,2.3591580390930176,-0.01333071943372488,0.08145171403884888
1776445430773301200,21.05230126953125,2.2022275924682617,0.1833820790052414,-0.06487220525741577
1776445430798317300,21.0773173828125,1.84378981590271,0.2284076064825058,-0.17600032687187195
1776445430823334100,21.102334228515623,1.4549506902694702,0.030767766758799553,-0.19546696543693542
1776445430848350200,21.12735009765625,1.2388055324554443,0.1214984655380249,0.0968511775135994
1776445430873366300,21.1523662109375,1.1543333530426025,-0.12042281776666641,0.20456698536872864
1776445430898382000,21.177382080078125,1.045743465423584,-0.7944566607475281,0.08779936283826828
1776445430923398100,21.202398193359375,1.0011943578720093,-1.299406886100769,0.07028348743915558
1776445430948414200,21.227414306640625,0.7636721134185791,-0.7205363512039185,-0.3045732080936432
1776445430973430300,21.25243017578125,0.2221830040216446,-0.08220965415239334,-0.6139851212501526
1776445430998447000,21.277447021484374,0.5159571170806885,0.5856744050979614,-0.2588914930820465
1776445431023463200,21.302463134765624,0.9577766060829163,0.883530855178833,0.3106044828891754
1776445431048479200,21.327479248046874,1.1302106380462646,0.881585419178009,0.5226805210113525
1776445431073495300,21.352495361328124,1.7359658479690552,0.2016681432723999,0.300846129655838
1776445431098511000,21.377510986328126,2.1210081577301025,-0.032588303089141846,0.301189124584198
1776445431123527200,21.402527099609376,1.7179908752441406,0.21428565680980682,0.21139267086982727
1776445431148543200,21.427543212890626,1.6295448541641235,0.24050314724445343,0.2855566442012787
1776445431173560300,21.452560302734376,1.6327513456344604,0.24153512716293335,0.2910432815551758
1776445431198576000,21.477576171875,1.4873785972595215,0.16182884573936462,0.1151425689458847
1776445431223592200,21.50259228515625,1.6922547817230225,0.040945034474134445,0.08544246107339859
1776445431248608300,21.527608154296875,1.9706311225891113,0.06035016104578972,-0.12773345410823822
1776445431273624000,21.5526240234375,2.0654730796813965,0.2613067030906677,-0.2175043523311615
1776445431298640100,21.57764013671875,2.2924954891204834,0.3921038508415222,-0.2076900750398636
1776445431323657200,21.6026572265625,2.3227274417877197,0.6066020727157593,-0.34926638007164
1776445431348673300,21.62767333984375,2.3138411045074463,0.649519681930542,-0.7298094630241394
1776445431373689300,21.652689453125,2.081064462661743,0.39059439301490784,-0.7752144932746887
1776445431398705200,21.677705078125,1.5780060291290283,0.15359115600585938,-0.46411600708961487
1776445431423721200,21.70272119140625,1.2221882343292236,0.12229954451322556,-0.16585926711559296
1776445431448737300,21.7277373046875,0.9873368740081787,0.33140110969543457,-0.4018110930919647
1776445431473753000,21.752753173828125,0.1334049254655838,0.3970562815666199,-0.029503563418984413
1776445431498770200,21.777770263671876,-0.14421656727790833,0.32983437180519104,0.25227460265159607
1776445431523786200,21.8027861328125,0.8192000389099121,0.37017858028411865,0.33036407828330994
1776445431548802300,21.82780224609375,1.2960915565490723,-0.037510089576244354,-0.31793269515037537
1776445431573818000,21.852818115234374,1.8299466371536255,-0.30161339044570923,-0.6628583669662476
1776445431598834200,21.877834228515624,2.527862071990967,-0.7922052145004272,-0.5378568172454834
1776445431623850200,21.902850341796874,2.4680495262145996,-1.1903208494186401,-0.4168379604816437
1776445431648866300,21.9278662109375,2.0550215244293213,-0.747622549533844,-0.361860990524292
1776445431673883600,21.952883544921875,1.9067116975784302,-0.3231557011604309,-0.2430802881717682
1776445431698899700,21.977899658203125,1.7524158954620361,-0.23286093771457672,-0.1405765563249588
1776445431723915800,22.002915771484375,1.4999064207077026,0.009661415591835976,-0.020085826516151428
1776445431748931600,22.027931640625,1.714842438697815,0.0871700569987297,0.10855869948863983
1776445431773947600,22.05294775390625,2.205280065536499,-0.09976760298013687,0.43787267804145813
1776445431798963700,22.077963623046877,2.6194725036621094,-0.5650761723518372,0.7615830898284912
1776445431823980800,22.102980712890623,2.913978099822998,-0.5378192663192749,0.6895957589149475
1776445431848996600,22.12799658203125,3.141369342803955,-0.18950387835502625,0.4165884256362915
1776445431874012700,22.1530126953125,2.9815707206726074,0.09379999339580536,0.4905366897583008
1776445431899028700,22.17802880859375,2.4936165809631348,0.6503782868385315,0.565384030342102
1776445431924044500,22.20304443359375,1.9145126342773438,1.1017332077026367,0.29829081892967224
1776445431949060600,22.228060546875,1.3617557287216187,0.9270378351211548,0.22815699875354767
1776445431974076700,22.25307666015625,2.2985928058624268,-0.14180932939052582,0.17318269610404968
1776445431999093800,22.27809375,3.147479772567749,-0.7899172902107239,0.15077966451644897
1776445432024109600,22.303109619140624,3.487058639526367,-1.0264240503311157,0.3957337439060211
1776445432049125600,22.328125732421874,3.042630910873413,-1.6935819387435913,0.4262154996395111
1776445432074141700,22.3531416015625,2.302161693572998,-2.1381359100341797,-0.06671697646379471
1776445432099157800,22.37815771484375,2.2910079956054688,-1.2975674867630005,-0.1831810027360916
1776445432124173600,22.403173583984376,2.552676200866699,0.10825616866350174,0.24558526277542114
1776445432149190700,22.428190673828126,2.539344072341919,1.1904135942459106,0.474712997674942
1776445432174206700,22.453206787109377,2.62488055229187,1.7108794450759888,0.8041244149208069
1776445432199222800,22.478222900390627,2.7635271549224854,2.1746814250946045,0.9613654613494873
1776445432224238600,22.503238525390625,2.7331702709198,1.5907844305038452,0.5709641575813293
1776445432249254700,22.528254638671875,2.7832841873168945,1.0762087106704712,0.24428057670593262
1776445432274270700,22.553270751953125,2.9578843116760254,0.6356694102287292,0.052740707993507385
1776445432299287800,22.578287841796875,2.8587188720703125,0.08071455359458923,-0.11609278619289398
1776445432324303600,22.6033037109375,2.5547659397125244,-0.17296405136585236,0.12525725364685059
1776445432349319700,22.628319580078124,2.2145376205444336,0.07027123123407364,0.2930491864681244
1776445432374335700,22.653335693359374,2.0050201416015625,0.17748796939849854,0.10712751746177673
1776445432399351600,22.6783515625,1.64730703830719,0.3103610575199127,-0.05429093539714813
1776445432424367600,22.70336767578125,1.2580437660217285,0.5263586044311523,-0.21449285745620728
1776445432449383700,22.7283837890625,1.1381930112838745,0.5907823443412781,-0.3024088740348816
1776445432474400800,22.75340087890625,1.1339821815490723,0.3626048266887665,-0.5327674746513367
1776445432499416800,22.778416748046876,1.1061724424362183,0.15270885825157166,-0.8275325894355774
1776445432524432600,22.8034326171875,1.0820910930633545,0.18584470450878143,-1.0484048128128052
1776445432549448700,22.82844873046875,1.5910285711288452,0.050156377255916595,-0.6306634545326233
1776445432574464800,22.85346484375,1.3671507835388184,-0.7546131014823914,-0.0976160392165184
1776445432599480600,22.87848046875,1.336260199546814,-0.9160709381103516,-0.1152738630771637
1776445432624497700,22.90349755859375,1.8320894241333008,-0.6602197289466858,0.00339153571985662
1776445432649513700,22.928513671875,2.4321248531341553,-0.5565239787101746,0.022309832274913788
1776445432674530000,22.953530029296875,2.712799310684204,-0.6785625219345093,0.24693281948566437
1776445432699545900,22.9785458984375,2.832988977432251,-0.6270481944084167,0.6151049733161926
1776445432724562000,23.00356201171875,2.69805908203125,-0.37006914615631104,0.786471426486969
1776445432749578000,23.028577880859373,2.4224257469177246,0.01846635900437832,0.579804539680481
1776445432774593800,23.05359375,2.1080257892608643,0.25058746337890625,0.2898736298084259
1776445432799611000,23.07861083984375,1.9450207948684692,0.6610136032104492,0.2775900661945343
1776445432824627000,23.103626953125,1.900810718536377,0.7478595972061157,0.2626121938228607
1776445432849643000,23.12864306640625,1.9720617532730103,0.4163002669811249,0.06300000101327896
1776445432874658800,23.153658935546876,2.1762638092041016,0.038000911474227905,-0.006876548286527395
1776445432899675000,23.1786748046875,2.47232723236084,-0.24432478845119476,0.23494859039783478
1776445432924691000,23.20369091796875,2.3102517127990723,-0.35922500491142273,0.41750428080558777
1776445432949708000,23.2287080078125,2.002492666244507,-0.06733882427215576,0.25922703742980957
1776445432974723800,23.253723876953124,1.7612684965133667,0.14578144252300262,0.004192348103970289
1776445432999740000,23.278739990234374,1.5888805389404297,0.05458414927124977,0.14887923002243042
1776445433024756000,23.303755859375,1.5437647104263306,0.1973375678062439,0.2310020625591278
1776445433049772000,23.32877197265625,1.3169806003570557,0.2692945897579193,0.14304158091545105
1776445433074787800,23.353787841796876,1.1424026489257812,0.4989040791988373,0.075475312769413
1776445433099805000,23.378804931640627,0.959449827671051,0.4434589147567749,0.3421088755130768
1776445433124821000,23.403821044921877,0.8011283874511719,0.428280234336853,0.4491381049156189
1776445433149837000,23.428837158203127,0.5100352764129639,0.501274824142456,0.6845242977142334
1776445433174852900,23.453852783203125,0.03507223352789879,0.926872730255127,0.7793000340461731
1776445433199869000,23.478868896484375,0.820024311542511,0.4245494306087494,0.19258862733840942
1776445433224885000,23.503885009765625,1.5668069124221802,-0.26824185252189636,0.15273308753967285
1776445433249902000,23.528902099609375,1.6482505798339844,-1.1271613836288452,0.10325341671705246
1776445433274918000,23.55391796875,1.5131324529647827,-1.097675085067749,-0.07834034413099289
1776445433299934000,23.578933837890624,1.9464982748031616,-0.37768736481666565,0.11299046874046326
1776445433324950000,23.603949951171874,2.451730489730835,0.29582446813583374,0.5275008082389832
1776445433349965800,23.6289658203125,1.8302295207977295,-0.2696509063243866,0.511217474937439
1776445433374982000,23.65398193359375,1.4765350818634033,-0.6900340914726257,-0.1742895096540451
1776445433399998000,23.678998046875,1.119269609451294,-1.2075574398040771,-0.2044527381658554
1776445433425015000,23.70401513671875,0.6077914237976074,-1.4665820598602295,0.0740574523806572
1776445433450030800,23.72903076171875,0.3936498165130615,-2.042584180831909,0.16256999969482422
1776445433475047000,23.754046875,0.3870371878147125,-2.7392358779907227,0.25247353315353394
1776445433500063000,23.77906298828125,0.5975353121757507,-2.9153223037719727,0.2417902648448944
1776445433525079000,23.8040791015625,0.7145455479621887,-2.4587552547454834,0.47708505392074585
1776445433550094800,23.8290947265625,0.5162258148193359,-1.8437061309814453,0.9301944971084595
1776445433575112000,23.85411181640625,0.7423297762870789,-1.4443483352661133,1.0540953874588013
1776445433600128000,23.8791279296875,1.2568581104278564,-1.3661155700683594,0.8986765146255493
1776445433625144000,23.90414404296875,1.3807646036148071,-1.6490596532821655,0.6823610067367554
1776445433650159900,23.929159912109377,0.996730625629425,-2.4422101974487305,0.7954076528549194
1776445433675176700,23.9541767578125,0.7950904369354248,-3.1898193359375,0.4706878960132599
1776445433700193500,23.979193603515625,0.7998788356781006,-3.0750064849853516,-0.01317918486893177
1776445433725209600,24.004209716796876,1.753760576248169,-1.4579890966415405,-0.37463778257369995
1776445433750225700,24.0292255859375,1.6758902072906494,-1.205655574798584,0.6888598799705505
1776445433775241700,24.05424169921875,0.9524103403091431,-2.1666789054870605,0.4584043323993683
1776445433800258600,24.079258544921874,-0.1086292713880539,-2.429170608520508,-0.12399118393659592
1776445433825274400,24.1042744140625,-0.6213570237159729,-2.4500887393951416,-0.25836125016212463
1776445433850290400,24.12929052734375,-0.5546855926513672,-1.979040265083313,-0.22409728169441223
1776445433875306500,24.154306396484376,-0.2558751702308655,-1.062479019165039,-0.14834952354431152
1776445433900322600,24.179322509765626,0.3739786446094513,-0.18001264333724976,-0.12398958951234818
1776445433925338600,24.204338623046876,0.8142103552818298,0.5908347964286804,-0.01720242202281952
1776445433950355500,24.22935546875,0.5776098370552063,0.8196130990982056,0.12018392980098724
1776445433975371500,24.25437158203125,0.47895166277885437,1.2777423858642578,0.37768736481666565
1776445434000387300,24.27938720703125,0.4372228682041168,1.8116751909255981,0.8161216974258423
1776445434025403400,24.3044033203125,-0.034513503313064575,1.9760974645614624,1.1047492027282715
1776445434050419500,24.32941943359375,-0.26000866293907166,1.8197382688522339,0.808742344379425
1776445434075435500,24.354435546875,-0.10009358078241348,1.5833266973495483,0.7659192681312561
1776445434100452600,24.37945263671875,-0.029261749237775803,0.3673311471939087,1.040285348892212
1776445434125468400,24.404468505859374,0.02220037765800953,0.02869582735002041,1.1032493114471436
1776445434150484500,24.429484375,-0.198618546128273,-0.038306642323732376,1.0951608419418335
1776445434175500500,24.45450048828125,0.1656094640493393,-0.7700617909431458,0.7262389659881592
1776445434200516400,24.479516357421875,0.8553223609924316,-1.1612298488616943,0.3920775055885315
1776445434225532400,24.504532470703126,1.2703200578689575,-1.1140681505203247,0.3255927562713623
1776445434250549500,24.529549560546876,1.2175695896148682,0.5980604887008667,1.1410726308822632
1776445434275565600,24.554565673828126,0.8403482437133789,0.993443489074707,1.5333083868026733
1776445434300581400,24.579581298828124,0.5461810231208801,0.2913375794887543,1.376448392868042
1776445434325597400,24.604597412109374,0.0949302390217781,-0.2039904147386551,1.277875542640686
1776445434350613500,24.629613525390624,-0.244922935962677,-0.1574902981519699,1.0665030479431152
1776445434375629600,24.654629638671874,-0.012741361744701862,-0.4633479416370392,0.8644615411758423
1776445434400645400,24.679645263671876,0.1892615407705307,-0.40304040908813477,1.075494408607483
1776445434425662500,24.704662353515626,0.3695751130580902,-0.06847652792930603,1.4901230335235596
1776445434450678500,24.729678466796877,0.5426291823387146,-0.2649909257888794,1.9497255086898804
1776445434475694600,24.754694580078127,0.33918526768684387,-0.8552646040916443,2.1813697814941406
1776445434500710400,24.77971044921875,-0.003174754325300455,-1.2529717683792114,2.127685546875
1776445434525726500,24.8047265625,-0.21540924906730652,-1.5973174571990967,2.3744378089904785
1776445434550742500,24.829742431640625,-0.41703078150749207,-1.6624494791030884,2.5929744243621826
1776445434575759600,24.854759521484375,-0.31766292452812195,-1.832816243171692,2.56178617477417
1776445434600775400,24.879775390625,-0.1529834270477295,-1.92950439453125,2.5843324661254883
1776445434625791500,24.90479150390625,-0.1470421701669693,-1.6165778636932373,2.8390843868255615
1776445434650807600,24.9298076171875,0.201756551861763,-1.2074543237686157,2.7516701221466064
1776445434675822800,24.95482275390625,0.7580479979515076,-0.9547200798988342,2.5520076751708984
1776445434700839000,24.9798388671875,0.8454077243804932,-0.7522401809692383,2.6364877223968506
1776445434725855700,25.004855712890624,0.9261512756347656,-0.7416993975639343,2.663470506668091
1776445434750871800,25.029871826171874,0.843926727771759,-0.875618040561676,2.554218053817749
1776445434775888000,25.054887939453124,0.5117607712745667,-0.8175768852233887,2.562086582183838
1776445434800904000,25.079904052734374,0.3314170837402344,-1.0323290824890137,2.124291181564331
1776445434825919700,25.104919677734376,0.2183842658996582,-1.3615120649337769,1.74405038356781
1776445434850935800,25.129935791015626,-0.20925894379615784,-1.4684425592422485,1.7761536836624146
1776445434875953000,25.154952880859376,-0.2327086180448532,-1.0712828636169434,1.722466230392456
1776445434900969000,25.179968994140626,0.22838151454925537,-1.019299864768982,1.6093060970306396
1776445434925984800,25.20498486328125,0.46304914355278015,-0.7290408611297607,1.6681092977523804
1776445434951000800,25.230000732421875,0.7853153347969055,-0.3515670895576477,1.6945019960403442
1776445434976017000,25.255016845703125,0.9929231405258179,-0.28814736008644104,1.294836401939392
1776445435001032700,25.28003271484375,0.9118112325668335,-0.07844846695661545,1.32026207447052
1776445435026049800,25.3050498046875,1.1045846939086914,0.10150425136089325,1.5490652322769165
1776445435051065900,25.33006591796875,1.1506091356277466,0.01350595522671938,1.7262423038482666
1776445435076082000,25.35508203125,0.38953524827957153,0.1939537525177002,1.5608714818954468
1776445435101097700,25.38009765625,0.10120385140180588,-0.0922740027308464,1.1705676317214966
1776445435126113800,25.40511376953125,-0.11007723212242126,-0.31383568048477173,1.0703140497207642
1776445435151131000,25.430130859375,0.020795293152332306,-0.18174849450588226,1.146761178970337
1776445435176147000,25.45514697265625,0.3830951750278473,-0.10556850582361221,1.183235764503479
1776445435201162800,25.480162841796876,0.46492239832878113,0.009134642779827118,1.1135318279266357
1776445435226178800,25.5051787109375,0.21143954992294312,-0.22650398313999176,1.2420055866241455
1776445435251195000,25.53019482421875,-0.18341776728630066,-0.20283274352550507,0.8191747665405273
1776445435276211000,25.5552109375,-0.2727055549621582,-0.1191631406545639,0.34200501441955566
1776445435301227800,25.580227783203124,-0.04602288454771042,0.1613936871290207,0.3397490382194519
1776445435326243800,25.605243896484374,0.38414260745048523,0.7206159830093384,0.024349281564354897
1776445435351260000,25.630260009765625,0.7524295449256897,0.8761352300643921,0.004403536673635244
1776445435376276000,25.65527587890625,0.9238529801368713,0.7206015586853027,-0.09556620568037033
1776445435401291800,25.680291748046876,0.6691200137138367,0.42109715938568115,-0.017341705039143562
1776445435426307800,25.705307861328127,-0.027668112888932228,-0.3003459870815277,0.6563823819160461
1776445435451325000,25.730324951171873,-0.5002188682556152,0.018679145723581314,0.13022245466709137
1776445435476341000,25.755341064453123,-0.5150771737098694,-0.5392070412635803,-0.27772268652915955
1776445435501356800,25.780356689453125,-0.878159761428833,-0.7055688500404358,-0.5258978605270386
1776445435526372900,25.805372802734375,-0.8092150688171387,-0.248735249042511,-0.08127701282501221
1776445435551389000,25.830388916015625,0.04151948168873787,-0.524958610534668,0.4795122742652893
1776445435576404700,25.85540478515625,0.5923024415969849,-0.5153935551643372,0.9956632256507874
1776445435601421800,25.880421875,0.3014248311519623,0.3412979543209076,1.3466018438339233
1776445435626438000,25.90543798828125,0.1121201440691948,1.6698826551437378,1.7662830352783203
1776445435651454000,25.930453857421874,-0.4467484652996063,1.7303881645202637,1.9411323070526123
1776445435676470000,25.955469970703124,-1.0928641557693481,0.10903008282184601,1.1539199352264404
1776445435701486000,25.980486083984374,-1.210505485534668,-0.5966396927833557,1.0676718950271606
1776445435726502100,26.005502197265624,-1.3290034532546997,-0.6554880738258362,1.3703752756118774
1776445435751519200,26.030519287109374,-0.8641302585601807,-0.31577208638191223,2.0670948028564453
1776445435776535000,26.05553515625,-0.16519668698310852,0.27174416184425354,2.359449863433838
1776445435801551000,26.080551025390626,0.27447018027305603,0.8192946314811707,2.3574535846710205
1776445435826567200,26.105567138671876,0.5886227488517761,0.5922446846961975,2.708570957183838
1776445435851583000,26.1305830078125,0.46818798780441284,-0.7733220458030701,3.226624011993408
1776445435876600000,26.15560009765625,0.7324569225311279,-1.4296634197235107,3.3282201290130615
1776445435901616000,26.1806162109375,1.1817209720611572,-1.6245231628417969,3.0717179775238037
1776445435926632200,26.205632080078125,0.4563339948654175,-2.0640408992767334,3.318960666656494
1776445435951648000,26.23064794921875,-1.107697606086731,-1.7636709213256836,4.268923282623291
1776445435976664000,26.2556640625,-2.2732231616973877,-0.9979192018508911,4.498490333557129
1776445436001680100,26.28068017578125,-2.14597487449646,0.5433767437934875,4.359503746032715
1776445436026697200,26.305697265625,-1.3219093084335327,2.3742783069610596,4.327889442443848
1776445436051713000,26.330713134765624,-0.6573120951652527,2.3435423374176025,4.023412227630615
1776445436076729000,26.35572900390625,-0.2340172827243805,1.1490198373794556,3.6729233264923096
1776445436101745200,26.3807451171875,0.0197281651198864,0.28672176599502563,3.5626912117004395
1776445436126761200,26.40576123046875,0.23641332983970642,-0.43980053067207336,3.0744926929473877
1776445436151777000,26.430777099609376,0.71213299036026,-0.32713258266448975,2.400137424468994
1776445436176794000,26.455794189453126,0.7029299139976501,-0.4316291809082031,1.761762261390686
1776445436201810200,26.48081005859375,0.6420066356658936,-1.2368292808532715,1.1534110307693481
1776445436226826200,26.505826171875,0.953399121761322,-1.7927905321121216,1.306288242340088
1776445436251842000,26.530842041015624,1.3221633434295654,-1.7211639881134033,1.7787556648254395
1776445436276858000,26.555858154296875,0.8096867203712463,-2.1691558361053467,1.768410325050354
1776445436301874200,26.580874267578125,0.11766751110553741,-1.5454182624816895,1.2471673488616943
1776445436326891300,26.605891357421875,-0.46573466062545776,-0.5842589139938354,0.8160730004310608
1776445436351907000,26.630906982421877,-0.8004287481307983,-0.2088743895292282,0.6441746950149536
1776445436376923100,26.655923095703123,-0.796567440032959,-0.035646144300699234,0.6367852687835693
1776445436401939200,26.680939208984373,-0.7467247843742371,0.6632844805717468,1.4060856103897095
1776445436426955000,26.705955078125,-0.9281576871871948,0.6659687161445618,1.8796430826187134
1776445436451972000,26.73097216796875,-1.1506626605987549,0.2869899570941925,1.451829195022583
1776445436476988200,26.75598828125,-0.9281861782073975,0.20002523064613342,1.010332703590393
1776445436502004200,26.781004150390626,-0.7709816694259644,-0.08697032183408737,1.1462026834487915
1776445436527020000,26.80602001953125,-0.5305901169776917,-1.022869348526001,1.050307273864746
1776445436552036000,26.8310361328125,0.40877577662467957,-1.1173689365386963,1.1526075601577759
1776445436577052200,26.85605224609375,1.1468762159347534,-0.555970311164856,1.0185424089431763
1776445436602069200,26.8810693359375,0.973200261592865,-0.24404461681842804,0.9079688191413879
1776445436627085000,26.9060849609375,0.630993664264679,-0.07120466977357864,1.2529256343841553
1776445436652101000,26.93110107421875,0.06999825686216354,0.15955664217472076,1.0972782373428345
1776445436677116700,26.95611669921875,0.15031281113624573,-0.4319878816604614,0.10090424120426178
1776445436702132700,26.9811328125,0.4543829560279846,-0.38413888216018677,-0.12612783908843994
1776445436727148800,27.006148681640624,0.6726140975952148,-0.33692610263824463,-0.027570374310016632
1776445436752165600,27.03116552734375,0.13302116096019745,0.23489826917648315,0.40389686822891235
1776445436777181700,27.056181640625,-0.8638724684715271,0.46988147497177124,0.5985744595527649
1776445436802197800,27.08119775390625,-1.575554609298706,-0.2298494428396225,1.0100719928741455
1776445436827213800,27.1062138671875,-1.5107643604278564,-0.9376223087310791,1.5047887563705444
1776445436852229600,27.131229736328127,-1.1292575597763062,-1.0171186923980713,1.603725552558899
1776445436877245700,27.15624560546875,-0.3927696645259857,-0.3715447783470154,1.5707107782363892
1776445436902262800,27.1812626953125,0.7228607535362244,0.2514423429965973,1.9315675497055054
1776445436927278800,27.20627880859375,1.5800896883010864,-2.331305980682373,2.1087865829467773
1776445436952294700,27.231294677734375,0.34810152649879456,-0.8961097598075867,1.999869704246521
1776445436977310700,27.256310791015625,0.06049210578203201,1.025325059890747,0.8633984327316284
1776445437002326800,27.281326904296876,-0.2236245721578598,0.13244272768497467,0.5085362195968628
1776445437027344000,27.30634375,0.3892532289028168,-0.7969831824302673,0.20623280107975006
1776445437052359700,27.331359619140624,0.846696674823761,-1.162530779838562,0.01098474022001028
1776445437077375700,27.356375732421874,0.3921099901199341,-0.8222640156745911,-0.0001877528557088226
1776445437102391800,27.381391845703124,-0.37677496671676636,-0.14635108411312103,0.25938868522644043
1776445437127407900,27.406407958984374,-1.2162331342697144,0.08738923072814941,0.3795230984687805
1776445437152423700,27.431423583984376,-1.786041498184204,0.4093952476978302,0.3856313228607178
1776445437177440800,27.456440673828126,-1.4571843147277832,0.3292713761329651,0.30418944358825684
1776445437202456800,27.481456787109376,-0.21280761063098907,0.11000426113605499,0.3925422132015228
1776445437227473000,27.506472900390627,0.9840114116668701,0.03354065120220184,0.6536422371864319
1776445437252488700,27.53148876953125,1.0162510871887207,-0.805069088935852,0.4388684332370758
1776445437277504800,27.5565048828125,0.5074152946472168,-1.0752280950546265,0.08494258671998978
1776445437302520800,27.581520751953125,0.05710563063621521,0.0012697952333837748,-0.08162935078144073
1776445437327537700,27.60653759765625,-0.15655472874641418,0.9342433214187622,-0.2940356135368347
1776445437352553700,27.6315537109375,-0.3660197854042053,1.1701847314834595,-0.25941213965415955
1776445437377569800,27.65656982421875,-0.42900940775871277,0.8099956512451172,-0.08176303654909134
1776445437402585900,27.6815859375,-0.03825364634394646,0.1481761485338211,0.16071724891662598
1776445437427601700,27.7066015625,0.4054127335548401,-0.15915103256702423,0.31094828248023987
1776445437452617700,27.73161767578125,0.5347081422805786,-0.27332502603530884,0.25554150342941284
1776445437477634600,27.756634521484376,0.2529992461204529,-0.13457538187503815,0.3872009813785553
1776445437502650600,27.781650634765626,0.1363477259874344,0.25023433566093445,0.5806508660316467
1776445437527666700,27.806666748046876,0.12369850277900696,0.45064252614974976,0.8518224358558655
1776445437552682800,27.831682861328126,0.721763551235199,0.6184182167053223,1.4922617673873901
1776445437577698800,27.85669873046875,1.1164485216140747,0.1576460897922516,1.665673851966858
1776445437602715600,27.881715576171874,1.1115986108779907,0.0002580603177193552,1.7284314632415771
1776445437627731500,27.9067314453125,0.45183828473091125,-0.015905464068055153,1.8094121217727661
1776445437652747500,27.93174755859375,-0.4251744747161865,-0.1049671620130539,1.6549493074417114
1776445437677763600,27.956763671875,-0.6614410877227783,-0.42095229029655457,0.5628383159637451
1776445437702779600,27.981779541015626,-0.478343665599823,-0.1952320784330368,0.3255900740623474
1776445437727796500,28.00679638671875,-0.31371772289276123,-0.19724063575267792,0.5890797972679138
1776445437752812500,28.0318125,-0.43269363045692444,-0.32360416650772095,0.260617733001709
1776445437777828400,28.056828369140625,-0.831754744052887,-0.34513822197914124,-0.3685375452041626
1776445437802844400,28.081844482421875,-0.9944522976875305,-0.33503231406211853,-0.4820215106010437
1776445437827860500,28.106860595703125,-0.4592069983482361,-0.5229119658470154,0.14473454654216766
1776445437852877600,28.131877685546876,0.5469086170196533,-0.6353215575218201,1.1908117532730103
1776445437877893400,28.156893310546874,0.9814755320549011,-0.9878812432289124,1.9170091152191162
1776445437902909400,28.181909423828124,0.9898117780685425,-1.3425240516662598,2.007957696914673
1776445437927925500,28.206925537109374,0.6107621788978577,-1.1691535711288452,1.9207812547683716
1776445437952941600,28.231941650390624,0.0996677353978157,-0.4868442118167877,1.781038522720337
1776445437977957400,28.256957275390626,-0.5198618173599243,0.05145014077425003,1.7457265853881836
1776445438002974500,28.281974365234376,-0.5573372840881348,-0.14018933475017548,1.843489408493042
1776445438027990500,28.306990478515626,-0.4380846619606018,-0.41102004051208496,1.860237717628479
1776445438053006600,28.332006591796876,-0.4012398421764374,-0.5814458131790161,1.8038053512573242
1776445438078022400,28.3570224609375,-0.2150832861661911,-0.47029373049736023,1.7863667011260986
1776445438103038500,28.38203857421875,0.16059421002864838,-0.331561416387558,2.008920431137085
1776445438128054500,28.407054443359375,0.3272058367729187,-0.2115498036146164,2.2473740577697754
1776445438153071600,28.432071533203125,0.1490936130285263,-0.31357869505882263,2.515864610671997
1776445438178087400,28.45708740234375,-0.09497658163309097,-0.4599857032299042,2.821218967437744
1776445438203103500,28.482103515625,-0.32432109117507935,-0.475689560174942,3.060319423675537
1776445438228119600,28.50711962890625,-0.3816549479961395,-0.25172731280326843,3.2069315910339355
1776445438253135400,28.53213525390625,-0.38933151960372925,-0.07631208002567291,3.360363483428955
1776445438278152400,28.55715234375,-0.3719645142555237,-0.10115458071231842,3.386793613433838
1776445438303168500,28.58216845703125,-0.523836612701416,-0.37125131487846375,3.2308573722839355
1776445438328184600,28.6071845703125,-0.6986243724822998,-0.20124788582324982,2.9902303218841553
1776445438353200400,28.632200439453126,-0.6756495833396912,0.14025165140628815,2.955578327178955
1776445438378216400,28.657216552734376,-0.7095662355422974,-0.07036364823579788,3.1135575771331787
1776445438403232500,28.682232421875,-1.0957001447677612,-0.45891645550727844,2.8081631660461426
1776445438428248600,28.70724853515625,-1.413514256477356,-0.354231059551239,2.3451032638549805
1776445438453264400,28.732264404296874,-1.4156157970428467,0.02130715362727642,2.333834648132324
1776445438478280400,28.757280517578124,-1.3594355583190918,0.004846953321248293,2.2955756187438965
1776445438503297500,28.782297607421874,-1.0984951257705688,-0.11191508173942566,2.0891377925872803
1776445438528313600,28.807313720703124,-0.7216333150863647,-0.339297890663147,1.9349180459976196
1776445438553329400,28.832329345703126,-0.3496570587158203,-0.23582157492637634,1.7223716974258423
1776445438578345500,28.857345458984376,-0.04839016869664192,-0.0007419566973112524,1.6728204488754272
1776445438603361500,28.882361572265626,-0.007197725586593151,-0.40998220443725586,1.768876075744629
1776445438628377300,28.90737744140625,-0.15122227370738983,-0.9882231950759888,1.7015628814697266
1776445438653394400,28.93239453125,-0.17553533613681793,-1.1545878648757935,1.7336983680725098
1776445438678410800,28.95741064453125,-0.13965830206871033,-0.908710777759552,1.6184953451156616
1776445438703426600,28.982426513671875,-0.1373559981584549,-0.5130230784416199,1.2220863103866577
1776445438728442600,29.007442626953125,-0.2804851830005646,-0.31250011920928955,0.842968225479126
1776445438753458700,29.032458740234375,-0.2859337627887726,0.11230950057506561,0.6770123243331909
1776445438778475800,29.057475830078126,-0.27003014087677,0.1465095430612564,0.6315478682518005
1776445438803491800,29.082491943359376,-0.023839551955461502,-0.39269721508026123,1.0127226114273071
1776445438828507600,29.107507568359374,-0.09797876328229904,-0.9493852257728577,0.9503399729728699
1776445438853523700,29.132523681640624,-0.43242812156677246,-0.6131742000579834,0.7000619769096375
1776445438878539800,29.157539794921874,-0.09824907034635544,-0.10863353312015533,0.6825929284095764
1776445438903555600,29.1825556640625,0.06901821494102478,-0.1141074001789093,0.2819930613040924
1776445438928572700,29.20757275390625,0.09851778298616409,-0.09849648177623749,0.10465264320373535
1776445438953588700,29.232588623046876,0.18535441160202026,0.033612288534641266,0.4227414131164551
1776445438978604800,29.257604736328126,-0.2504258155822754,0.3069833815097809,0.9363205432891846
1776445439003620600,29.28262060546875,-0.9332510232925415,0.5347451567649841,1.2016979455947876
1776445439028636700,29.30763671875,-1.0613054037094116,0.30834344029426575,1.2578914165496826
1776445439053653800,29.33265380859375,-0.861564040184021,-0.39460164308547974,1.313389539718628
1776445439078669800,29.357669921875,-0.5940657258033752,-0.3827945291996002,1.4342209100723267
1776445439103685600,29.382685546875,-0.4554668664932251,0.5317794680595398,1.9797204732894897
1776445439128701700,29.40770166015625,-0.5451996922492981,0.6587225198745728,2.2253637313842773
1776445439153717800,29.4327177734375,-0.8350128531455994,0.18484148383140564,2.049961805343628
1776445439178733800,29.45773388671875,-1.003894329071045,-0.2677379548549652,2.129380941390991
1776445439203750700,29.482750732421874,-0.8838179111480713,-0.5681313276290894,2.989799737930298
1776445439228766700,29.5077666015625,-0.15423724055290222,-0.6686094999313354,3.467427968978882
1776445439253782800,29.53278271484375,0.14952105283737183,0.4206646680831909,3.2196669578552246
1776445439278798800,29.557798828125,0.35504359006881714,1.4864710569381714,2.976740837097168
1776445439303814700,29.582814697265626,0.9339032173156738,2.511168956756592,2.8943848609924316
1776445439328831700,29.607831787109376,1.7092924118041992,1.7888330221176147,2.257283926010132
1776445439353847800,29.632847900390626,2.236114025115967,0.7549113631248474,1.7327535152435303
1776445439378863900,29.65786376953125,1.779778003692627,-0.39777958393096924,1.2030798196792603
1776445439403879700,29.682879638671874,0.3020882308483124,-0.38615304231643677,0.44229432940483093
1776445439428895700,29.707895751953124,-0.2293895184993744,-0.5301019549369812,0.18428169190883636
1776445439453911800,29.732911865234374,-0.17055682837963104,-0.3799832761287689,0.40826553106307983
1776445439478929000,29.757928955078125,-0.1689528077840805,-0.04834036901593208,0.49309200048446655
1776445439503944700,29.78294482421875,0.39907389879226685,0.22110629081726074,0.7160243988037109
1776445439528960800,29.807960693359377,0.5503811240196228,0.21210746467113495,1.092307209968567
1776445439553976800,29.832976806640627,0.5095729827880859,0.30794715881347656,1.2602959871292114
1776445439578992600,29.85799267578125,0.5532354712486267,0.1939084827899933,1.5108264684677124
1776445439604009700,29.883009765625,0.5405644178390503,0.8143882751464844,1.4638354778289795
1776445439629025800,29.90802587890625,0.5036884546279907,0.7901942729949951,1.152360200881958
1776445439654041900,29.933041748046875,0.4719483554363251,0.3116726577281952,0.8053505420684814
1776445439679058400,29.958058349609374,0.5719071626663208,0.31531932950019836,0.638012170791626
1776445439704074200,29.98307421875,0.42749327421188354,0.620908796787262,1.1606788635253906
1776445439729090300,30.00809033203125,-0.08816207945346832,1.0767951011657715,1.1249008178710938
1776445439754107100,30.033107177734376,-0.12089899182319641,0.6421414017677307,0.8147193193435669
1776445439779123200,30.058123291015626,0.12028726190328598,0.3343944847583771,0.3976743817329407
1776445439804139300,30.08313916015625,0.24743403494358063,-0.16632533073425293,0.20045533776283264
1776445439829155300,30.1081552734375,0.4401467442512512,0.21098174154758453,0.07822929322719574
1776445439854171400,30.13317138671875,0.540217399597168,0.14701421558856964,0.4777441918849945
1776445439879188200,30.158188232421875,0.3698797821998596,-0.13822925090789795,0.8066651225090027
1776445439904204000,30.1832041015625,0.1995258927345276,-0.05573569983243942,0.9370212554931641
1776445439929220000,30.20822021484375,0.17909705638885498,-0.16678018867969513,1.019978404045105
1776445439954236200,30.233236083984377,0.32632192969322205,-1.0951807498931885,0.760246753692627
1776445439979252200,30.258252197265627,0.06412173062562943,-0.7718927264213562,0.773543119430542
1776445440004268300,30.283268310546877,-0.16319744288921356,-0.27664437890052795,0.8224416375160217
1776445440029285000,30.30828515625,-0.109693743288517,0.32713285088539124,1.1204254627227783
1776445440054301200,30.33330126953125,0.2206897735595703,0.20195762813091278,1.5042375326156616
1776445440079317000,30.35831689453125,0.14050251245498657,-0.6455651521682739,1.6263482570648193
1776445440104333000,30.3833330078125,0.0925150215625763,-0.5185571312904358,1.573167324066162
1776445440129349000,30.40834912109375,-0.08280300348997116,-0.22734101116657257,1.3888323307037354
1776445440154366200,30.4333662109375,-0.02111380733549595,-0.40763941407203674,1.546647071838379
1776445440179382300,30.45838232421875,0.33747631311416626,-0.8574464917182922,1.770571231842041
1776445440204398000,30.483398193359374,0.3410198986530304,-0.950552225112915,2.0418174266815186
1776445440229414100,30.5084140625,0.023539414629340172,-1.1025265455245972,2.0705199241638184
1776445440254430200,30.53343017578125,-0.1950584352016449,-0.6161625385284424,1.6238137483596802
1776445440279446000,30.558446044921876,0.06958440691232681,-0.18339405953884125,1.831018090248108
1776445440304463000,30.583463134765626,0.16929395496845245,-0.29044273495674133,2.4971799850463867
1776445440329479200,30.608479248046876,0.2963334023952484,-1.1191439628601074,2.754582405090332
1776445440354495200,30.6334951171875,0.23427242040634155,-1.05000638961792,2.96933913230896
1776445440379511000,30.658510986328125,0.09378694742918015,-0.33058643341064453,2.9023540019989014
1776445440404527000,30.683527099609375,0.12593317031860352,-0.19655513763427734,2.626335859298706
1776445440429544200,30.708544189453125,0.2496202141046524,-0.4708591401576996,2.4171230792999268
1776445440454560300,30.733560302734375,0.38188397884368896,-0.5596193671226501,2.3026671409606934
1776445440479576000,30.758576171875,0.301333487033844,-1.0612404346466064,2.2831947803497314
1776445440504592100,30.783592041015623,0.33684858679771423,-1.6147680282592773,2.629155158996582
1776445440529608200,30.808608154296873,0.0076062544248998165,-1.642582893371582,2.8964526653289795
1776445440554624300,30.833624267578124,-0.1834089756011963,-1.2056260108947754,3.0152363777160645
1776445440579641000,30.85864111328125,-0.05933283269405365,-0.2611221373081207,2.812645196914673
1776445440604657200,30.8836572265625,-0.05519108474254608,0.8308798670768738,2.599803924560547
1776445440629673200,30.908673095703126,-0.19228050112724304,1.2645034790039062,2.6795027256011963
1776445440654689300,30.933689208984376,-0.0479092039167881,0.5450081825256348,2.793206214904785
1776445440679704800,30.958704833984374,0.3140764534473419,-0.316316157579422,2.769036054611206
1776445440704721700,30.9837216796875,0.28517529368400574,-0.6203181147575378,2.693068742752075
1776445440729737700,31.00873779296875,0.09244976937770844,-0.7465023994445801,2.051565170288086
1776445440754753800,31.03375390625,0.0008226504432968795,-0.4706149101257324,1.7491854429244995
1776445440779769900,31.058769775390626,-0.06758730113506317,-0.06461121886968613,1.3983334302902222
1776445440804785700,31.08378564453125,-0.15006913244724274,0.2600765824317932,0.9660829901695251
1776445440829801700,31.1088017578125,-0.17046387493610382,0.6800498962402344,0.9901009798049927
1776445440854818800,31.13381884765625,-0.23140312731266022,1.158869981765747,0.7646955251693726
1776445440879835000,31.1588349609375,-0.15639014542102814,-0.13993073999881744,0.47008654475212097
1776445440904850700,31.1838505859375,0.04645085707306862,-0.44111669063568115,0.668864369392395
1776445440929866800,31.20886669921875,0.25802940130233765,0.18219004571437836,0.7430227398872375
1776445440954882800,31.2338828125,0.1350049525499344,0.7820172905921936,1.0395758152008057
1776445440979900000,31.25889990234375,-0.10412320494651794,0.45039644837379456,1.1081788539886475
