time,seconds_elapsed,z,y,x
1776445409779849200,0.05884912109375,-0.9869537353515625,-0.107452392578125,-0.1207122802734375
1776445409804865300,0.083865234375,-0.9816741943359375,-0.15643310546875,-0.13214111328125
1776445409829880300,0.10888037109375,-1.0000457763671875,-0.200469970703125,-0.1140594482421875
1776445409854896400,0.133896484375,-0.973480224609375,-0.1543426513671875,-0.1252899169921875
1776445409879912400,0.158912353515625,-0.9740753173828125,-0.1123046875,-0.1109619140625
1776445409904928500,0.183928466796875,-1.001068115234375,-0.13751220703125,-0.089202880859375
1776445409929944300,0.2089443359375,-0.97576904296875,-0.164215087890625,-0.131439208984375
1776445409954959400,0.23395947265625,-0.9564971923828125,-0.1558990478515625,-0.139801025390625
1776445409979975200,0.25897509765625,-0.9947662353515625,-0.1333770751953125,-0.1287841796875
1776445410004991200,0.2839912109375,-0.9837799072265625,-0.1357574462890625,-0.11895751953125
1776445410030007300,0.30900732421875,-0.9810943603515625,-0.162078857421875,-0.1297760009765625
1776445410055023400,0.3340234375,-0.962921142578125,-0.190704345703125,-0.15875244140625
1776445410080039200,0.3590390625,-1.0144805908203125,-0.125946044921875,-0.154754638671875
1776445410105054500,0.384054443359375,-0.9868621826171875,-0.0602264404296875,-0.132049560546875
1776445410130070500,0.409070556640625,-0.9602508544921875,-0.1079864501953125,-0.166656494140625
1776445410155086300,0.43408642578125,-0.948211669921875,-0.192779541015625,-0.1776580810546875
1776445410180102400,0.459102294921875,-1.0204010009765625,-0.1790771484375,-0.0519866943359375
1776445410205118500,0.484118408203125,-1.0240631103515625,-0.055023193359375,-0.0300750732421875
1776445410230133200,0.50913330078125,-0.999176025390625,-0.0300445556640625,0.00653076171875
1776445410255149300,0.5341494140625,-1.07611083984375,-0.139251708984375,0.090087890625
1776445410280165400,0.559165283203125,-1.0833740234375,-0.155670166015625,0.0632171630859375
1776445410305181200,0.58418115234375,-0.9796600341796875,-0.1366729736328125,-0.0174407958984375
1776445410330197200,0.609197265625,-0.886749267578125,-0.087127685546875,-0.080810546875
1776445410355212500,0.634212646484375,-0.9598541259765625,-0.1076507568359375,-0.0546875
1776445410380228400,0.659228271484375,-0.9658203125,-0.1512451171875,-0.0797882080078125
1776445410405244400,0.684244384765625,-0.937835693359375,-0.161102294921875,-0.0495452880859375
1776445410430260500,0.709260498046875,-0.992950439453125,-0.13067626953125,0.0538177490234375
1776445410455276300,0.7342763671875,-1.0485076904296875,-0.10272216796875,0.068450927734375
1776445410480291300,0.759291259765625,-0.9443511962890625,-0.072113037109375,0.0285797119140625
1776445410505307400,0.784307373046875,-0.96044921875,-0.066680908203125,0.0106964111328125
1776445410530323200,0.8093232421875,-0.985809326171875,-0.0925445556640625,-0.0077667236328125
1776445410555339300,0.83433935546875,-0.989105224609375,-0.0830230712890625,0.0076141357421875
1776445410580355300,0.859355224609375,-1.024658203125,-0.061492919921875,0.027679443359375
1776445410605371100,0.88437109375,-1.048553466796875,-0.0885009765625,0.051605224609375
1776445410630386400,0.909386474609375,-1.0662994384765625,-0.111907958984375,0.090789794921875
1776445410655402200,0.93440234375,-1.005645751953125,-0.14056396484375,0.049591064453125
1776445410680418300,0.959418212890625,-0.960296630859375,-0.128387451171875,-0.013397216796875
1776445410705434400,0.984434326171875,-0.9591217041015625,-0.1073150634765625,0.005889892578125
1776445410730450400,1.009450439453125,-0.9737091064453125,-0.1285552978515625,0.0333709716796875
1776445410755466200,1.03446630859375,-1.02911376953125,-0.0624237060546875,0.0927581787109375
1776445410780481300,1.059481201171875,-1.07647705078125,-0.0765228271484375,0.0977783203125
1776445410805497300,1.084497314453125,-0.899078369140625,-0.0162353515625,0.06646728515625
1776445410830513200,1.10951318359375,-1.014190673828125,-0.0454864501953125,-0.1139373779296875
1776445410855529200,1.134529296875,-0.96844482421875,-0.0144500732421875,-0.14385986328125
1776445410880545300,1.159545166015625,-1.0707855224609375,0.034576416015625,-0.2403411865234375
1776445410905560300,1.184560302734375,-0.942230224609375,0.0118408203125,-0.09222412109375
1776445410930576400,1.209576416015625,-0.9044647216796875,-0.0572357177734375,-0.113067626953125
1776445410955592400,1.234592529296875,-1.03460693359375,-0.0383758544921875,-0.0963287353515625
1776445410980608300,1.259608154296875,-1.004119873046875,-0.036285400390625,-0.0596160888671875
1776445411005624300,1.284624267578125,-0.963287353515625,-0.028076171875,-0.05072021484375
1776445411030640400,1.309640380859375,-0.966064453125,-0.0065765380859375,-0.0364227294921875
1776445411055655200,1.3346552734375,-1.027679443359375,0.06854248046875,0.0106658935546875
1776445411080671200,1.359671142578125,-0.9695587158203125,0.039703369140625,-0.002777099609375
1776445411105687300,1.384687255859375,-0.9665069580078125,-0.027923583984375,-0.080474853515625
1776445411130703000,1.409703125,-0.9690704345703125,-0.0499267578125,-0.072021484375
1776445411155719200,1.43471923828125,-0.9658966064453125,-0.0126495361328125,-0.007965087890625
1776445411180735200,1.4597353515625,-0.986724853515625,-0.00177001953125,0.0208282470703125
1776445411205750300,1.484750244140625,-1.0239105224609375,-0.02801513671875,-0.000213623046875
1776445411230766300,1.509766357421875,-1.012359619140625,-0.018707275390625,-0.063079833984375
1776445411255782400,1.534782470703125,-0.9586334228515625,-0.0050201416015625,-0.07568359375
1776445411280798200,1.559798095703125,-0.94451904296875,0.011474609375,-0.0622100830078125
1776445411305814300,1.584814208984375,-0.937713623046875,0.033477783203125,-0.07037353515625
1776445411330830300,1.609830322265625,-0.9901885986328125,0.0009613037109375,-0.0174407958984375
1776445411355846400,1.634846435546875,-1.01055908203125,0.014312744140625,0.05157470703125
1776445411380861200,1.659861083984375,-1.015777587890625,0.00048828125,0.0149993896484375
1776445411405877200,1.684877197265625,-0.9802398681640625,0.0006866455078125,-0.0253753662109375
1776445411430893000,1.70989306640625,-1.04052734375,-0.02386474609375,-0.0142669677734375
1776445411455909400,1.734909423828125,-1.0518798828125,-0.0405426025390625,-0.000946044921875
1776445411480925400,1.759925537109375,-1.0018310546875,-0.018798828125,-0.0235443115234375
1776445411505941500,1.78494140625,-1.038818359375,-0.0118560791015625,-0.0434722900390625
1776445411530957300,1.809957275390625,-0.9927215576171875,-0.0226287841796875,-0.0186767578125
1776445411555972400,1.834972412109375,-1.0129547119140625,-0.0102081298828125,0.0275115966796875
1776445411580988400,1.859988525390625,-1.04937744140625,-0.004974365234375,0.0324554443359375
1776445411606004200,1.885004150390625,-1.0060577392578125,-0.014678955078125,0.012420654296875
1776445411631020300,1.910020263671875,-1.05780029296875,0.0078582763671875,0.081817626953125
1776445411656032800,1.93503271484375,-1.024383544921875,0.0302276611328125,0.068939208984375
1776445411681048800,1.960048828125,-0.9474945068359375,0.000244140625,0.0108642578125
1776445411706064600,1.985064697265625,-1.0134124755859375,0.0183868408203125,0.080963134765625
1776445411731080000,2.010079833984375,-1.031280517578125,-0.0053863525390625,0.0848541259765625
1776445411756096000,2.035095947265625,-1.022613525390625,-0.0183563232421875,0.0738677978515625
1776445411781111800,2.06011181640625,-1.0470733642578125,-0.050567626953125,-0.11163330078125
1776445411806127900,2.0851279296875,-1.1153717041015625,-0.0346221923828125,-0.0210113525390625
1776445411831144000,2.11014404296875,-1.0615997314453125,-0.0159454345703125,0.0059814453125
1776445411856159700,2.13515966796875,-1.00030517578125,0.01416015625,-0.017486572265625
1776445411881175800,2.16017578125,-0.948974609375,0.0184783935546875,-0.0784149169921875
1776445411906190800,2.18519091796875,-0.995330810546875,0.0447845458984375,-0.1187744140625
1776445411931206700,2.21020654296875,-0.9324493408203125,-0.007781982421875,0.01165771484375
1776445411956222700,2.23522265625,-1.0352935791015625,0.015380859375,-0.0172576904296875
1776445411981238800,2.26023876953125,-1.022674560546875,-0.01202392578125,-0.135833740234375
1776445412006254800,2.2852548828125,-0.9792327880859375,-0.069976806640625,-0.0779571533203125
1776445412031270700,2.310270751953125,-0.990020751953125,-0.119354248046875,0.004364013671875
1776445412056286700,2.33528662109375,-0.9538726806640625,-0.143402099609375,0.0165252685546875
1776445412081302800,2.360302734375,-1.0129547119140625,-0.128936767578125,0.0281829833984375
1776445412106318600,2.385318603515625,-0.9762725830078125,-0.1212921142578125,-0.032501220703125
1776445412131334000,2.410333984375,-0.9619293212890625,-0.109649658203125,-0.10064697265625
1776445412156350000,2.435349853515625,-0.928680419921875,-0.0812835693359375,-0.0880889892578125
1776445412181365800,2.46036572265625,-0.9479827880859375,-0.058380126953125,-0.115936279296875
1776445412206381800,2.4853818359375,-0.9849700927734375,-0.0829620361328125,-0.1698150634765625
1776445412231398000,2.51039794921875,-1.0011749267578125,-0.1227264404296875,-0.1168670654296875
1776445412256413700,2.53541357421875,-0.97100830078125,-0.18798828125,-0.11016845703125
1776445412281429800,2.5604296875,-0.9944305419921875,-0.1837005615234375,-0.109588623046875
1776445412306445800,2.58544580078125,-0.9901885986328125,-0.1411895751953125,-0.0238037109375
1776445412331460600,2.610460693359375,-1.0142822265625,-0.141845703125,0.0160369873046875
1776445412356476700,2.6354765625,-1.000335693359375,-0.1731719970703125,-0.003082275390625
1776445412381492700,2.66049267578125,-0.93353271484375,-0.1230621337890625,-0.093536376953125
1776445412406508800,2.6855087890625,-0.991119384765625,-0.1039886474609375,-0.085235595703125
1776445412431524900,2.71052490234375,-1.0005645751953125,-0.1397552490234375,-0.0843353271484375
1776445412456541000,2.735541015625,-1.0179443359375,-0.140594482421875,-0.064300537109375
1776445412481557000,2.760556884765625,-0.9772491455078125,-0.091888427734375,-0.02618408203125
1776445412506572800,2.78557275390625,-0.97259521484375,-0.06982421875,-0.0161590576171875
1776445412531588900,2.8105888671875,-0.9719085693359375,-0.062774658203125,-0.074859619140625
1776445412556605000,2.83560498046875,-0.978363037109375,-0.138427734375,-0.0486602783203125
1776445412581619700,2.86061962890625,-1.0102996826171875,-0.1972198486328125,-0.0382537841796875
1776445412606635800,2.8856357421875,-1.0069732666015625,-0.1550750732421875,-0.0709991455078125
1776445412631651800,2.91065185546875,-1.0300140380859375,-0.161376953125,-0.034576416015625
1776445412656667400,2.93566748046875,-1.0126953125,-0.1988067626953125,-0.040924072265625
1776445412681683200,2.96068310546875,-1.034820556640625,-0.16888427734375,-0.046630859375
1776445412706699300,2.98569921875,-1.0035858154296875,-0.07806396484375,-0.0745391845703125
1776445412731715300,3.01071533203125,-0.9793548583984375,-0.0064239501953125,-0.04486083984375
1776445412756731400,3.0357314453125,-0.9698486328125,-0.0942230224609375,-0.047271728515625
1776445412781747500,3.06074755859375,-0.9487762451171875,-0.125579833984375,-0.072540283203125
1776445412806763500,3.085763427734375,-0.996185302734375,-0.1446075439453125,-0.052093505859375
1776445412831778600,3.110778564453125,-0.9742584228515625,-0.0948638916015625,-0.08380126953125
1776445412856794400,3.13579443359375,-0.9483489990234375,-0.0804290771484375,-0.1564178466796875
1776445412881810400,3.160810546875,-0.9744720458984375,-0.140228271484375,-0.1912384033203125
1776445412906826500,3.185826416015625,-1.061431884765625,-0.1884613037109375,-0.1396942138671875
1776445412931842300,3.21084228515625,-1.0522613525390625,-0.12225341796875,-0.1389617919921875
1776445412956858400,3.2358583984375,-0.9531402587890625,-0.034637451171875,-0.2590484619140625
1776445412981874400,3.26087451171875,-0.981689453125,-0.082916259765625,-0.257598876953125
1776445413006890500,3.285890380859375,-1.0578765869140625,-0.133331298828125,-0.237823486328125
1776445413031906300,3.31090625,-1.0662689208984375,-0.0608367919921875,-0.2860565185546875
1776445413056922400,3.33592236328125,-0.9926300048828125,-0.0486297607421875,-0.354583740234375
1776445413081938400,3.3609384765625,-0.930084228515625,-0.1457366943359375,-0.3315887451171875
1776445413106954200,3.385954345703125,-1.0329437255859375,-0.11151123046875,-0.23736572265625
1776445413131969500,3.410969482421875,-1.109588623046875,-0.1253814697265625,-0.1956024169921875
1776445413156985600,3.435985595703125,-1.0809173583984375,-0.1339569091796875,-0.187286376953125
1776445413182001400,3.46100146484375,-1.0144500732421875,-0.067047119140625,-0.1814727783203125
1776445413207017500,3.486017578125,-1.0559234619140625,-0.004791259765625,-0.1296539306640625
1776445413232033500,3.511033447265625,-1.0339202880859375,0.0174713134765625,-0.097564697265625
1776445413257049300,3.53604931640625,-0.91766357421875,0.0305633544921875,-0.1006927490234375
1776445413282065400,3.5610654296875,-0.9022216796875,0.0686187744140625,-0.05645751953125
1776445413307081500,3.58608154296875,-0.91949462890625,0.0772247314453125,0.031646728515625
1776445413332097500,3.61109765625,-0.8851165771484375,0.080718994140625,0.078460693359375
1776445413357113300,3.63611328125,-0.8880767822265625,0.1107635498046875,0.064056396484375
1776445413382129400,3.66112939453125,-0.8543701171875,0.0317840576171875,-0.083465576171875
1776445413407145500,3.6861455078125,-0.9301300048828125,0.0943450927734375,-0.0364227294921875
1776445413432161300,3.711161376953125,-0.914886474609375,0.0606536865234375,-0.06695556640625
1776445413457177300,3.73617724609375,-0.9789581298828125,-0.061492919921875,-0.1480560302734375
1776445413482192600,3.761192626953125,-1.1103973388671875,-0.1104278564453125,-0.1850433349609375
1776445413507208400,3.78620849609375,-1.0693817138671875,-0.0646209716796875,-0.1528778076171875
1776445413532224500,3.811224609375,-0.9534912109375,-0.0495758056640625,-0.14166259765625
1776445413557240600,3.836240478515625,-0.95098876953125,-0.047027587890625,-0.04144287109375
1776445413582256400,3.86125634765625,-0.9757843017578125,0.029693603515625,-0.1268768310546875
1776445413607272400,3.8862724609375,-1.0468292236328125,0.003265380859375,-0.2208404541015625
1776445413632288500,3.91128857421875,-0.8977813720703125,0.06024169921875,-0.2113037109375
1776445413657304600,3.9363046875,-0.9446563720703125,0.0733642578125,-0.11328125
1776445413682320600,3.961320556640625,-1.0654144287109375,0.0718994140625,-0.1436004638671875
1776445413707336700,3.986336669921875,-0.8466949462890625,0.1057586669921875,-0.176513671875
1776445413732352500,4.0113525390625,-0.8064422607421875,0.2351837158203125,-0.0913848876953125
1776445413757368600,4.03636865234375,-0.8195953369140625,0.1706695556640625,-0.1561126708984375
1776445413782384600,4.061384521484375,-0.84674072265625,0.07940673828125,-0.313812255859375
1776445413807400400,4.086400390625,-0.884796142578125,-0.177764892578125,-0.432769775390625
1776445413832416500,4.11141650390625,-0.9378204345703125,-0.1827239990234375,-0.2313385009765625
1776445413857432600,4.1364326171875,-1.110260009765625,-0.1396942138671875,-0.021270751953125
1776445413882448400,4.161448486328125,-1.2299652099609375,-0.1624603271484375,0.11480712890625
1776445413907463400,4.18646337890625,-1.102691650390625,-0.2049713134765625,0.0693511962890625
1776445413932479700,4.211479736328125,-1.0850372314453125,-0.241546630859375,0.0127410888671875
1776445413957495600,4.23649560546875,-1.04693603515625,-0.25091552734375,0.0018768310546875
1776445413982511600,4.26151171875,-1.0034942626953125,-0.221923828125,0.0541839599609375
1776445414007527700,4.286527587890625,-1.0465545654296875,-0.205322265625,0.09100341796875
1776445414032543700,4.311543701171875,-1.015777587890625,-0.21588134765625,0.087493896484375
1776445414057559600,4.3365595703125,-0.9925384521484375,-0.235565185546875,0.0446929931640625
1776445414082575600,4.36157568359375,-0.936920166015625,-0.1768341064453125,-0.0082244873046875
1776445414107591700,4.386591796875,-0.9355010986328125,-0.083526611328125,-0.00494384765625
1776445414132607500,4.411607421875,-0.9316558837890625,-0.0252685546875,0.00616455078125
1776445414157623600,4.43662353515625,-0.8947601318359375,-0.0139923095703125,-0.024658203125
1776445414182639600,4.4616396484375,-0.942230224609375,0.006744384765625,-0.0601654052734375
1776445414207655400,4.486655517578125,-0.951324462890625,0.0018463134765625,-0.0819244384765625
1776445414232671500,4.51167138671875,-0.9951171875,0.02191162109375,-0.06719970703125
1776445414257687600,4.5366875,-1.0157012939453125,0.0646209716796875,-0.079315185546875
1776445414282703600,4.56170361328125,-0.976654052734375,0.057159423828125,-0.1114044189453125
1776445414307719400,4.586719482421875,-0.9995269775390625,0.0759124755859375,-0.1112518310546875
1776445414332735500,4.611735595703125,-1.003387451171875,0.09991455078125,-0.0756988525390625
1776445414357751600,4.63675146484375,-1.011871337890625,0.098846435546875,-0.078857421875
1776445414382767400,4.661767333984375,-0.990234375,0.0672760009765625,-0.09613037109375
1776445414407783400,4.686783447265625,-1.0535736083984375,0.001129150390625,-0.0239105224609375
1776445414432799500,4.711799560546875,-1.0200958251953125,0.023590087890625,-0.0399932861328125
1776445414457815600,4.736815673828125,-1.073822021484375,0.047698974609375,0.0728607177734375
1776445414482830600,4.76183056640625,-1.1408233642578125,0.061065673828125,0.233642578125
1776445414507846700,4.7868466796875,-1.0192413330078125,0.169342041015625,0.26544189453125
1776445414532862700,4.81186279296875,-0.88262939453125,0.164642333984375,0.0279541015625
1776445414557878500,4.83687841796875,-0.87298583984375,0.0874481201171875,-0.013519287109375
1776445414582894600,4.86189453125,-1.0208282470703125,0.0258636474609375,0.0794525146484375
1776445414607910700,4.88691064453125,-1.04827880859375,0.01373291015625,0.1056060791015625
1776445414632926500,4.911926513671875,-1.0611724853515625,0.0027618408203125,0.12255859375
1776445414657942500,4.936942626953125,-0.97930908203125,-0.057464599609375,0.0774688720703125
1776445414682958600,4.96195849609375,-0.9701385498046875,-0.0860595703125,-0.01007080078125
1776445414707974400,4.986974365234375,-0.956451416015625,0.1058349609375,0.1640777587890625
1776445414732990500,5.011990478515625,-1.0198974609375,0.0478515625,0.04815673828125
1776445414758006500,5.037006591796875,-0.979461669921875,-0.0210723876953125,0.04638671875
1776445414783022600,5.062022705078125,-1.0053253173828125,-0.04107666015625,0.003814697265625
1776445414808038400,5.087038330078125,-0.9851531982421875,-0.04217529296875,-0.0766754150390625
1776445414833054500,5.112054443359375,-0.9054107666015625,-0.0438232421875,0.011474609375
1776445414858070500,5.137070556640625,-0.97113037109375,-0.1214599609375,0.13262939453125
1776445414883086300,5.16208642578125,-1.0439910888671875,-0.087493896484375,0.2950897216796875
1776445414908102400,5.187102294921875,-1.191558837890625,0.02447509765625,0.37060546875
1776445414933118500,5.212118408203125,-1.0834808349609375,0.0045013427734375,0.1415557861328125
1776445414958134500,5.237134521484375,-0.9619293212890625,-0.06365966796875,0.0345611572265625
1776445414983150600,5.262150634765625,-0.9404296875,-0.1045074462890625,0.0783233642578125
1776445415008166700,5.287166748046875,-1.036376953125,-0.0478668212890625,0.2052459716796875
1776445415033182700,5.3121826171875,-1.0758209228515625,-0.0401611328125,0.1301116943359375
1776445415058198500,5.337198486328125,-0.87091064453125,-0.06646728515625,-0.0171051025390625
1776445415083214600,5.362214599609375,-0.867095947265625,-0.1054229736328125,0.007049560546875
1776445415108230700,5.387230712890625,-0.9709014892578125,-0.126861572265625,0.16766357421875
1776445415133246700,5.412246826171875,-1.009613037109375,-0.1133575439453125,0.163848876953125
1776445415158262500,5.437262451171875,-0.9250640869140625,-0.1072845458984375,0.065765380859375
1776445415183278600,5.462278564453125,-0.844329833984375,-0.0914459228515625,0.1508636474609375
1776445415208294700,5.487294677734375,-0.944091796875,-0.07293701171875,0.1808929443359375
1776445415233310500,5.512310546875,-1.002838134765625,-0.015106201171875,0.134033203125
1776445415258326500,5.537326416015625,-0.9742584228515625,-0.0063018798828125,0.133056640625
1776445415283342600,5.562342529296875,-0.930999755859375,-0.019805908203125,0.209442138671875
1776445415308358400,5.5873583984375,-1.0135040283203125,0.0277099609375,0.231109619140625
1776445415333374500,5.61237451171875,-1.0752410888671875,0.0690460205078125,0.202178955078125
1776445415358390500,5.637390625,-1.0648345947265625,0.058837890625,0.180694580078125
1776445415383406600,5.662406494140625,-0.9536590576171875,0.0209503173828125,0.2160186767578125
1776445415408422400,5.68742236328125,-0.9510498046875,-0.020294189453125,0.1970062255859375
1776445415433438500,5.7124384765625,-0.9724578857421875,-0.05584716796875,0.157562255859375
1776445415458454500,5.73745458984375,-0.9762115478515625,-0.032379150390625,0.0493927001953125
1776445415483470300,5.76247021484375,-1.0546112060546875,0.0294342041015625,0.1450042724609375
1776445415508485600,5.787485595703125,-0.8609161376953125,-0.0863800048828125,0.142059326171875
1776445415533501700,5.812501708984375,-0.914337158203125,-0.1257781982421875,0.0960693359375
1776445415558517500,5.837517578125,-1.00946044921875,-0.1649017333984375,0.0821380615234375
1776445415583533600,5.862533447265625,-1.1454010009765625,-0.1704254150390625,0.160064697265625
1776445415608549600,5.887549560546875,-1.2492523193359375,-0.341094970703125,0.045745849609375
1776445415633565700,5.912565673828125,-1.063201904296875,-0.0348358154296875,0.036773681640625
1776445415658582000,5.93758203125,-0.94891357421875,0.1270294189453125,-0.0682220458984375
1776445415683598000,5.96259814453125,-0.843719482421875,0.2603302001953125,-0.045166015625
1776445415708614100,5.9876142578125,-0.8678436279296875,0.279083251953125,-0.00408935546875
1776445415733630000,6.0126298828125,-0.985992431640625,0.189727783203125,0.04620361328125
1776445415758646000,6.03764599609375,-0.9950714111328125,-0.0185546875,-0.167205810546875
1776445415783662000,6.062662109375,-0.9753265380859375,-0.14874267578125,-0.1283721923828125
1776445415808678100,6.08767822265625,-0.97802734375,-0.1869964599609375,-0.085052490234375
1776445415833694000,6.11269384765625,-0.9766693115234375,-0.1307525634765625,0.001617431640625
1776445415858710000,6.1377099609375,-0.9462890625,-0.0689697265625,0.073822021484375
1776445415883726000,6.16272607421875,-0.992034912109375,-0.08935546875,0.103057861328125
1776445415908742000,6.187741943359375,-1.0015106201171875,-0.1262359619140625,0.1188201904296875
1776445415933758000,6.212758056640625,-1.1198272705078125,-0.19390869140625,0.1375579833984375
1776445415958774000,6.23777392578125,-1.045623779296875,-0.2062530517578125,0.115753173828125
1776445415983790000,6.2627900390625,-1.0356292724609375,-0.1916961669921875,0.0908355712890625
1776445416008806000,6.287805908203125,-1.0676727294921875,-0.1756591796875,0.0890960693359375
1776445416033822000,6.312822021484375,-1.0341949462890625,-0.147125244140625,0.0516815185546875
1776445416058838000,6.337838134765625,-0.936065673828125,-0.1561431884765625,0.0055084228515625
1776445416083854000,6.36285400390625,-0.95849609375,-0.15191650390625,-0.0174102783203125
1776445416108870100,6.3878701171875,-0.95037841796875,-0.118621826171875,0.0089569091796875
1776445416133886200,6.41288623046875,-1.0104217529296875,-0.040618896484375,-0.067840576171875
1776445416158902000,6.437902099609375,-0.9876861572265625,-0.00830078125,-0.1099090576171875
1776445416183918000,6.46291796875,-0.9846343994140625,-0.010284423828125,-0.0856170654296875
1776445416208934100,6.48793408203125,-0.9641571044921875,-0.069061279296875,-0.041595458984375
1776445416233950200,6.5129501953125,-1.056060791015625,-0.1126861572265625,-0.02227783203125
1776445416258966000,6.537966064453125,-1.029510498046875,-0.142608642578125,-0.10797119140625
1776445416283982000,6.562982177734375,-0.985870361328125,-0.1225128173828125,-0.14788818359375
1776445416308998100,6.587998046875,-1.0349884033203125,-0.0807037353515625,-0.134246826171875
1776445416334014000,6.613013916015625,-1.001556396484375,-0.0685272216796875,-0.1225433349609375
1776445416359030000,6.638030029296875,-0.959259033203125,-0.025299072265625,-0.0719146728515625
1776445416384046000,6.663046142578125,-0.9937744140625,0.0959625244140625,-0.0394134521484375
1776445416409062100,6.688062255859375,-1.001983642578125,0.2076873779296875,0.0016937255859375
1776445416434078000,6.713077880859375,-1.0137176513671875,0.1817779541015625,-0.0096282958984375
1776445416459094000,6.738093994140625,-0.9904327392578125,0.1147003173828125,-0.03155517578125
1776445416484110000,6.763110107421875,-0.9954071044921875,0.072021484375,-0.061187744140625
1776445416509126000,6.7881259765625,-0.9684295654296875,-0.0513763427734375,-0.0531005859375
1776445416534142000,6.813141845703125,-1.011138916015625,-0.0811767578125,-0.0672149658203125
1776445416559158000,6.838157958984375,-1.0368499755859375,-0.0446014404296875,-0.082000732421875
1776445416584174000,6.863174072265625,-1.0285797119140625,-0.06610107421875,-0.1007537841796875
1776445416609190000,6.88818994140625,-0.9912261962890625,-0.0038604736328125,-0.0874481201171875
1776445416634206000,6.9132060546875,-0.9708251953125,-0.0688934326171875,-0.044342041015625
1776445416659221800,6.9382216796875,-0.912139892578125,-0.095428466796875,-0.10772705078125
1776445416684237800,6.96323779296875,-0.867584228515625,-0.1980438232421875,-0.1946563720703125
1776445416709254000,6.98825390625,-1.03985595703125,-0.204925537109375,-0.083648681640625
1776445416734269700,7.013269775390625,-1.091705322265625,-0.14508056640625,-0.0012359619140625
1776445416759285800,7.03828564453125,-1.0683135986328125,-0.1804046630859375,-0.10400390625
1776445416784301800,7.0633017578125,-1.1541595458984375,-0.2202606201171875,-0.118377685546875
1776445416809317600,7.088317626953125,-1.053955078125,-0.1550750732421875,-0.062530517578125
1776445416834333700,7.113333740234375,-0.9504852294921875,-0.095458984375,0.0289459228515625
1776445416859349800,7.138349853515625,-0.9656829833984375,-0.089752197265625,0.0960235595703125
1776445416884365600,7.163365478515625,-0.971099853515625,-0.074615478515625,0.0374755859375
1776445416909382700,7.188382568359375,-0.913055419921875,-0.0562744140625,-0.0240325927734375
1776445416934397700,7.213397705078125,-0.881744384765625,-0.0453643798828125,-0.0226898193359375
1776445416959414800,7.238414794921875,-0.8972930908203125,-0.048309326171875,0.05780029296875
1776445416984430600,7.2634306640625,-0.8646240234375,-0.0006103515625,0.103668212890625
1776445417009446700,7.28844677734375,-0.855499267578125,-0.0160064697265625,0.0830535888671875
1776445417034462700,7.313462646484375,-0.7853240966796875,-0.0754547119140625,0.0163421630859375
1776445417059478800,7.338478759765625,-0.9562530517578125,-0.09197998046875,0.0651397705078125
1776445417084494600,7.36349462890625,-1.1700439453125,-0.184539794921875,0.2532196044921875
1776445417109510700,7.3885107421875,-1.27850341796875,-0.38580322265625,-0.0548248291015625
1776445417134526700,7.413526611328125,-0.9875030517578125,-0.2320404052734375,0.0215606689453125
1776445417159542500,7.43854248046875,-0.9575347900390625,-0.097564697265625,-0.04180908203125
1776445417184558600,7.46355859375,-0.935150146484375,-0.1490936279296875,0.0197601318359375
1776445417209574700,7.48857470703125,-0.9713592529296875,-0.0518646240234375,-0.0885162353515625
1776445417234590700,7.5135908203125,-0.7392730712890625,0.1090240478515625,-0.2388916015625
1776445417259606500,7.5386064453125,-0.662841796875,-0.0472259521484375,-0.17840576171875
1776445417284622600,7.56362255859375,-0.84515380859375,-0.1032562255859375,-0.1086273193359375
1776445417309638700,7.588638671875,-1.061492919921875,-0.183868408203125,0.1210784912109375
1776445417334654500,7.613654541015625,-1.231353759765625,-0.0569000244140625,0.31561279296875
1776445417359670500,7.63867041015625,-1.2958831787109375,-0.13201904296875,0.21026611328125
1776445417384686600,7.6636865234375,-0.9931640625,-0.0645751953125,0.0079803466796875
1776445417409702700,7.68870263671875,-0.9226226806640625,-0.0454864501953125,-0.1347198486328125
1776445417434718700,7.71371875,-0.962371826171875,-0.042327880859375,-0.2064208984375
1776445417459734800,7.73873486328125,-0.9874420166015625,0.0158538818359375,-0.2096710205078125
1776445417484750800,7.763750732421875,-1.0436553955078125,0.0331268310546875,-0.11083984375
1776445417509766700,7.7887666015625,-1.1138153076171875,0.0234832763671875,-0.0255584716796875
1776445417534782700,7.81378271484375,-1.0802154541015625,0.0128936767578125,-0.0888671875
1776445417559798800,7.838798828125,-0.9834747314453125,0.0313262939453125,-0.1461944580078125
1776445417584814800,7.86381494140625,-1.00714111328125,0.030548095703125,-0.1225128173828125
1776445417609830700,7.88883056640625,-1.0015716552734375,-0.038818359375,-0.0191192626953125
1776445417634846700,7.9138466796875,-0.976287841796875,-0.0288848876953125,0.07733154296875
1776445417659862800,7.93886279296875,-1.0343475341796875,-0.0856781005859375,-0.0086212158203125
1776445417684878800,7.96387890625,-1.028717041015625,-0.0473480224609375,-0.057159423828125
1776445417709894700,7.988894775390625,-0.95831298828125,0.084197998046875,0.02117919921875
1776445417734910700,8.01391064453125,-0.936767578125,0.13128662109375,0.0538330078125
1776445417759926800,8.0389267578125,-0.8981170654296875,-0.0445556640625,0.0470733642578125
1776445417784942600,8.063942626953125,-1.122833251953125,0.00262451171875,0.205963134765625
1776445417809958700,8.088958740234375,-1.1364898681640625,-0.0106964111328125,0.2044525146484375
1776445417834974700,8.113974609375,-1.1187744140625,0.0082550048828125,0.06304931640625
1776445417859990500,8.138990478515625,-1.0330047607421875,0.0090484619140625,0.05169677734375
1776445417885006600,8.164006591796875,-0.9263153076171875,0.064117431640625,0.091888427734375
1776445417910022700,8.189022705078125,-0.95111083984375,0.114501953125,0.1193389892578125
1776445417935038700,8.214038818359375,-0.897613525390625,0.1724700927734375,0.0628662109375
1776445417960054500,8.239054443359375,-0.88568115234375,0.1873321533203125,-0.04962158203125
1776445417985070600,8.264070556640625,-0.9027557373046875,0.1907196044921875,-0.0010833740234375
1776445418010086700,8.289086669921875,-1.0026397705078125,0.12939453125,0.035125732421875
1776445418035102700,8.314102783203126,-0.931976318359375,0.08740234375,0.073028564453125
1776445418060118800,8.339118896484376,-0.9640350341796875,0.0978546142578125,0.1358642578125
1776445418085135600,8.364135498046876,-1.0158538818359375,0.091064453125,0.1720428466796875
1776445418110151700,8.389151611328124,-1.01605224609375,0.0997314453125,0.1717987060546875
1776445418135167500,8.41416748046875,-1.062042236328125,0.0341949462890625,0.117431640625
1776445418160183600,8.43918359375,-1.0354766845703125,-0.0032196044921875,0.0707244873046875
1776445418185199600,8.46419970703125,-1.0153656005859375,0.02392578125,0.0326995849609375
1776445418210215700,8.489215576171874,-0.9581146240234375,0.0131988525390625,-0.0122528076171875
1776445418235231700,8.514231689453124,-0.956207275390625,-0.10595703125,-0.0923614501953125
1776445418260247800,8.539247802734375,-0.9701690673828125,-0.1199951171875,-0.077728271484375
1776445418285264000,8.564263916015625,-0.9955596923828125,-0.025482177734375,-0.0840911865234375
1776445418310279700,8.58927978515625,-0.99761962890625,-0.0407562255859375,-0.0638885498046875
1776445418335295700,8.614295654296875,-0.9904632568359375,0.009552001953125,0.117340087890625
1776445418360311800,8.639311767578125,-0.9839630126953125,0.0249176025390625,0.2365264892578125
1776445418385327900,8.664327880859375,-0.863677978515625,0.017974853515625,0.087371826171875
1776445418410343700,8.68934375,-0.7707061767578125,0.0344390869140625,0.125213623046875
1776445418435359700,8.71435986328125,-1.009521484375,-0.000274658203125,0.2105712890625
1776445418460375800,8.739375732421875,-1.0186767578125,0.0290985107421875,0.3653411865234375
1776445418485391600,8.7643916015625,-1.0941619873046875,-0.0355377197265625,0.490753173828125
1776445418510407700,8.78940771484375,-1.0742340087890625,-0.08428955078125,0.45843505859375
1776445418535423700,8.814423828125,-1.1681060791015625,-0.00714111328125,0.470550537109375
1776445418560439800,8.839439697265625,-1.0583343505859375,-0.0517730712890625,0.3667449951171875
1776445418585455600,8.86445556640625,-0.9388580322265625,-0.102142333984375,0.25518798828125
1776445418610471700,8.8894716796875,-1.00201416015625,-0.0522003173828125,0.1770172119140625
1776445418635487700,8.91448779296875,-0.972381591796875,-0.0318756103515625,0.117767333984375
1776445418660504000,8.939504150390626,-0.9647216796875,0.0345001220703125,0.084564208984375
1776445418685520000,8.964519775390626,-0.97119140625,0.1186370849609375,0.0246734619140625
1776445418710536000,8.989535888671876,-0.97113037109375,0.16265869140625,0.0100250244140625
1776445418735552000,9.014552001953126,-0.9704437255859375,0.1557159423828125,-0.0155181884765625
1776445418760569000,9.039569091796874,-0.936553955078125,0.2075958251953125,0.0988922119140625
1776445418785585000,9.0645849609375,-1.014495849609375,0.346405029296875,-0.136505126953125
1776445418810601000,9.08960107421875,-0.8834381103515625,0.1997833251953125,-0.1047210693359375
1776445418835617000,9.114616943359374,-0.80303955078125,-0.06878662109375,-0.172088623046875
1776445418860633000,9.139633056640625,-1.0924224853515625,-0.0524749755859375,0.0023345947265625
1776445418885649000,9.16464892578125,-1.03302001953125,0.0347442626953125,0.28668212890625
1776445418910665000,9.1896650390625,-1.0395355224609375,0.008209228515625,0.1548614501953125
1776445418935681000,9.214680908203125,-0.92291259765625,0.0154571533203125,-0.017547607421875
1776445418960696800,9.23969677734375,-1.0751495361328125,0.20391845703125,-0.08154296875
1776445418985713000,9.264712890625,-0.9560546875,0.00531005859375,0.1807098388671875
1776445419010729000,9.28972900390625,-1.00372314453125,0.056915283203125,0.227935791015625
1776445419035745000,9.3147451171875,-1.254547119140625,-0.0831146240234375,0.095977783203125
1776445419060761000,9.339760986328125,-0.963226318359375,0.02569580078125,-0.0892333984375
1776445419085777200,9.364777099609375,-0.788909912109375,0.080474853515625,-0.28814697265625
1776445419110793200,9.389793212890625,-0.880126953125,-0.0156097412109375,-0.1284942626953125
1776445419135809000,9.41480908203125,-1.1665191650390625,-0.1671142578125,0.15771484375
1776445419160825000,9.4398251953125,-1.0922393798828125,-0.2158355712890625,-0.1244354248046875
1776445419185841200,9.464841064453125,-0.927520751953125,-0.105621337890625,-0.2200927734375
1776445419210857200,9.489857177734375,-0.944091796875,-0.0285797119140625,0.023284912109375
1776445419235873000,9.514873046875,-1.0888824462890625,-0.0372467041015625,0.0948944091796875
1776445419260889000,9.53988916015625,-1.0469970703125,-0.073638916015625,0.0057220458984375
1776445419285906200,9.56490625,-1.007415771484375,-0.0653076171875,-0.119781494140625
1776445419310922200,9.589922119140626,-0.965667724609375,-0.0591888427734375,-0.1325836181640625
1776445419335938000,9.61493798828125,-1.067840576171875,-0.0240325927734375,0.083831787109375
1776445419360954000,9.6399541015625,-1.0936279296875,-0.1013336181640625,-0.0037689208984375
1776445419385970200,9.66497021484375,-1.03436279296875,-0.1103973388671875,-0.1911163330078125
1776445419410986000,9.689986083984374,-0.9715576171875,-0.00201416015625,-0.1147003173828125
1776445419436002000,9.715001953125,-1.0015716552734375,0.0519561767578125,-0.1874237060546875
1776445419461018000,9.74001806640625,-1.0621795654296875,0.1380157470703125,-0.281402587890625
1776445419486034200,9.7650341796875,-0.829803466796875,0.0241546630859375,-0.0330352783203125
1776445419511050000,9.790050048828125,-0.9749755859375,0.0332183837890625,0.1051177978515625
1776445419536066000,9.815066162109375,-0.862701416015625,-0.0705108642578125,0.1413116455078125
1776445419561082000,9.84008203125,-1.06158447265625,-0.0199127197265625,0.1198577880859375
1776445419586098000,9.865097900390625,-1.0405426025390625,-0.0037841796875,-0.1246490478515625
1776445419611114000,9.890114013671875,-1.0093536376953125,-0.034912109375,-0.0982513427734375
1776445419636130000,9.915130126953125,-0.83001708984375,-0.087158203125,0.0216064453125
1776445419661146000,9.94014599609375,-0.871307373046875,-0.10894775390625,0.0177764892578125
1776445419686162200,9.965162109375,-1.0529327392578125,-0.1757965087890625,0.212738037109375
1776445419711178200,9.99017822265625,-1.2227325439453125,-0.226348876953125,0.37713623046875
1776445419736194000,10.015194091796875,-1.1207427978515625,0.1828765869140625,0.4833984375
1776445419761210000,10.040210205078125,-1.0951080322265625,0.038238525390625,0.3506927490234375
1776445419786227200,10.065227294921876,-1.0796966552734375,-0.0831146240234375,0.197296142578125
1776445419811243300,10.0902431640625,-1.104644775390625,-0.004119873046875,-0.0874786376953125
1776445419836259000,10.115259033203126,-0.8889312744140625,-0.0619964599609375,-0.02783203125
1776445419861275100,10.140275146484376,-0.8227691650390625,0.01629638671875,0.06781005859375
1776445419886291200,10.165291259765626,-0.882537841796875,0.072540283203125,-0.0777130126953125
1776445419911307000,10.19030712890625,-0.8712310791015625,0.03155517578125,-0.1715850830078125
1776445419936323000,10.215322998046876,-0.892059326171875,-0.033538818359375,-0.2018585205078125
1776445419961339100,10.240339111328124,-0.885101318359375,-0.045013427734375,-0.17041015625
1776445419986355200,10.265355224609374,-0.9725341796875,-0.001953125,-0.1131591796875
1776445420011371000,10.29037109375,-0.9550628662109375,0.0503082275390625,-0.13494873046875
1776445420036387300,10.31538720703125,-0.9497528076171875,0.00909423828125,-0.0080413818359375
1776445420061403400,10.3404033203125,-1.005828857421875,0.0566864013671875,-0.01080322265625
1776445420086419200,10.365419189453124,-0.9755096435546875,0.0545196533203125,0.0940399169921875
1776445420111435300,10.390435302734375,-1.0811920166015625,0.068115234375,0.1208038330078125
1776445420136451300,10.415451416015625,-1.0564422607421875,-0.08831787109375,-0.050567626953125
1776445420161467400,10.44046728515625,-1.107330322265625,-0.071136474609375,-0.0075225830078125
1776445420186483200,10.465483154296875,-1.236541748046875,-0.0543975830078125,0.085235595703125
1776445420211500300,10.490500244140625,-1.0523529052734375,-0.002899169921875,-0.132598876953125
1776445420236516400,10.515516357421875,-0.8558502197265625,-0.0260467529296875,-0.3434600830078125
1776445420261532400,10.540532470703125,-0.8663177490234375,-0.1231536865234375,-0.28533935546875
1776445420286548200,10.56554833984375,-0.9491729736328125,0.000640869140625,-0.1169586181640625
1776445420311564300,10.590564208984375,-1.087493896484375,-0.003143310546875,-0.0242919921875
1776445420336580400,10.615580322265625,-1.097869873046875,-0.1284027099609375,-0.0379791259765625
1776445420361596200,10.64059619140625,-1.043304443359375,-0.088531494140625,-0.0020751953125
1776445420386612200,10.6656123046875,-0.9835357666015625,-0.1371612548828125,0.019866943359375
1776445420411628300,10.690628173828125,-1.0326385498046875,0.009307861328125,0.170135498046875
1776445420436644400,10.715644287109376,-0.974090576171875,0.042022705078125,0.205718994140625
1776445420461660200,10.74066015625,-0.8990478515625,0.0077362060546875,0.16522216796875
1776445420486676200,10.76567626953125,-0.8199462890625,0.047271728515625,0.1443023681640625
1776445420511692300,10.7906923828125,-0.793670654296875,-0.0868377685546875,0.157745361328125
1776445420536708000,10.8157080078125,-0.9175567626953125,-0.124542236328125,0.359954833984375
1776445420561724200,10.84072412109375,-1.04888916015625,-0.4079132080078125,0.0733642578125
1776445420586740200,10.865740234375,-1.52850341796875,-0.4779510498046875,-0.117706298828125
1776445420611757300,10.89075732421875,-0.9263916015625,-0.2757415771484375,-0.057220458984375
1776445420636773000,10.915773193359374,-0.93841552734375,-0.2220916748046875,-0.1287689208984375
1776445420661788700,10.94078857421875,-0.9445343017578125,-0.1269073486328125,0.0461883544921875
1776445420686804700,10.9658046875,-0.982757568359375,-0.0999603271484375,0.049285888671875
1776445420711820500,10.990820556640625,-0.9357147216796875,-0.2796783447265625,0.0164031982421875
1776445420736836600,11.015836669921875,-0.9778900146484375,-0.3467254638671875,-0.026458740234375
1776445420761852700,11.040852783203125,-1.0251007080078125,-0.2538604736328125,0.0286407470703125
1776445420786868700,11.06586865234375,-1.036712646484375,-0.1412353515625,0.03106689453125
1776445420811884500,11.090884521484375,-1.055145263671875,-0.1482086181640625,0.096160888671875
1776445420836900600,11.115900634765625,-1.037933349609375,-0.1899566650390625,0.028350830078125
1776445420861916700,11.140916748046875,-0.9276275634765625,-0.170806884765625,-0.168609619140625
1776445420886932700,11.1659326171875,-0.8902740478515625,-0.07830810546875,-0.2431640625
1776445420911948800,11.19094873046875,-0.8959503173828125,-0.02862548828125,-0.2191162109375
1776445420936964900,11.21596484375,-0.952362060546875,-0.0435791015625,-0.152313232421875
1776445420961981700,11.240981689453125,-0.9904022216796875,-0.06121826171875,-0.1003265380859375
1776445420986997500,11.26599755859375,-0.99761962890625,-0.0679779052734375,-0.02581787109375
1776445421012013600,11.291013671875,-1.017913818359375,-0.029937744140625,-0.003448486328125
1776445421037029600,11.316029541015626,-1.0613861083984375,-0.092559814453125,-0.163818359375
1776445421062045700,11.341045654296876,-0.9657745361328125,-0.0655975341796875,-0.2214202880859375
1776445421087061800,11.366061767578126,-0.9445037841796875,-0.06781005859375,-0.21484375
1776445421112077800,11.391077880859376,-1.0480804443359375,0.0470733642578125,-0.145477294921875
1776445421137094000,11.416093994140626,-1.1131744384765625,0.0428924560546875,-0.0967864990234375
1776445421162109700,11.441109619140626,-1.0105743408203125,0.0906524658203125,-0.0706939697265625
1776445421187125800,11.466125732421874,-0.9676513671875,0.0956573486328125,-0.072540283203125
1776445421212141800,11.491141845703124,-1.0106353759765625,0.1017608642578125,-0.1251373291015625
1776445421237158000,11.516157958984374,-1.0349273681640625,0.061370849609375,-0.0688323974609375
1776445421262173700,11.541173583984374,-1.003326416015625,0.1415252685546875,-0.0138702392578125
1776445421287189800,11.566189697265624,-0.937042236328125,0.1808929443359375,-0.0629730224609375
1776445421312205800,11.591205810546874,-0.8436279296875,0.1741790771484375,-0.0263824462890625
1776445421337223000,11.616222900390625,-0.88470458984375,0.0784759521484375,-0.0467071533203125
1776445421362238700,11.64123876953125,-0.905120849609375,0.005401611328125,0.012969970703125
1776445421387254800,11.6662548828125,-1.0385284423828125,-0.0908050537109375,0.1681365966796875
1776445421412270800,11.691270751953125,-1.052886962890625,0.0172576904296875,0.3623046875
1776445421437286700,11.71628662109375,-1.035247802734375,0.1002044677734375,0.287322998046875
1776445421462302700,11.741302734375,-1.0888214111328125,-0.0341644287109375,0.08953857421875
1776445421487318800,11.76631884765625,-1.0522308349609375,-0.2546234130859375,-0.1175689697265625
1776445421512334800,11.7913349609375,-0.881927490234375,0.07147216796875,0.1593017578125
1776445421537350700,11.8163505859375,-0.9103546142578125,-0.1284332275390625,0.163330078125
1776445421562366700,11.84136669921875,-0.9376373291015625,-0.07012939453125,0.2142333984375
1776445421587382800,11.8663828125,-0.9398345947265625,-0.0916290283203125,0.3042449951171875
1776445421612398600,11.891398681640625,-1.010498046875,-0.096771240234375,0.508148193359375
1776445421637415700,11.916415771484376,-1.16668701171875,-0.089813232421875,0.5989227294921875
1776445421662431700,11.941431640625,-1.19195556640625,-0.1221466064453125,0.6082000732421875
1776445421687447800,11.96644775390625,-1.0292510986328125,-0.09014892578125,0.4785919189453125
1776445421712464000,11.9914638671875,-0.84820556640625,-0.1508026123046875,0.1960601806640625
1776445421737479700,12.016479736328124,-0.8433685302734375,-0.1346282958984375,-0.034271240234375
1776445421762495700,12.041495849609374,-0.8129119873046875,-0.0666046142578125,-0.1787872314453125
1776445421787511800,12.06651171875,-0.927886962890625,0.0180511474609375,-0.126129150390625
1776445421812527900,12.09152783203125,-0.9069976806640625,0.064697265625,0.01611328125
1776445421837543700,12.116543701171874,-1.0594024658203125,0.13018798828125,0.0569000244140625
1776445421862559700,12.141559814453124,-1.07354736328125,0.1614990234375,-0.00213623046875
1776445421887575800,12.166575927734375,-0.94354248046875,0.148345947265625,-0.0905914306640625
1776445421912591600,12.191591552734375,-0.940521240234375,0.38873291015625,-0.163238525390625
1776445421937607700,12.216607666015625,-0.87982177734375,0.296478271484375,-0.268585205078125
1776445421962624800,12.241624755859375,-0.583953857421875,-0.10235595703125,-0.2722625732421875
1776445421987640800,12.266640869140625,-1.039794921875,-0.1849822998046875,-0.323486328125
1776445422012656600,12.29165673828125,-1.111236572265625,-0.015380859375,0.141571044921875
1776445422037672700,12.316672607421875,-1.1059112548828125,0.0101776123046875,0.238189697265625
1776445422062688800,12.341688720703125,-0.96807861328125,0.043731689453125,0.035247802734375
1776445422087704800,12.366704833984375,-0.915252685546875,0.0882720947265625,-0.0670928955078125
1776445422112720600,12.391720703125,-0.9920501708984375,0.0439453125,-0.0630645751953125
1776445422137736700,12.41673681640625,-1.001251220703125,-0.0744781494140625,-0.094512939453125
1776445422162752800,12.441752685546875,-1.0448760986328125,-0.0238800048828125,0.031402587890625
1776445422187768600,12.4667685546875,-1.0310211181640625,-0.052093505859375,0.0824432373046875
1776445422212784600,12.49178466796875,-1.09991455078125,-0.131591796875,0.0555267333984375
1776445422237801000,12.516801025390626,-1.0743560791015625,-0.1527099609375,0.09747314453125
1776445422262817800,12.54181787109375,-1.060211181640625,-0.054595947265625,0.3016357421875
1776445422287833600,12.56683349609375,-1.0055999755859375,0.0042877197265625,0.360260009765625
1776445422312849700,12.591849609375,-1.0056915283203125,-0.077850341796875,0.038360595703125
1776445422337865700,12.61686572265625,-1.0076751708984375,-0.030792236328125,0.140533447265625
1776445422362881800,12.6418818359375,-1.03216552734375,-0.054168701171875,0.015960693359375
1776445422387897900,12.66689794921875,-1.040740966796875,-0.176025390625,-0.10516357421875
1776445422412914000,12.691913818359374,-1.0989837646484375,-0.1886444091796875,-0.0872344970703125
1776445422437930000,12.716929931640625,-1.074432373046875,-0.1476287841796875,0.089263916015625
1776445422462945800,12.74194580078125,-1.000946044921875,-0.082061767578125,0.0799560546875
1776445422487961900,12.7669619140625,-0.9526214599609375,-0.0594024658203125,0.0439453125
1776445422512978000,12.79197802734375,-1.0533447265625,-0.111480712890625,0.125701904296875
1776445422537994800,12.816994873046875,-1.086151123046875,-0.170562744140625,0.1471405029296875
1776445422563010800,12.8420107421875,-1.0421905517578125,-0.208038330078125,0.1725616455078125
1776445422588027000,12.86702685546875,-1.0510101318359375,-0.108551025390625,0.1302642822265625
1776445422613043000,12.89204296875,-0.9755706787109375,-0.033203125,0.0782623291015625
1776445422638059000,12.91705908203125,-0.8616180419921875,0.047760009765625,-0.061431884765625
1776445422663074300,12.94207421875,-0.8852386474609375,0.0457763671875,-0.0870208740234375
1776445422688090400,12.96709033203125,-0.9442901611328125,-0.002105712890625,-0.1219329833984375
1776445422713106400,12.9921064453125,-0.8877410888671875,-0.0524749755859375,-0.1781158447265625
1776445422738122200,13.017122314453125,-0.920928955078125,-0.0620574951171875,-0.1834259033203125
1776445422763138300,13.04213818359375,-1.05206298828125,-0.170654296875,-0.07733154296875
1776445422788154400,13.067154296875,-0.95574951171875,-0.1560516357421875,-0.07666015625
1776445422813170400,13.09217041015625,-1.0981597900390625,-0.12432861328125,-0.103729248046875
1776445422838187500,13.1171875,-1.101104736328125,-0.1846923828125,-0.1203765869140625
1776445422863203300,13.142203369140624,-0.8635406494140625,-0.130950927734375,-0.1534576416015625
1776445422888219400,13.167219482421874,-0.7967071533203125,-0.0198516845703125,-0.175750732421875
1776445422913235500,13.1922353515625,-0.95098876953125,0.1203765869140625,0.0328369140625
1776445422938251300,13.217251220703124,-0.9311981201171875,0.1869049072265625,-0.003936767578125
1776445422963267300,13.242267333984374,-1.0054168701171875,0.2804107666015625,-0.0835113525390625
1776445422988283400,13.267283447265624,-0.9381561279296875,0.140380859375,-0.263641357421875
1776445423013299200,13.29229931640625,-1.0284271240234375,-0.1527862548828125,-0.25048828125
1776445423038315300,13.317315185546875,-1.20196533203125,-0.096038818359375,-0.1323089599609375
1776445423063331300,13.342331298828125,-1.15814208984375,0.0068817138671875,-0.22894287109375
1776445423088348400,13.367348388671875,-0.963348388671875,0.070587158203125,-0.3437652587890625
1776445423113364200,13.3923642578125,-0.85516357421875,0.0032501220703125,-0.3942718505859375
1776445423138380300,13.41738037109375,-0.910400390625,-0.0518646240234375,-0.3285980224609375
1776445423163396400,13.442396240234375,-0.9209747314453125,-0.008880615234375,-0.2919464111328125
1776445423188412400,13.467412353515625,-0.9141082763671875,-0.0124969482421875,-0.233795166015625
1776445423213428200,13.49242822265625,-0.9144439697265625,-0.0273284912109375,-0.1884613037109375
1776445423238444300,13.5174443359375,-0.9644317626953125,-0.0988922119140625,0.117401123046875
1776445423263460400,13.54246044921875,-1.0075836181640625,-0.0713043212890625,0.0765533447265625
1776445423288476200,13.56747607421875,-1.0711517333984375,-0.061370849609375,0.0962371826171875
1776445423313492200,13.5924921875,-1.0379180908203125,0.026885986328125,0.107574462890625
1776445423338509300,13.61750927734375,-0.934600830078125,0.03704833984375,-0.0053558349609375
1776445423363525400,13.642525390625,-0.86212158203125,0.1460723876953125,-0.0482635498046875
1776445423388541200,13.667541259765626,-0.78765869140625,0.12786865234375,-0.069915771484375
1776445423413557200,13.69255712890625,-0.769866943359375,0.0460205078125,0.2414093017578125
1776445423438573300,13.7175732421875,-0.970947265625,-0.0183868408203125,0.0800323486328125
1776445423463589400,13.74258935546875,-1.544952392578125,-0.5673980712890625,-0.3021240234375
1776445423488605200,13.767605224609374,-1.0013275146484375,-0.3908843994140625,-0.00335693359375
1776445423513621200,13.792621337890624,-1.1172027587890625,0.015167236328125,0.052032470703125
1776445423538637300,13.81763720703125,-0.9851226806640625,-0.1827392578125,-0.1471405029296875
1776445423563653000,13.842653076171874,-0.887359619140625,0.0738067626953125,-0.3541107177734375
1776445423588669200,13.867669189453125,-0.7103729248046875,0.08990478515625,-0.202728271484375
1776445423613686300,13.892686279296875,-1.1014862060546875,-0.078521728515625,-0.074188232421875
1776445423638702300,13.917702392578125,-1.217071533203125,-0.1289520263671875,0.0067901611328125
1776445423663719200,13.94271923828125,-1.1552886962890625,-0.1168212890625,0.102081298828125
1776445423688735200,13.9677353515625,-1.066864013671875,-0.0110321044921875,-0.007293701171875
1776445423713751000,13.9927509765625,-0.9095306396484375,0.06268310546875,-0.155670166015625
1776445423738767000,14.01776708984375,-0.8556365966796875,0.0202178955078125,-0.2396087646484375
1776445423763783200,14.042783203125,-0.8202667236328125,-0.052093505859375,-0.3936767578125
1776445423788799200,14.06779931640625,-0.8003997802734375,-0.0536651611328125,-0.5100250244140625
1776445423813815000,14.09281494140625,-0.8123016357421875,0.0248870849609375,-0.4748382568359375
1776445423838831000,14.1178310546875,-0.885101318359375,0.0937347412109375,-0.39154052734375
1776445423863848200,14.14284814453125,-0.981781005859375,0.1479339599609375,-0.309112548828125
1776445423888864300,14.1678642578125,-1.05303955078125,0.0904083251953125,-0.188446044921875
1776445423913880000,14.192880126953124,-1.1739959716796875,-0.1767730712890625,-0.055572509765625
1776445423938896100,14.217896240234374,-1.11322021484375,-0.0329132080078125,-0.081329345703125
1776445423963912200,14.242912109375,-0.959136962890625,0.1269989013671875,-0.2247161865234375
1776445423988928000,14.267927978515624,-0.915679931640625,0.0837860107421875,-0.1038818359375
1776445424013944000,14.292944091796874,-1.014801025390625,0.09698486328125,-0.019073486328125
1776445424038960000,14.317960205078125,-1.13153076171875,-0.0416717529296875,0.119598388671875
1776445424063976200,14.34297607421875,-1.1369476318359375,0.05572509765625,0.089691162109375
1776445424088992000,14.367991943359375,-1.03961181640625,0.058685302734375,0.15771484375
1776445424114009000,14.393009033203125,-0.9842529296875,0.0451202392578125,0.2225494384765625
1776445424139025200,14.418025146484375,-0.9617462158203125,0.1021270751953125,0.2165069580078125
1776445424164041200,14.443041259765625,-0.91046142578125,0.1442413330078125,0.2312774658203125
1776445424189057000,14.46805712890625,-0.9048309326171875,0.2540283203125,0.2713165283203125
1776445424214073000,14.493072998046875,-0.9031982421875,0.1849822998046875,0.1922607421875
1776445424239089200,14.518089111328125,-0.8647003173828125,0.0974578857421875,0.1463623046875
1776445424264105000,14.54310498046875,-0.9572906494140625,-0.0735321044921875,0.0405731201171875
1776445424289121000,14.56812109375,-0.98779296875,-0.0464935302734375,0.0686798095703125
1776445424314137300,14.593137451171875,-0.9877166748046875,-0.053375244140625,0.13909912109375
1776445424339153200,14.618153076171875,-0.89019775390625,-0.05120849609375,0.2069244384765625
1776445424364170000,14.643169921875,-0.9380950927734375,-0.1701507568359375,0.290740966796875
1776445424389186000,14.66818603515625,-1.1118927001953125,-0.164093017578125,0.4007568359375
1776445424414202000,14.6932021484375,-1.031829833984375,-0.128692626953125,0.4678955078125
1776445424439218200,14.71821826171875,-1.04620361328125,-0.1508026123046875,0.6154632568359375
1776445424464234200,14.743234130859374,-1.0451812744140625,-0.26947021484375,0.4697265625
1776445424489250300,14.768250244140624,-0.967437744140625,-0.269500732421875,0.3367919921875
1776445424514266400,14.793266357421874,-0.9479827880859375,-0.2307281494140625,0.2379608154296875
1776445424539282200,14.8182822265625,-0.912384033203125,-0.10565185546875,0.1865997314453125
1776445424564298200,14.84329833984375,-0.8464508056640625,-0.1281890869140625,0.12451171875
1776445424589315000,14.868315185546875,-0.94110107421875,-0.110107421875,0.06707763671875
1776445424614331100,14.8933310546875,-0.9684906005859375,-0.1042633056640625,0.039886474609375
1776445424639347200,14.91834716796875,-0.9331207275390625,-0.08428955078125,0.110076904296875
1776445424664366000,14.943365966796875,-0.9742431640625,-0.0302276611328125,0.10150146484375
1776445424689382100,14.968382080078126,-1.1138763427734375,0.136688232421875,-0.000396728515625
1776445424714398200,14.993398193359376,-1.0088348388671875,0.0443115234375,-0.0673675537109375
1776445424739414000,15.0184140625,-0.915008544921875,-0.0650177001953125,-0.048431396484375
1776445424764430000,15.04343017578125,-0.9366607666015625,-0.0640716552734375,0.081817626953125
1776445424789446100,15.068446044921876,-1.0222320556640625,-0.0792236328125,0.2168731689453125
1776445424814463200,15.093463134765624,-0.906341552734375,-0.0641632080078125,0.198516845703125
1776445424839479000,15.11847900390625,-0.840362548828125,-0.002716064453125,0.120635986328125
1776445424864495000,15.1434951171875,-0.98419189453125,0.1825103759765625,0.018035888671875
1776445424889511200,15.16851123046875,-1.390899658203125,0.940948486328125,-0.0780487060546875
1776445424914527200,15.19352734375,-0.7201080322265625,0.26873779296875,0.0753936767578125
1776445424939543000,15.21854296875,-0.92401123046875,0.1442108154296875,0.0115509033203125
1776445424964559000,15.24355908203125,-0.8919219970703125,0.1515350341796875,0.1511688232421875
1776445424989575200,15.2685751953125,-1.26300048828125,0.061248779296875,0.1883697509765625
1776445425014591000,15.293591064453125,-1.18414306640625,-0.0566253662109375,-0.002685546875
1776445425039608000,15.318608154296875,-1.0673828125,-0.004302978515625,-0.21923828125
1776445425064624000,15.3436240234375,-0.8541259765625,-0.015228271484375,-0.2443695068359375
1776445425089640200,15.36864013671875,-0.9567413330078125,0.103668212890625,0.065216064453125
1776445425114656000,15.393656005859375,-0.96160888671875,0.10125732421875,0.174896240234375
1776445425139672000,15.418672119140625,-1.031158447265625,0.0048065185546875,0.01470947265625
1776445425164688100,15.443688232421875,-1.0137176513671875,0.02655029296875,-0.0104217529296875
1776445425189704200,15.4687041015625,-1.01727294921875,0.1000213623046875,0.0259857177734375
1776445425214720000,15.493719970703125,-0.97869873046875,0.0560455322265625,0.180511474609375
1776445425239736000,15.518736083984376,-1.0169677734375,0.093841552734375,0.1932830810546875
1776445425264753200,15.543753173828126,-0.918548583984375,0.0919647216796875,0.0638580322265625
1776445425289769200,15.568769287109374,-0.9391937255859375,0.108245849609375,0.0649871826171875
1776445425314785000,15.593784912109374,-0.991119384765625,0.124725341796875,0.157135009765625
1776445425339801000,15.618801025390624,-0.9550323486328125,0.05499267578125,0.1442718505859375
1776445425364817200,15.643817138671874,-0.9996795654296875,0.0124053955078125,0.0890960693359375
1776445425389833000,15.6688330078125,-1.0086822509765625,0.007537841796875,0.078216552734375
1776445425414849000,15.69384912109375,-1.0180816650390625,-0.014251708984375,0.0543975830078125
1776445425439865000,15.718864990234374,-0.9954376220703125,0.02703857421875,0.09613037109375
1776445425464882200,15.743882080078125,-1.00140380859375,0.0460968017578125,-0.2721710205078125
1776445425489898200,15.768898193359375,-0.8448944091796875,-0.0371856689453125,-0.190826416015625
1776445425514914000,15.7939140625,-0.938568115234375,-0.0542449951171875,-0.2147064208984375
1776445425539930000,15.81893017578125,-1.0325927734375,-0.0506134033203125,-0.06402587890625
1776445425564946200,15.8439462890625,-1.0087127685546875,-0.122467041015625,-0.0456390380859375
1776445425589962000,15.8689619140625,-1.0829620361328125,-0.1285400390625,-0.0245513916015625
1776445425614978000,15.89397802734375,-1.0433349609375,-0.1894378662109375,-0.032867431640625
1776445425639994000,15.918994140625,-1.0985260009765625,-0.2144317626953125,-0.0154876708984375
1776445425665010200,15.94401025390625,-1.0258026123046875,-0.14117431640625,-0.1290740966796875
1776445425690027300,15.96902734375,-0.966705322265625,0.021697998046875,-0.1726226806640625
1776445425715043300,15.994043212890626,-0.837554931640625,-0.1169281005859375,-0.148468017578125
1776445425740059400,16.019059326171874,-1.01336669921875,-0.141571044921875,-0.1165008544921875
1776445425765075200,16.0440751953125,-1.11474609375,-0.0858306884765625,-0.0474700927734375
1776445425790091300,16.06909130859375,-1.121063232421875,-0.0777587890625,-0.0497589111328125
1776445425815107300,16.094107421875,-0.9849700927734375,-0.0993499755859375,-0.1452178955078125
1776445425840123100,16.119123046875,-1.0562744140625,-0.1160430908203125,-0.1698150634765625
1776445425865139200,16.14413916015625,-0.9868316650390625,-0.0326385498046875,-0.177459716796875
1776445425890156300,16.16915625,-0.9694061279296875,-0.052734375,-0.151763916015625
1776445425915172400,16.19417236328125,-0.976104736328125,-0.0984954833984375,-0.2081298828125
1776445425940188400,16.2191884765625,-1.0048370361328125,-0.1486053466796875,-0.1893310546875
1776445425965204200,16.244204345703125,-0.935089111328125,-0.1186065673828125,-0.1469268798828125
1776445425990220300,16.26922021484375,-0.90704345703125,-0.0677337646484375,-0.165130615234375
1776445426015236400,16.294236328125,-0.9062347412109375,-0.021514892578125,-0.1730194091796875
1776445426040252200,16.319252197265627,-0.9359893798828125,-0.01239013671875,-0.1571197509765625
1776445426065268200,16.344268310546877,-1.0168609619140625,-0.0052947998046875,-0.079498291015625
1776445426090284300,16.3692841796875,-1.0791015625,0.0528564453125,-0.040679931640625
1776445426115301400,16.39430126953125,-0.9745330810546875,-0.009185791015625,-0.015380859375
1776445426140317200,16.419317138671875,-0.9469146728515625,-0.0899505615234375,-0.097320556640625
1776445426165333200,16.444333251953125,-1.01275634765625,-0.116546630859375,-0.0226593017578125
1776445426190349300,16.469349365234375,-1.011474609375,-0.066009521484375,-0.000030517578125
1776445426215365400,16.494365478515626,-1.0768890380859375,-0.0529327392578125,-0.090545654296875
1776445426240381200,16.519381103515624,-1.23712158203125,-0.0964202880859375,-0.043487548828125
1776445426265397200,16.544397216796874,-1.18182373046875,-0.0523223876953125,-0.096954345703125
1776445426290413300,16.569413330078124,-0.9186859130859375,0.09820556640625,-0.2532196044921875
1776445426315430400,16.594430419921874,-0.76715087890625,0.0715484619140625,-0.3720703125
1776445426340446200,16.6194462890625,-0.8613433837890625,0.00140380859375,-0.325531005859375
1776445426365462300,16.644462158203126,-1.0127105712890625,-0.0038299560546875,-0.1403656005859375
1776445426390478300,16.669478271484376,-1.140289306640625,-0.0206146240234375,-0.0579376220703125
1776445426415494100,16.694494140625,-0.999298095703125,-0.040008544921875,-0.157928466796875
1776445426440510200,16.71951025390625,-0.843719482421875,-0.0891265869140625,-0.206634521484375
1776445426465526300,16.7445263671875,-0.946380615234375,-0.0347900390625,-0.0625152587890625
1776445426490542300,16.769542236328125,-1.014129638671875,0.004364013671875,0.0443267822265625
1776445426515559200,16.79455908203125,-0.9507598876953125,0.05511474609375,0.0321807861328125
1776445426540575200,16.8195751953125,-0.9143524169921875,0.0566864013671875,0.000701904296875
1776445426565591300,16.84459130859375,-0.8594818115234375,0.0518951416015625,0.063385009765625
1776445426590607400,16.869607421875,-0.8372650146484375,0.112884521484375,0.132659912109375
1776445426615623200,16.894623046875,-0.7683868408203125,-0.0377349853515625,-0.0908660888671875
1776445426640639200,16.91963916015625,-1.017333984375,-0.2415008544921875,0.055633544921875
1776445426665655800,16.94465576171875,-1.4370880126953125,-0.408935546875,-0.23687744140625
1776445426690671900,16.969671875,-1.0043792724609375,-0.040130615234375,-0.1163330078125
1776445426715689000,16.99468896484375,-0.8907928466796875,-0.0794525146484375,-0.2855377197265625
1776445426740705000,17.019705078125,-0.88604736328125,-0.0081024169921875,-0.2303314208984375
1776445426765720800,17.044720947265624,-0.986968994140625,-0.0825958251953125,-0.22235107421875
1776445426790737000,17.06973681640625,-0.9522552490234375,-0.2695770263671875,-0.192138671875
1776445426815753000,17.0947529296875,-0.8812713623046875,-0.220245361328125,-0.114593505859375
1776445426840769000,17.11976904296875,-1.1256561279296875,-0.089019775390625,-0.0805511474609375
1776445426865784800,17.144784912109376,-0.993438720703125,-0.0275115966796875,0.0791168212890625
1776445426890801000,17.16980078125,-1.06439208984375,-0.072998046875,0.0336456298828125
1776445426915818000,17.19481787109375,-1.0109405517578125,-0.0507049560546875,-0.040374755859375
1776445426940834000,17.219833984375,-0.96820068359375,0.0352325439453125,-0.0532073974609375
1776445426965849900,17.244849853515625,-0.9883880615234375,0.0441741943359375,-0.0939788818359375
1776445426990866000,17.269865966796875,-0.957672119140625,0.0159149169921875,-0.1895751953125
1776445427015882000,17.294882080078125,-0.9575347900390625,0.042572021484375,-0.1693572998046875
1776445427040897800,17.319897705078127,-0.9935455322265625,0.07586669921875,-0.1414642333984375
1776445427065913900,17.344913818359377,-0.9864654541015625,0.107513427734375,-0.1825408935546875
1776445427090930000,17.369929931640623,-0.9876708984375,0.11688232421875,-0.1963958740234375
1776445427115947000,17.394947021484374,-1.00494384765625,0.1051177978515625,-0.2247467041015625
1776445427140963000,17.419963134765624,-0.962738037109375,0.1336822509765625,-0.2074127197265625
1776445427165979000,17.444978759765625,-1.0018310546875,0.1273956298828125,-0.2059783935546875
1776445427190995000,17.469994873046875,-1.024505615234375,0.05438232421875,-0.02569580078125
1776445427216011000,17.495010986328126,-1.075592041015625,0.009307861328125,0.024200439453125
1776445427241026800,17.52002685546875,-0.9824066162109375,0.1438751220703125,-0.04730224609375
1776445427266043000,17.54504296875,-0.87017822265625,0.09808349609375,-0.1585540771484375
1776445427291060000,17.57006005859375,-1.05926513671875,-0.0269012451171875,0.0766143798828125
1776445427316076000,17.595075927734374,-1.0452117919921875,0.0347747802734375,0.1757659912109375
1776445427341091800,17.620091796875,-1.2106475830078125,-0.0211639404296875,0.2316741943359375
1776445427366108000,17.64510791015625,-1.1208648681640625,0.078399658203125,0.15179443359375
1776445427391124000,17.6701240234375,-0.972442626953125,0.1314697265625,0.1874847412109375
1776445427416140000,17.69514013671875,-0.997802734375,0.1189422607421875,0.18304443359375
1776445427441155800,17.72015576171875,-0.9592742919921875,0.111907958984375,0.1290435791015625
1776445427466172000,17.745171875,-0.9792938232421875,0.1013336181640625,0.037689208984375
1776445427491189000,17.77018896484375,-0.9251861572265625,0.1561279296875,-0.02978515625
1776445427516205000,17.795205078125,-0.8985748291015625,0.1303863525390625,-0.0584259033203125
1776445427541220900,17.820220947265625,-0.9476776123046875,0.0708160400390625,-0.0303955078125
1776445427566237000,17.84523681640625,-1.036712646484375,0.0016937255859375,0.0796051025390625
1776445427591253000,17.8702529296875,-0.995147705078125,0.078521728515625,0.1272125244140625
1776445427616268800,17.895268798828123,-1.00439453125,-0.048614501953125,0.10894775390625
1776445427641284900,17.920284912109373,-1.02484130859375,-0.1062469482421875,0.104644775390625
1776445427666296800,17.945296875,-0.9296112060546875,-0.0423583984375,0.0726470947265625
1776445427691314000,17.97031396484375,-0.961517333984375,-0.01837158203125,-0.0342559814453125
1776445427716330000,17.995330078125,-0.951995849609375,-0.05059814453125,-0.0234527587890625
1776445427741346000,18.020345947265625,-0.9981689453125,-0.0678253173828125,0.164154052734375
1776445427766361900,18.04536181640625,-1.0213165283203125,-0.0827484130859375,0.15484619140625
1776445427791378000,18.0703779296875,-0.9647216796875,-0.034759521484375,0.1395263671875
1776445427816394000,18.09539404296875,-0.97998046875,-0.0394744873046875,0.3415679931640625
1776445427841410000,18.12041015625,-1.0026702880859375,-0.078460693359375,0.3652496337890625
1776445427866427000,18.145427001953124,-0.977386474609375,-0.0658416748046875,0.2702789306640625
1776445427891443000,18.17044287109375,-0.92730712890625,-0.1126708984375,0.29962158203125
1776445427916459000,18.195458984375,-0.9873809814453125,-0.0956878662109375,0.30743408203125
1776445427941475000,18.22047509765625,-1.0839691162109375,-0.05029296875,0.2638092041015625
1776445427966491000,18.245490966796876,-0.957977294921875,-0.0616607666015625,0.2318572998046875
1776445427991507000,18.2705068359375,-0.82427978515625,-0.0009918212890625,0.1721649169921875
1776445428016523000,18.29552294921875,-0.86224365234375,-0.0592498779296875,0.09906005859375
1776445428041539000,18.3205390625,-0.9750518798828125,-0.03839111328125,0.1664886474609375
1776445428066556000,18.345555908203124,-1.080718994140625,0.085723876953125,0.2237091064453125
1776445428091572000,18.370572021484374,-1.112152099609375,0.2160186767578125,0.1826324462890625
1776445428116588000,18.395588134765624,-1.116424560546875,0.1066131591796875,0.1679840087890625
1776445428141603800,18.420603759765626,-1.01397705078125,-0.120452880859375,0.24029541015625
1776445428166620000,18.445619873046876,-0.9940338134765625,-0.09222412109375,0.1788482666015625
1776445428191636000,18.470635986328126,-0.976409912109375,-0.1062164306640625,0.0420684814453125
1776445428216652000,18.495652099609377,-1.0888671875,-0.08123779296875,0.057464599609375
1776445428241668900,18.5206689453125,-1.087890625,-0.11883544921875,0.0565948486328125
1776445428266685000,18.545684814453125,-0.935150146484375,0.0353240966796875,0.1090087890625
1776445428291701000,18.570700927734375,-0.8861236572265625,0.0236358642578125,0.0157470703125
1776445428316717000,18.595717041015625,-0.828521728515625,0.0510101318359375,-0.0470733642578125
1776445428341732900,18.62073291015625,-0.9044952392578125,0.0670166015625,0.0581512451171875
1776445428366749000,18.6457490234375,-0.991851806640625,-0.015869140625,-0.03619384765625
1776445428391765000,18.670764892578124,-1.032440185546875,-0.0959014892578125,-0.1204986572265625
1776445428416782000,18.695781982421874,-1.036041259765625,-0.0148773193359375,0.0398101806640625
1776445428441798000,18.7207978515625,-1.018829345703125,-0.0821533203125,0.0281982421875
1776445428466814000,18.74581396484375,-1.0848846435546875,-0.128997802734375,-0.10028076171875
1776445428491830000,18.770830078125,-0.99188232421875,-0.032958984375,-0.035797119140625
1776445428516845800,18.795845703125,-0.9347686767578125,0.003875732421875,-0.0416259765625
1776445428541862000,18.82086181640625,-0.9450836181640625,-0.006134033203125,-0.003997802734375
1776445428566878200,18.845878173828126,-0.96942138671875,-0.061004638671875,0.0437164306640625
1776445428591894300,18.870894287109376,-0.9865570068359375,-0.033355712890625,0.092132568359375
1776445428616910800,18.895910888671875,-0.9058990478515625,-0.0448455810546875,0.066680908203125
1776445428641927000,18.920927001953125,-1.001251220703125,-0.068115234375,0.13494873046875
1776445428666942700,18.945942626953126,-1.0261383056640625,-0.0911712646484375,0.2326507568359375
1776445428691958800,18.970958740234376,-0.9924774169921875,-0.1040191650390625,0.2142333984375
1776445428716974800,18.995974853515627,-0.978546142578125,-0.1587371826171875,0.167633056640625
1776445428741991000,19.020990966796877,-1.1166229248046875,-0.2033843994140625,-0.4254150390625
1776445428767007000,19.046007080078127,-0.9985504150390625,-0.2112884521484375,-0.230987548828125
1776445428792023800,19.07102392578125,-1.0234527587890625,-0.2223052978515625,-0.1667938232421875
1776445428817039600,19.09603955078125,-1.147003173828125,-0.203460693359375,-0.2565460205078125
1776445428842055700,19.1210556640625,-0.886962890625,-0.2667083740234375,-0.1480712890625
1776445428867071700,19.14607177734375,-0.916473388671875,-0.2072601318359375,-0.2060394287109375
1776445428892088000,19.171088134765625,-1.0125732421875,-0.26824951171875,-0.19781494140625
1776445428917103900,19.196103759765624,-0.8966217041015625,-0.2737579345703125,-0.2153472900390625
1776445428942120000,19.221119873046874,-0.915496826171875,-0.242218017578125,-0.16131591796875
1776445428967136800,19.24613671875,-1.021392822265625,-0.228912353515625,-0.0546112060546875
1776445428992152800,19.27115283203125,-1.0542449951171875,-0.1719970703125,0.043853759765625
1776445429017168600,19.296168701171876,-1.0284271240234375,-0.184783935546875,-0.05157470703125
1776445429042184700,19.321184814453126,-1.016632080078125,-0.2403106689453125,-0.11199951171875
1776445429067201000,19.346200927734376,-0.9632110595703125,-0.2431488037109375,-0.148223876953125
1776445429092216800,19.371216796875,-0.99737548828125,-0.1517333984375,-0.13800048828125
1776445429117233000,19.39623291015625,-0.994171142578125,-0.104156494140625,-0.1136627197265625
1776445429142249700,19.421249755859375,-0.9039764404296875,-0.05999755859375,-0.1422882080078125
1776445429167265800,19.446265869140625,-0.9327239990234375,0.01220703125,-0.15655517578125
1776445429192281600,19.471281494140626,-1.0052947998046875,0.0904541015625,-0.11822509765625
1776445429217298000,19.4962978515625,-0.949859619140625,-0.0229949951171875,-0.076812744140625
1776445429242314000,19.52131396484375,-0.89984130859375,-0.07965087890625,-0.0674896240234375
1776445429267330000,19.546330078125,-0.9581146240234375,-0.030364990234375,-0.0966033935546875
1776445429292345900,19.571345947265623,-0.91204833984375,-0.0842742919921875,-0.1395416259765625
1776445429317362700,19.59636279296875,-0.9771575927734375,-0.1018524169921875,-0.0680084228515625
1776445429342378800,19.621378662109375,-1.046905517578125,-0.0329437255859375,0.057708740234375
1776445429367394800,19.646394775390625,-1.0984344482421875,-0.1587371826171875,-0.154571533203125
1776445429392411000,19.671410888671875,-1.0449981689453125,-0.205657958984375,-0.34259033203125
1776445429417427000,19.696427001953126,-1.067626953125,-0.15045166015625,-0.2369537353515625
1776445429442443000,19.721443115234376,-0.989227294921875,-0.1306610107421875,-0.219879150390625
1776445429467458800,19.746458740234374,-0.94189453125,-0.0227813720703125,-0.161163330078125
1776445429492475600,19.7714755859375,-0.9755859375,-0.0323028564453125,-0.08526611328125
1776445429517491700,19.79649169921875,-1.028717041015625,-0.093994140625,-0.0892486572265625
1776445429542507800,19.8215078125,-1.050567626953125,-0.0824737548828125,-0.1290283203125
1776445429567523800,19.84652392578125,-0.9066925048828125,-0.04669189453125,-0.17767333984375
1776445429592540000,19.871539794921876,-0.8540191650390625,-0.01971435546875,-0.1586761474609375
1776445429617556000,19.896555908203126,-0.9129180908203125,0.015625,-0.2314453125
1776445429642572000,19.921572021484376,-0.8660430908203125,-0.01708984375,-0.30218505859375
1776445429667588400,19.94658837890625,-0.965240478515625,0.0009613037109375,-0.2077178955078125
1776445429692604400,19.9716044921875,-1.003448486328125,0.0187530517578125,-0.09942626953125
1776445429717620500,19.996620361328127,-0.915008544921875,-0.018218994140625,-0.11737060546875
1776445429742636300,20.02163623046875,-0.9354095458984375,-0.07275390625,-0.134918212890625
1776445429767652400,20.04665234375,-1.110198974609375,-0.088348388671875,-0.13134765625
1776445429792668400,20.07166845703125,-0.8456573486328125,-0.02801513671875,-0.15887451171875
1776445429817684500,20.0966845703125,-0.8419036865234375,-0.0824432373046875,0.011810302734375
1776445429842701300,20.121701416015625,-1.0207366943359375,-0.145416259765625,0.2407684326171875
1776445429867717400,20.14671728515625,-1.165252685546875,-0.3605499267578125,0.1667022705078125
1776445429892733400,20.1717333984375,-1.2253875732421875,-0.110748291015625,0.019287109375
1776445429917749500,20.19674951171875,-1.054534912109375,-0.27935791015625,-0.243621826171875
1776445429942765300,20.221765380859374,-0.7181549072265625,-0.2505645751953125,-0.1306915283203125
1776445429967781400,20.246781494140624,-0.7979583740234375,0.0216064453125,-0.016357421875
1776445429992797400,20.27179736328125,-0.9876708984375,-0.07025146484375,-0.0344085693359375
1776445430017814300,20.296814208984376,-1.0525054931640625,-0.2040863037109375,0.03564453125
1776445430042830300,20.321830322265626,-1.0939178466796875,-0.2750244140625,0.1496734619140625
1776445430067846400,20.346846435546876,-1.0507049560546875,-0.28778076171875,0.12860107421875
1776445430092862500,20.371862548828126,-0.913177490234375,-0.1798858642578125,0.003265380859375
1776445430117878300,20.396878173828124,-0.8909454345703125,-0.167572021484375,-0.0587158203125
1776445430142894300,20.421894287109374,-0.940155029296875,-0.20684814453125,-0.08990478515625
1776445430167910400,20.446910400390625,-0.901458740234375,-0.0888671875,-0.1577911376953125
1776445430192927500,20.471927490234375,-0.9263916015625,0.055938720703125,-0.2055816650390625
1776445430217943300,20.496943359375,-0.9943695068359375,0.08880615234375,-0.178375244140625
1776445430242959400,20.52195947265625,-1.0386810302734375,-0.025299072265625,-0.2096710205078125
1776445430267975400,20.546975341796873,-0.996856689453125,0.0652618408203125,-0.2271575927734375
1776445430292991500,20.571991455078123,-1.0049285888671875,0.103302001953125,-0.209930419921875
1776445430318007300,20.59700732421875,-1.0899200439453125,0.0079345703125,-0.190826416015625
1776445430343023400,20.6220234375,-1.01141357421875,-0.0128631591796875,-0.1620330810546875
1776445430368040400,20.64704052734375,-1.0860443115234375,-0.22589111328125,-0.077484130859375
1776445430393056500,20.672056396484376,-1.09356689453125,-0.159149169921875,-0.125762939453125
1776445430418072300,20.697072265625,-0.949462890625,-0.039825439453125,-0.2435302734375
1776445430443088400,20.72208837890625,-0.81268310546875,0.0816650390625,-0.239471435546875
1776445430468104400,20.7471044921875,-0.873748779296875,0.1214141845703125,-0.2306060791015625
1776445430493120300,20.772120361328124,-0.9319305419921875,0.0352630615234375,-0.220245361328125
1776445430518137300,20.797137451171874,-1.1284942626953125,-0.091705322265625,0.0193939208984375
1776445430543153400,20.8221533203125,-1.151519775390625,0.08978271484375,0.1128387451171875
1776445430568169500,20.84716943359375,-1.0713958740234375,0.0568084716796875,0.0575408935546875
1776445430593185300,20.872185302734376,-1.004058837890625,0.046173095703125,-0.0269927978515625
1776445430618201300,20.897201416015626,-0.94439697265625,0.0462799072265625,0.0003814697265625
1776445430643217400,20.922217529296876,-0.944549560546875,-0.0013275146484375,0.032745361328125
1776445430668233500,20.9472333984375,-1.0392608642578125,-0.013885498046875,0.0741729736328125
1776445430693250300,20.972250244140625,-1.03765869140625,0.034881591796875,0.0782623291015625
1776445430718266400,20.997266357421875,-1.021881103515625,0.0672607421875,0.1483306884765625
1776445430743282400,21.022282470703125,-1.02520751953125,0.0610504150390625,0.1791229248046875
1776445430768298500,21.047298583984375,-0.9603424072265625,-0.012115478515625,0.0973358154296875
1776445430793314300,21.072314208984373,-0.96612548828125,0.034271240234375,0.1290130615234375
1776445430818330400,21.097330322265623,-1.017486572265625,0.07501220703125,0.1346435546875
1776445430843346400,21.122346435546874,-0.953094482421875,0.0851593017578125,0.1035308837890625
1776445430868363300,21.14736328125,-0.9251251220703125,0.0774688720703125,0.0863494873046875
1776445430893379300,21.17237939453125,-1.0460968017578125,0.072357177734375,0.0997314453125
1776445430918395400,21.1973955078125,-1.0100250244140625,0.0118255615234375,0.10321044921875
1776445430943411500,21.222411376953126,-1.0412445068359375,-0.0705413818359375,-0.001251220703125
1776445430968427300,21.24742724609375,-0.9466094970703125,-0.0153961181640625,0.0765228271484375
1776445430993443300,21.272443359375,-0.8419342041015625,-0.01397705078125,0.0342864990234375
1776445431018459400,21.29745947265625,-0.9189300537109375,-0.0424652099609375,0.152374267578125
1776445431043476200,21.322476318359374,-0.9784698486328125,0.0873870849609375,0.100982666015625
1776445431068492300,21.3474921875,-1.1067962646484375,0.0024261474609375,0.09307861328125
1776445431093508400,21.37250830078125,-1.1142730712890625,-0.0567169189453125,0.0679168701171875
1776445431118524400,21.3975244140625,-0.969970703125,0.0500335693359375,0.2085113525390625
1776445431143540500,21.42254052734375,-1.018096923828125,0.0070648193359375,0.145416259765625
1776445431168556300,21.447556396484377,-1.01751708984375,-0.001556396484375,0.0990447998046875
1776445431193573000,21.472572998046875,-1.034088134765625,0.0128021240234375,0.134368896484375
1776445431218589200,21.497589111328125,-1.00128173828125,-0.0655670166015625,0.1256103515625
1776445431243605200,21.522605224609375,-0.9796600341796875,-0.08575439453125,0.0697784423828125
1776445431268621300,21.547621337890625,-0.9439239501953125,-0.0321197509765625,0.06256103515625
1776445431293637400,21.572637451171875,-0.961151123046875,-0.043365478515625,0.061248779296875
1776445431318653400,21.5976533203125,-0.91229248046875,-0.0413970947265625,0.0948944091796875
1776445431343669500,21.62266943359375,-1.001617431640625,-0.0063018798828125,0.0970611572265625
1776445431368686000,21.64768603515625,-1.054718017578125,0.0458221435546875,0.0878143310546875
1776445431393702100,21.6727021484375,-1.002685546875,0.0754547119140625,0.1112823486328125
1776445431418718500,21.697718505859374,-0.858856201171875,0.1288604736328125,0.1363677978515625
1776445431443734500,21.722734619140624,-1.0084228515625,0.0931549072265625,-0.0500335693359375
1776445431468750300,21.747750244140626,-1.0442962646484375,0.28887939453125,-0.0341644287109375
1776445431493766400,21.772766357421876,-0.9511871337890625,0.092559814453125,-0.0006561279296875
1776445431518783200,21.797783203125,-0.923126220703125,-0.0341796875,0.1279144287109375
1776445431543799300,21.82279931640625,-1.1616668701171875,-0.1947021484375,0.175811767578125
1776445431568815000,21.847815185546875,-1.03643798828125,-0.1951751708984375,0.072418212890625
1776445431593831400,21.87283154296875,-1.002166748046875,-0.085296630859375,0.042022705078125
1776445431618847500,21.897847412109375,-1.019012451171875,0.01324462890625,0.10528564453125
1776445431643863300,21.92286328125,-0.889892578125,0.0131378173828125,0.140411376953125
1776445431668880000,21.9478798828125,-0.9435272216796875,0.0068817138671875,0.1055145263671875
1776445431693896700,21.972896728515625,-0.993133544921875,0.0208892822265625,0.1217041015625
1776445431718912500,21.99791259765625,-0.94964599609375,0.0623626708984375,0.2135009765625
1776445431743928600,22.022928466796873,-0.96173095703125,0.0479736328125,0.0426483154296875
1776445431768944600,22.047944580078124,-0.987884521484375,0.0140380859375,0.012237548828125
1776445431793960700,22.072960693359374,-1.0191192626953125,-0.0509185791015625,0.0931243896484375
1776445431818976800,22.097976806640624,-1.038330078125,-0.071624755859375,0.0368499755859375
1776445431843993600,22.12299365234375,-1.00323486328125,-0.10369873046875,-0.0289154052734375
1776445431869009700,22.148009765625,-0.969024658203125,-0.1129150390625,0.04425048828125
1776445431894025700,22.173025634765626,-0.9647216796875,-0.099700927734375,0.097930908203125
1776445431919041500,22.19804150390625,-0.9636383056640625,-0.1168060302734375,0.140167236328125
1776445431944057600,22.2230576171875,-1.0020904541015625,-0.0936279296875,0.2678375244140625
1776445431969073700,22.24807373046875,-1.1934661865234375,-0.01116943359375,0.060394287109375
1776445431994089700,22.27308984375,-1.043609619140625,-0.0592803955078125,0.0928192138671875
1776445432019106600,22.2981064453125,-0.974822998046875,-0.1860809326171875,0.1375885009765625
1776445432044122600,22.32312255859375,-1.0599822998046875,-0.2758636474609375,0.289093017578125
1776445432069138700,22.348138671875,-1.141082763671875,-0.253265380859375,0.1057586669921875
1776445432094154500,22.373154541015627,-0.9789276123046875,-0.23468017578125,-0.084259033203125
1776445432119170600,22.398170654296877,-0.8377227783203125,-0.11676025390625,-0.368438720703125
1776445432144186600,22.4231865234375,-0.7530364990234375,-0.1383819580078125,-0.2643890380859375
1776445432169202700,22.44820263671875,-0.86138916015625,-0.2109527587890625,-0.097503662109375
1776445432194219800,22.4732197265625,-0.9041900634765625,-0.25262451171875,-0.0933685302734375
1776445432219235600,22.498235595703125,-1.0457916259765625,-0.2410888671875,-0.074432373046875
1776445432244251600,22.523251708984375,-1.0153656005859375,-0.2549285888671875,-0.0405120849609375
1776445432269267700,22.548267822265625,-1.0006561279296875,-0.2825775146484375,0.03790283203125
1776445432294283500,22.573283447265624,-1.05340576171875,-0.1931915283203125,0.1024017333984375
1776445432319299600,22.598299560546874,-1.04901123046875,-0.1365966796875,0.0484161376953125
1776445432344316700,22.623316650390624,-0.979278564453125,-0.1826019287109375,0.006805419921875
1776445432369332700,22.648332763671874,-1.0040283203125,-0.223663330078125,0.0214385986328125
1776445432394348500,22.6733486328125,-0.99639892578125,-0.1717071533203125,0.0220794677734375
1776445432419364600,22.698364501953126,-1.0249176025390625,-0.147247314453125,-0.00921630859375
1776445432444380700,22.723380615234376,-1.014801025390625,-0.2232818603515625,0.003387451171875
1776445432469396700,22.748396728515626,-1.04840087890625,-0.232513427734375,-0.00006103515625
1776445432494413600,22.77341357421875,-1.0348663330078125,-0.1945037841796875,-0.0032806396484375
1776445432519429600,22.7984296875,-1.017974853515625,-0.1262969970703125,-0.0345916748046875
1776445432544445700,22.82344580078125,-1.020233154296875,0.00775146484375,-0.0066375732421875
1776445432569461800,22.848461669921875,-0.953704833984375,0.0110626220703125,0.0977630615234375
1776445432594477600,22.8734775390625,-0.94879150390625,-0.0165863037109375,-0.025360107421875
1776445432619493600,22.89849365234375,-0.9429931640625,-0.1357421875,-0.1445159912109375
1776445432644509700,22.923509765625,-0.9433441162109375,-0.215118408203125,-0.1652069091796875
1776445432669526800,22.94852685546875,-0.9525299072265625,-0.14227294921875,-0.209320068359375
1776445432694542800,22.97354296875,-0.915679931640625,-0.1035003662109375,-0.2416839599609375
1776445432719559000,22.998558837890624,-0.9441986083984375,-0.0972442626953125,-0.2298736572265625
1776445432744575000,23.023574951171874,-0.9712677001953125,-0.092529296875,-0.21209716796875
1776445432769590800,23.0485908203125,-0.9998016357421875,-0.06549072265625,-0.1903228759765625
1776445432794606800,23.07360693359375,-0.9283905029296875,-0.042388916015625,-0.2336883544921875
1776445432819624000,23.0986240234375,-0.958465576171875,-0.0927886962890625,-0.194793701171875
1776445432844640000,23.123639892578126,-1.048736572265625,-0.1149444580078125,-0.1337738037109375
1776445432869655800,23.14865576171875,-1.0193939208984375,-0.0815887451171875,-0.1407012939453125
1776445432894672000,23.173671875,-0.964324951171875,-0.1175384521484375,-0.1260833740234375
1776445432919688000,23.19868798828125,-1.01177978515625,-0.078582763671875,-0.0578155517578125
1776445432944703700,23.223703857421874,-1.030120849609375,-0.0376129150390625,-0.121337890625
1776445432969720800,23.248720947265625,-1.0009002685546875,-0.0554046630859375,-0.151153564453125
1776445432994737000,23.27373681640625,-0.96722412109375,-0.046875,-0.1206817626953125
1776445433019753000,23.2987529296875,-0.97113037109375,-0.128326416015625,-0.1448974609375
1776445433044768800,23.323768798828127,-0.995025634765625,-0.0713043212890625,-0.1081085205078125
1776445433069784800,23.348784912109377,-0.9775238037109375,-0.12744140625,-0.1334381103515625
1776445433094801000,23.37380078125,-0.9277801513671875,-0.0524139404296875,-0.0478363037109375
1776445433119817000,23.39881689453125,-0.95928955078125,-0.083709716796875,-0.015625
1776445433144833800,23.423833740234375,-0.914581298828125,-0.0725860595703125,0.0182647705078125
1776445433169849900,23.448849853515625,-0.9118804931640625,-0.0627593994140625,-0.0330963134765625
1776445433194866000,23.473865966796875,-1.159912109375,-0.1784820556640625,-0.071929931640625
1776445433219882000,23.498882080078126,-1.1207275390625,-0.331878662109375,-0.0430755615234375
1776445433244897800,23.523897705078124,-1.0792388916015625,-0.109100341796875,0.0164031982421875
1776445433269913900,23.548913818359374,-0.9936981201171875,-0.025543212890625,-0.047149658203125
1776445433294931000,23.573930908203124,-0.915435791015625,-0.031494140625,-0.2245330810546875
1776445433319947000,23.598947021484374,-0.8389129638671875,-0.09808349609375,-0.1757965087890625
1776445433344962800,23.623962890625,-0.92523193359375,-0.0543060302734375,-0.0554351806640625
1776445433369979000,23.648978759765626,-0.988800048828125,-0.082916259765625,-0.100433349609375
1776445433394995000,23.673994873046876,-1.0104522705078125,-0.059967041015625,-0.141265869140625
1776445433420010800,23.6990107421875,-0.9405670166015625,0.0809783935546875,-0.1747589111328125
1776445433445027800,23.72402783203125,-1.0189971923828125,-0.030609130859375,-0.1606292724609375
1776445433470044000,23.7490439453125,-0.9980926513671875,-0.0610809326171875,-0.1767425537109375
1776445433495060000,23.77406005859375,-0.9287872314453125,-0.059844970703125,-0.2931671142578125
1776445433520076000,23.799075927734375,-0.8318634033203125,-0.001800537109375,-0.4586334228515625
1776445433545091800,23.824091796875,-0.7053985595703125,0.063262939453125,-0.501495361328125
1776445433570108000,23.84910791015625,-0.7507171630859375,-0.0295562744140625,-0.5811767578125
1776445433595125000,23.874125,-0.7682037353515625,-0.17535400390625,-0.639434814453125
1776445433620141000,23.89914111328125,-0.806427001953125,-0.1670379638671875,-0.576751708984375
1776445433645156900,23.924156982421874,-0.789825439453125,-0.0367584228515625,-0.5313568115234375
1776445433670173700,23.949173583984376,-0.74932861328125,-0.0964508056640625,-0.63250732421875
1776445433695189500,23.974189453125,-0.56500244140625,-0.089111328125,-0.685791015625
1776445433720206600,23.99920654296875,-0.2991790771484375,-0.18121337890625,-0.8705596923828125
1776445433745222700,24.02422265625,-0.3493499755859375,-0.09124755859375,-0.8251190185546875
1776445433770238700,24.04923876953125,-0.671905517578125,0.2307586669921875,-0.77392578125
1776445433795254500,24.074254638671874,-0.612335205078125,0.2377777099609375,-0.7472991943359375
1776445433820271600,24.099271728515625,-0.4683990478515625,0.1120147705078125,-0.902191162109375
1776445433845287700,24.12428759765625,-0.374725341796875,0.0028839111328125,-1.063079833984375
1776445433870303700,24.1493037109375,-0.22576904296875,-0.041839599609375,-1.0795745849609375
1776445433895319600,24.174319580078127,-0.1811981201171875,-0.0828857421875,-1.1278076171875
1776445433920335600,24.199335693359377,-0.1544952392578125,-0.0592193603515625,-1.0815277099609375
1776445433945351700,24.2243515625,-0.3400115966796875,0.17071533203125,-1.0931396484375
1776445433970368500,24.249368408203125,-0.2482452392578125,0.103515625,-1.0737762451171875
1776445433995384600,24.274384521484375,-0.149566650390625,0.021575927734375,-0.9909515380859375
1776445434020400600,24.299400634765625,-0.3442230224609375,0.045806884765625,-0.90350341796875
1776445434045416700,24.324416748046875,-0.568389892578125,0.0447235107421875,-0.8401336669921875
1776445434070432800,24.349432861328125,-0.6381988525390625,0.01226806640625,-0.8418121337890625
1776445434095448600,24.374448486328124,-0.73370361328125,0.108367919921875,-0.815460205078125
1776445434120465400,24.39946533203125,-0.5936126708984375,0.0225982666015625,-0.73663330078125
1776445434145481500,24.4244814453125,-0.56732177734375,0.0833282470703125,-0.6018829345703125
1776445434170497500,24.44949755859375,-0.92144775390625,0.02099609375,-0.87811279296875
1776445434195513600,24.474513671875,-0.7091827392578125,-0.123443603515625,-0.850677490234375
1776445434220529700,24.49952978515625,-0.5892181396484375,-0.0976104736328125,-0.989990234375
1776445434245545700,24.524545654296876,-0.1343231201171875,0.027740478515625,-0.9703216552734375
1776445434270562600,24.5495625,-0.2675628662109375,0.09942626953125,-0.86541748046875
1776445434295578400,24.574578369140625,-0.6440582275390625,0.01544189453125,-0.7518157958984375
1776445434320594400,24.599594482421875,-0.564239501953125,-0.015045166015625,-0.783447265625
1776445434345610500,24.624610595703125,-0.514678955078125,-0.066650390625,-0.836029052734375
1776445434370626600,24.64962646484375,-0.5698699951171875,-0.1052093505859375,-0.889984130859375
1776445434395642600,24.674642578125,-0.4667205810546875,-0.058929443359375,-0.93658447265625
1776445434420658700,24.69965869140625,-0.3433074951171875,-0.0080108642578125,-0.9414520263671875
1776445434445675500,24.724675537109373,-0.4318084716796875,-0.0161895751953125,-0.8625946044921875
1776445434470691300,24.74969140625,-0.4650726318359375,-0.05499267578125,-0.77008056640625
1776445434495707400,24.774707275390625,-0.5144500732421875,-0.0499267578125,-0.813568115234375
1776445434520723500,24.799723388671875,-0.4135894775390625,-0.03546142578125,-0.813720703125
1776445434545739800,24.82473974609375,-0.3100738525390625,-0.0974273681640625,-0.8391876220703125
1776445434570755600,24.849755615234375,-0.3443450927734375,-0.1741943359375,-0.8778839111328125
1776445434595772400,24.8747724609375,-0.3104095458984375,-0.14093017578125,-0.929168701171875
1776445434620788500,24.89978857421875,-0.140625,-0.1212310791015625,-0.9827423095703125
1776445434645804500,24.924804443359374,-0.124908447265625,-0.2686614990234375,-1.07171630859375
1776445434670820000,24.949820068359376,-0.135406494140625,-0.3138580322265625,-1.065155029296875
1776445434695836000,24.9748359375,-0.0759124755859375,-0.2097320556640625,-1.033721923828125
1776445434720852000,24.99985205078125,-0.0200347900390625,-0.2414703369140625,-0.9832763671875
1776445434745868800,25.024868896484374,-0.0320892333984375,-0.1939697265625,-0.9409637451171875
1776445434770884900,25.049884765625,0.0672760009765625,-0.1887054443359375,-0.9234161376953125
1776445434795901000,25.07490087890625,0.0171356201171875,-0.2649078369140625,-0.917449951171875
1776445434820917000,25.0999169921875,0.01300048828125,-0.21820068359375,-0.9342041015625
1776445434845933000,25.12493310546875,0.1549072265625,-0.0630950927734375,-0.96478271484375
1776445434870949000,25.14994921875,0.2865447998046875,-0.1380767822265625,-1.00372314453125
1776445434895965700,25.174965576171875,0.2243499755859375,-0.1675262451171875,-1.0382232666015625
1776445434920981800,25.199981689453125,0.250457763671875,-0.0776824951171875,-1.0724945068359375
1776445434945998000,25.224998046875,0.3547821044921875,-0.1737518310546875,-1.06182861328125
1776445434971014100,25.25001416015625,0.1961517333984375,-0.1226043701171875,-1.03216552734375
1776445434996030000,25.275030029296875,0.2504730224609375,0.0314788818359375,-0.9820556640625
1776445435021046000,25.3000458984375,0.302032470703125,0.0538177490234375,-0.9961090087890625
1776445435046062800,25.325062744140624,0.3730926513671875,0.00933837890625,-0.9563140869140625
1776445435071079000,25.350078857421874,0.2346343994140625,0.1012115478515625,-0.9638214111328125
1776445435096094700,25.3750947265625,0.1290435791015625,0.0784149169921875,-0.9438018798828125
1776445435121111000,25.400111083984374,0.14227294921875,0.0336456298828125,-0.907470703125
1776445435146127000,25.425127197265624,0.3135833740234375,0.0515594482421875,-0.9782257080078125
1776445435171143000,25.450142822265626,0.27154541015625,0.1664581298828125,-1.01019287109375
1776445435196159700,25.47515966796875,0.3199005126953125,0.103668212890625,-0.9517669677734375
1776445435221175800,25.50017578125,0.155120849609375,0.1970062255859375,-0.9562530517578125
1776445435246191900,25.52519189453125,0.2238616943359375,0.1675262451171875,-0.93707275390625
1776445435271208000,25.5502080078125,0.2928009033203125,0.10272216796875,-0.9493408203125
1776445435296224000,25.57522412109375,0.35565185546875,0.05682373046875,-1.0382537841796875
1776445435321240000,25.600239990234375,0.403106689453125,-0.069091796875,-1.13067626953125
1776445435346257000,25.6252568359375,0.3128662109375,0.01141357421875,-1.030426025390625
1776445435371272700,25.650272705078127,0.172882080078125,0.1423492431640625,-0.9736480712890625
1776445435396288800,25.675288818359373,0.1304168701171875,0.392913818359375,-0.818817138671875
1776445435421304800,25.700304931640623,0.233306884765625,0.3831024169921875,-0.69573974609375
1776445435446321000,25.72532080078125,0.1947784423828125,0.144775390625,-0.8784942626953125
1776445435471337000,25.7503369140625,0.0303955078125,0.1125640869140625,-0.97125244140625
1776445435496353800,25.775353759765625,0.1526336669921875,0.221893310546875,-0.930908203125
1776445435521369900,25.800369873046876,0.3265228271484375,0.2076416015625,-0.9626617431640625
1776445435546386000,25.825385986328126,0.4638671875,0.0754852294921875,-0.9033050537109375
1776445435571401700,25.850401611328124,0.4012298583984375,0.045562744140625,-0.9711456298828125
1776445435596417800,25.875417724609374,0.3501739501953125,0.22076416015625,-1.0020904541015625
1776445435621435000,25.900434814453124,0.433349609375,0.1965484619140625,-1.0250701904296875
1776445435646451000,25.925450927734374,0.3861236572265625,0.2087554931640625,-0.885467529296875
1776445435671467000,25.950467041015624,-0.038726806640625,0.2588348388671875,-0.7178802490234375
1776445435696483000,25.975483154296874,0.113311767578125,0.059600830078125,-0.7845306396484375
1776445435721499100,26.0004990234375,0.2509765625,0.155059814453125,-0.88262939453125
1776445435746515000,26.025514892578126,0.28497314453125,0.152923583984375,-1.0526580810546875
1776445435771532000,26.050531982421877,0.2586669921875,0.0597686767578125,-1.174163818359375
1776445435796548000,26.075548095703127,0.258392333984375,0.05291748046875,-1.134002685546875
1776445435821564200,26.100564208984373,0.1623687744140625,0.097320556640625,-1.0560455322265625
1776445435846580000,26.125580078125,0.05255126953125,0.1856689453125,-0.955810546875
1776445435871596000,26.150595947265625,0.0807342529296875,0.1806182861328125,-1.0232696533203125
1776445435896612000,26.175612060546875,0.06640625,0.1341552734375,-1.0732421875
1776445435921629200,26.200629150390625,0.1060791015625,0.48565673828125,-0.862060546875
1776445435946645000,26.22564501953125,0.284027099609375,0.414886474609375,-0.8276214599609375
1776445435971661000,26.2506611328125,0.316497802734375,0.2734222412109375,-0.90545654296875
1776445435996677000,26.275677001953124,0.3830413818359375,0.1627044677734375,-1.0440521240234375
1776445436021693000,26.30069287109375,0.40435791015625,-0.0098876953125,-1.181060791015625
1776445436046709000,26.325708984375,0.18634033203125,-0.0664215087890625,-1.0136566162109375
1776445436071726000,26.35072607421875,-0.13507080078125,-0.025238037109375,-0.9213714599609375
1776445436096742100,26.3757421875,-0.1838226318359375,0.0097808837890625,-0.8983306884765625
1776445436121758000,26.400758056640626,-0.2213897705078125,0.01763916015625,-0.946685791015625
1776445436146774000,26.42577392578125,-0.2008819580078125,-0.026092529296875,-1.04541015625
1776445436171790000,26.4507900390625,-0.208465576171875,-0.0383758544921875,-1.01605224609375
1776445436196806100,26.47580615234375,-0.2598876953125,0.05859375,-0.938018798828125
1776445436221823000,26.500822998046875,-0.1492767333984375,0.1712646484375,-0.9727325439453125
1776445436246839000,26.525839111328125,-0.006744384765625,0.212677001953125,-0.990936279296875
1776445436271855000,26.550855224609375,-0.0370025634765625,0.226593017578125,-0.8997344970703125
1776445436296871200,26.57587109375,0.0526885986328125,0.2701568603515625,-0.965484619140625
1776445436321887000,26.600886962890623,0.14483642578125,0.2714080810546875,-0.978240966796875
1776445436346904000,26.625904052734374,0.1386260986328125,0.2812042236328125,-0.9078826904296875
1776445436371920100,26.650920166015624,0.144683837890625,0.3349456787109375,-0.99554443359375
1776445436396936200,26.675936279296874,0.251220703125,0.2258758544921875,-1.028411865234375
1776445436421952000,26.700951904296875,0.17755126953125,0.194915771484375,-0.9483795166015625
1776445436446968000,26.725968017578126,0.0173797607421875,0.1861114501953125,-0.9343414306640625
1776445436471984000,26.750984130859376,-0.02532958984375,0.1040191650390625,-0.9889068603515625
1776445436497001200,26.776001220703126,-0.026885986328125,0.174072265625,-0.9618377685546875
1776445436522017000,26.80101708984375,-0.0355072021484375,0.0474700927734375,-0.90130615234375
1776445436547033000,26.826033203125,0.0919647216796875,-0.07550048828125,-1.069122314453125
1776445436572049200,26.851049072265624,0.1405181884765625,0.0885009765625,-1.1907806396484375
1776445436597065000,26.87606494140625,0.1340789794921875,0.1690521240234375,-1.1060333251953125
1776445436622081000,26.9010810546875,0.0999298095703125,0.153594970703125,-0.951416015625
1776445436647098000,26.92609814453125,0.0725555419921875,0.2068328857421875,-0.9271697998046875
1776445436672113700,26.95111376953125,-0.1017303466796875,0.2671661376953125,-0.920135498046875
1776445436697129700,26.976129638671875,0.0975799560546875,0.31634521484375,-0.9890289306640625
1776445436722145500,27.0011455078125,0.123260498046875,0.2277374267578125,-0.9687042236328125
1776445436747161600,27.02616162109375,0.1372222900390625,0.2129669189453125,-0.9054412841796875
1776445436772178700,27.0511787109375,0.073455810546875,0.28594970703125,-0.8026580810546875
1776445436797194800,27.07619482421875,-0.074859619140625,0.3063201904296875,-0.7429351806640625
1776445436822210800,27.1012109375,0.116851806640625,0.2765350341796875,-0.89923095703125
1776445436847226600,27.1262265625,0.3021087646484375,0.2120819091796875,-1.0347137451171875
1776445436872242700,27.15124267578125,0.3359375,0.0891265869140625,-1.092071533203125
1776445436897258800,27.1762587890625,0.32275390625,0.0831146240234375,-1.162811279296875
1776445436922275800,27.20127587890625,0.0220489501953125,-0.0663604736328125,-1.0904998779296875
1776445436947291600,27.226291748046876,0.3815155029296875,0.386993408203125,-1.0262298583984375
1776445436972307700,27.2513076171875,0.3800811767578125,0.1424713134765625,-0.93145751953125
1776445436997323800,27.27632373046875,0.1192626953125,0.2180328369140625,-0.9004669189453125
1776445437022339600,27.301339599609374,-0.035858154296875,0.1578216552734375,-1.05029296875
1776445437047355600,27.326355712890624,-0.0567169189453125,0.1478118896484375,-0.99853515625
1776445437072372700,27.351372802734375,0.1391448974609375,0.2604827880859375,-0.9147186279296875
1776445437097388800,27.376388916015625,0.2928009033203125,0.3348541259765625,-0.8316497802734375
1776445437122404600,27.401404541015626,0.2051239013671875,0.409149169921875,-0.7921600341796875
1776445437147420700,27.426420654296876,0.2373046875,0.299041748046875,-0.9149627685546875
1776445437172436700,27.451436767578127,0.18402099609375,0.162017822265625,-1.09613037109375
1776445437197452800,27.476452880859377,0.1578216552734375,-0.0308837890625,-1.16107177734375
1776445437222469600,27.5014697265625,0.0944976806640625,-0.0240631103515625,-1.15863037109375
1776445437247485700,27.526485595703125,-0.031463623046875,0.0778961181640625,-0.9836883544921875
1776445437272501800,27.551501708984375,0.023590087890625,0.224151611328125,-0.9017486572265625
1776445437297517800,27.576517822265625,0.308319091796875,0.293212890625,-0.9709014892578125
1776445437322533600,27.60153369140625,0.3814849853515625,0.28094482421875,-0.9652862548828125
1776445437347550700,27.62655078125,0.280914306640625,0.239532470703125,-0.9306793212890625
1776445437372566800,27.65156689453125,0.1996307373046875,0.203582763671875,-0.899017333984375
1776445437397582800,27.676582763671874,0.130615234375,0.155670166015625,-0.925933837890625
1776445437422598700,27.7015986328125,0.1168365478515625,0.131134033203125,-0.9786376953125
1776445437447614700,27.72661474609375,0.1354827880859375,0.173583984375,-0.9728240966796875
1776445437472630800,27.751630859375,0.2474212646484375,0.20953369140625,-0.93206787109375
1776445437497647900,27.77664794921875,0.3058929443359375,0.2166290283203125,-0.9699859619140625
1776445437522663700,27.80166357421875,0.1870269775390625,0.2432098388671875,-0.987579345703125
1776445437547679700,27.8266796875,0.13153076171875,0.1789093017578125,-1.0281829833984375
1776445437572695800,27.85169580078125,0.0331268310546875,0.162384033203125,-1.0155029296875
1776445437597711600,27.876711669921875,0.10357666015625,0.2476654052734375,-0.967132568359375
1776445437622727700,27.901727783203125,0.17529296875,0.404449462890625,-0.8829498291015625
1776445437647744800,27.926744873046875,0.10162353515625,0.464508056640625,-0.7609405517578125
1776445437672760600,27.951760498046873,-0.2927703857421875,0.2777557373046875,-0.923431396484375
1776445437697776600,27.976776611328123,-0.0328216552734375,0.1722259521484375,-0.9705810546875
1776445437722792700,28.001792724609373,0.1300201416015625,0.262420654296875,-0.9238433837890625
1776445437747809500,28.0268095703125,0.0193023681640625,0.34161376953125,-0.9293670654296875
1776445437772825600,28.05182568359375,0.0545501708984375,0.3619842529296875,-0.8792266845703125
1776445437797841700,28.076841552734376,0.1023101806640625,0.3004302978515625,-0.9122314453125
1776445437822857700,28.101857666015626,0.110076904296875,0.1782684326171875,-1.055816650390625
1776445437847873500,28.12687353515625,0.1761932373046875,0.06866455078125,-1.1068115234375
1776445437872889600,28.1518896484375,0.1400909423828125,0.12518310546875,-1.0406341552734375
1776445437897906400,28.176906494140624,0.1134033203125,0.2177734375,-0.957550048828125
1776445437922922500,28.201922607421874,0.150146484375,0.3390655517578125,-0.9579925537109375
1776445437947938600,28.2269384765625,0.19281005859375,0.332916259765625,-0.9367218017578125
1776445437972954600,28.25195458984375,0.1878662109375,0.320892333984375,-0.8756561279296875
1776445437997970700,28.276970703125,0.1284027099609375,0.299530029296875,-0.9109039306640625
1776445438022987500,28.301987548828127,0.0925445556640625,0.2830047607421875,-0.92572021484375
1776445438048003300,28.32700341796875,0.0829925537109375,0.2727508544921875,-0.934173583984375
1776445438073019400,28.352019287109375,0.1524810791015625,0.3111419677734375,-1.000732421875
1776445438098035500,28.377035400390625,0.2052459716796875,0.302764892578125,-1.03619384765625
1776445438123051500,28.402051513671875,0.2244415283203125,0.29168701171875,-0.9750213623046875
1776445438148067600,28.427067626953125,0.1948089599609375,0.352142333984375,-0.89117431640625
1776445438173084400,28.45208447265625,0.1770477294921875,0.3548736572265625,-0.86712646484375
1776445438198100500,28.4771005859375,0.1742401123046875,0.386260986328125,-0.900604248046875
1776445438223116500,28.502116455078124,0.2022552490234375,0.35443115234375,-0.9302825927734375
1776445438248132400,28.52713232421875,0.1518096923828125,0.3025665283203125,-0.9349365234375
1776445438273148400,28.5521484375,0.0821685791015625,0.3026275634765625,-0.9151458740234375
1776445438298165500,28.57716552734375,0.027496337890625,0.3448638916015625,-0.911407470703125
1776445438323181600,28.602181640625,0.058929443359375,0.3580169677734375,-0.9855194091796875
1776445438348196600,28.627196533203126,0.069732666015625,0.2589569091796875,-1.0002288818359375
1776445438373212700,28.652212646484376,-0.052734375,0.183807373046875,-0.91632080078125
1776445438398229500,28.6772294921875,-0.120269775390625,0.239227294921875,-0.885986328125
1776445438423245300,28.702245361328124,-0.0827484130859375,0.23638916015625,-0.937103271484375
1776445438448261400,28.727261474609374,-0.0294036865234375,0.0506744384765625,-0.94757080078125
1776445438473277700,28.752277587890624,-0.1233978271484375,-0.0247344970703125,-0.9175567626953125
1776445438498293800,28.777293701171875,-0.12030029296875,-0.0412139892578125,-0.953704833984375
1776445438523310600,28.802310546875,-0.0734710693359375,-0.064056396484375,-1.0020294189453125
1776445438548326400,28.827326416015627,-0.0742034912109375,-0.0990142822265625,-1.037261962890625
1776445438573342500,28.852342529296877,-0.0426483154296875,-0.126190185546875,-1.0190582275390625
1776445438598358500,28.877358642578123,-0.0811614990234375,-0.117919921875,-0.9355926513671875
1776445438623374300,28.902374267578125,-0.0838775634765625,-0.0949859619140625,-0.8735809326171875
1776445438648390700,28.927390625,0.021331787109375,-0.1844635009765625,-0.8958282470703125
1776445438673407700,28.95240771484375,-0.0419769287109375,-0.1423492431640625,-0.9592742919921875
1776445438698423600,28.977423583984375,-0.0227813720703125,-0.094757080078125,-1.000213623046875
1776445438723439600,29.002439697265626,-0.053466796875,-0.0601043701171875,-1.019744873046875
1776445438748455700,29.02745556640625,-0.0265350341796875,0.0005950927734375,-1.061065673828125
1776445438773471500,29.052471435546874,-0.0198974609375,0.0688629150390625,-1.0598297119140625
1776445438798488600,29.077488525390624,-0.0677337646484375,0.0155029296875,-1.0047149658203125
1776445438823504600,29.102504638671874,-0.07318115234375,-0.0137939453125,-0.9754486083984375
1776445438848520700,29.127520751953124,0.045989990234375,0.0079193115234375,-0.98272705078125
1776445438873536800,29.152536865234374,0.1015625,-0.053009033203125,-1.1765899658203125
1776445438898552600,29.177552490234376,-0.0616455078125,-0.1123199462890625,-1.13360595703125
1776445438923568600,29.202568603515626,0.0240478515625,-0.0904388427734375,-1.0410919189453125
1776445438948585700,29.227585693359377,0.15625,-0.0793304443359375,-0.982757568359375
1776445438973601800,29.252601806640627,0.175201416015625,0.030303955078125,-0.89825439453125
1776445438998617600,29.27761767578125,0.1816864013671875,0.1457061767578125,-0.9036407470703125
1776445439023633700,29.302633544921875,0.11712646484375,0.12054443359375,-1.00469970703125
1776445439048649700,29.327649658203125,0.051025390625,-0.0059661865234375,-0.9949188232421875
1776445439073666800,29.352666748046875,0.0727081298828125,-0.0812530517578125,-1.004150390625
1776445439098682600,29.3776826171875,0.121856689453125,-0.1441192626953125,-1.09661865234375
1776445439123698700,29.40269873046875,0.0893402099609375,-0.088623046875,-1.0931396484375
1776445439148714800,29.42771484375,0.0293121337890625,0.0101470947265625,-1.0984954833984375
1776445439173730600,29.45273046875,0.1010589599609375,-0.1004486083984375,-0.9931488037109375
1776445439198746600,29.47774658203125,0.2233734130859375,-0.2996978759765625,-0.870330810546875
1776445439223763700,29.502763671875,0.2653350830078125,-0.429931640625,-0.9127655029296875
1776445439248779800,29.52777978515625,0.284515380859375,-0.37115478515625,-1.0457916259765625
1776445439273795600,29.552795654296876,0.26220703125,-0.2968597412109375,-1.100494384765625
1776445439298811600,29.577811767578126,0.2906341552734375,-0.2994232177734375,-1.1075439453125
1776445439323827700,29.60282763671875,-0.0303802490234375,-0.2482452392578125,-1.036468505859375
1776445439348844800,29.6278447265625,-0.1268310546875,-0.2466278076171875,-1.0308990478515625
1776445439373860600,29.652860595703125,-0.2764129638671875,0.0457611083984375,-0.863311767578125
1776445439398876700,29.677876708984375,-0.1267852783203125,0.064483642578125,-0.7560272216796875
1776445439423892700,29.702892822265625,-0.04486083984375,0.1218719482421875,-0.761016845703125
1776445439448908800,29.72790869140625,0.03497314453125,0.053436279296875,-0.978424072265625
1776445439473924600,29.752924560546877,0.0641937255859375,-0.015899658203125,-1.0604248046875
1776445439498941700,29.777941650390623,0.095245361328125,0.0123443603515625,-1.0898895263671875
1776445439523957800,29.802957763671873,0.1096343994140625,0.098175048828125,-1.08148193359375
1776445439548973800,29.827973876953124,0.1375885009765625,0.089508056640625,-0.994232177734375
1776445439573989600,29.85298974609375,0.0118865966796875,0.1090850830078125,-1.0174407958984375
1776445439599005700,29.878005615234375,0.13836669921875,-0.0009002685546875,-1.021087646484375
1776445439624021800,29.903021728515625,0.021636962890625,0.0982513427734375,-0.9990234375
1776445439649038800,29.928038818359376,-0.1220703125,0.0745391845703125,-0.9151611328125
1776445439674055200,29.95305517578125,-0.0766448974609375,0.01007080078125,-0.9694366455078125
1776445439699071200,29.9780712890625,0.0154876708984375,0.1728973388671875,-1.03106689453125
1776445439724087300,30.00308740234375,0.0631866455078125,0.3770294189453125,-0.9543914794921875
1776445439749103400,30.028103271484376,-0.1499481201171875,0.0848846435546875,-0.930023193359375
1776445439774120400,30.053120361328126,-0.179290771484375,0.007537841796875,-1.0089874267578125
1776445439799136300,30.07813623046875,-0.20269775390625,0.033966064453125,-1.022735595703125
1776445439824152300,30.10315234375,-0.02581787109375,0.04345703125,-1.0571441650390625
1776445439849168400,30.12816845703125,-0.0414581298828125,0.1549835205078125,-1.0040130615234375
1776445439874184200,30.15318408203125,-0.0623779296875,0.2263031005859375,-0.900115966796875
1776445439899200300,30.1782001953125,-0.0760498046875,0.1814422607421875,-0.9351348876953125
1776445439924217300,30.20321728515625,-0.075042724609375,0.1665802001953125,-0.9694671630859375
1776445439949233400,30.2282333984375,-0.2382659912109375,0.1143951416015625,-0.985107421875
1776445439974249200,30.253249267578123,-0.06097412109375,0.1359405517578125,-0.9734039306640625
1776445439999265300,30.278265380859374,-0.024139404296875,0.1374664306640625,-0.9730072021484375
1776445440024281300,30.30328125,0.06475830078125,0.1609344482421875,-0.9787139892578125
1776445440049298200,30.328298095703126,0.0370635986328125,0.1093902587890625,-0.988525390625
1776445440074314200,30.353314208984376,-0.073822021484375,0.1520843505859375,-0.838897705078125
1776445440099330300,30.378330322265626,-0.05865478515625,0.0688323974609375,-0.9557952880859375
1776445440124346400,30.403346435546876,-0.0655517578125,0.102294921875,-0.997711181640625
1776445440149362400,30.428362548828126,-0.0503387451171875,0.16815185546875,-0.9312896728515625
1776445440174378200,30.453378173828124,-0.0440673828125,0.1461944580078125,-1.01373291015625
1776445440199395000,30.47839501953125,-0.0053863525390625,0.159698486328125,-0.9647064208984375
1776445440224411100,30.5034111328125,-0.0996856689453125,0.165496826171875,-0.937774658203125
1776445440249427200,30.52842724609375,-0.0626983642578125,0.17022705078125,-1.01458740234375
1776445440274443300,30.553443359375,0.033416748046875,0.1610260009765625,-1.1034698486328125
1776445440299459300,30.578459228515626,0.0406646728515625,0.190765380859375,-1.0161590576171875
1776445440324476200,30.60347607421875,-0.067138671875,0.183258056640625,-0.935791015625
1776445440349492200,30.6284921875,-0.05718994140625,0.1867523193359375,-0.98089599609375
1776445440374508000,30.653508056640625,-0.0126953125,0.12530517578125,-1.052703857421875
1776445440399524000,30.678524169921875,-0.0363311767578125,0.130035400390625,-1.010833740234375
1776445440424540200,30.7035400390625,-0.0859527587890625,0.1577606201171875,-0.997894287109375
1776445440449556200,30.72855615234375,-0.0547943115234375,0.1163482666015625,-1.0149078369140625
1776445440474573000,30.753572998046874,-0.053009033203125,0.17181396484375,-0.93438720703125
1776445440499589000,30.778589111328124,-0.002044677734375,0.2346038818359375,-0.9186553955078125
1776445440524605200,30.803605224609374,0.0797119140625,0.2387542724609375,-0.9072418212890625
1776445440549621000,30.82862109375,0.1332244873046875,0.241119384765625,-0.9842681884765625
1776445440574637000,30.853636962890626,0.165924072265625,0.1346435546875,-1.09332275390625
1776445440599654100,30.878654052734376,0.1500701904296875,0.10919189453125,-1.084808349609375
1776445440624670200,30.903670166015626,0.0955352783203125,0.1724090576171875,-0.9957275390625
1776445440649686000,30.92868603515625,-0.0398101806640625,0.12530517578125,-0.91534423828125
1776445440674701600,30.95370166015625,-0.1292877197265625,0.092926025390625,-0.9617767333984375
1776445440699718000,30.9787177734375,-0.1181640625,0.173065185546875,-0.9702606201171875
1776445440724734000,31.00373388671875,-0.165191650390625,0.125244140625,-0.94415283203125
1776445440749750800,31.028750732421877,-0.1143646240234375,0.167694091796875,-0.9774932861328125
1776445440774766600,31.0537666015625,-0.074615478515625,0.1808013916015625,-0.9661865234375
1776445440799782700,31.07878271484375,-0.115447998046875,0.168670654296875,-0.99334716796875
1776445440824798700,31.103798828125,-0.0790863037109375,0.144500732421875,-1.089691162109375
1776445440849814800,31.128814697265625,-0.070526123046875,0.172607421875,-1.0063934326171875
1776445440874831600,31.15383154296875,-0.3039093017578125,0.183258056640625,-0.8032989501953125
1776445440899847700,31.17884765625,-0.1172943115234375,0.2423553466796875,-0.9948272705078125
1776445440924863700,31.20386376953125,0.05487060546875,0.2525787353515625,-1.158599853515625
1776445440949879800,31.2288798828125,0.0632781982421875,0.2602691650390625,-1.085540771484375
1776445440974895600,31.2538955078125,-0.1378021240234375,0.1746673583984375,-0.8781890869140625
1776445440999911700,31.27891162109375,-0.256439208984375,0.156341552734375,-0.907501220703125
1776445441024928800,31.3039287109375,-0.2358245849609375,0.1813201904296875,-1.01519775390625
1776445441049944800,31.32894482421875,-0.1961669921875,0.13482666015625,-1.0797119140625
1776445441074960600,31.353960693359376,-0.24847412109375,0.12652587890625,-0.99981689453125
1776445441099976700,31.378976806640626,-0.1767578125,0.1312103271484375,-0.9682159423828125
1776445441124992800,31.40399267578125,-0.208831787109375,0.1568603515625,-0.97607421875
1776445441150009900,31.429009765625,-0.258575439453125,0.1472015380859375,-0.8924407958984375
1776445441175025700,31.454025634765625,-0.241973876953125,0.157989501953125,-0.995941162109375
1776445441200041700,31.479041748046875,-0.2029876708984375,0.27044677734375,-0.9639739990234375
1776445441225057800,31.504057861328125,-0.33740234375,0.1483001708984375,-1.1840362548828125
1776445441250073900,31.529073974609375,0.278839111328125,0.4556121826171875,-0.740936279296875
1776445441275090700,31.554090576171873,-0.216949462890625,0.5960235595703125,-0.7995758056640625
1776445441300106800,31.579106689453123,-0.0872650146484375,0.4877777099609375,-0.8872222900390625
1776445441325122800,31.604122802734373,-0.1170501708984375,0.1331329345703125,-0.832733154296875
1776445441350139000,31.629138916015624,-0.307952880859375,0.308502197265625,-0.75634765625
1776445441375154700,31.65415478515625,-0.7212677001953125,0.4354705810546875,-0.680572509765625
1776445441400170800,31.679170654296875,-0.551055908203125,0.517120361328125,-0.8585968017578125
1776445441425187800,31.704187744140626,-0.396148681640625,0.3997955322265625,-0.7800140380859375
1776445441450204000,31.729203857421876,-0.34747314453125,0.33026123046875,-0.8394775390625
1776445441475219700,31.7542197265625,-0.07366943359375,0.0768585205078125,-1.1462249755859375
1776445441500235800,31.77923583984375,-0.1477508544921875,0.20263671875,-1.14404296875
1776445441525251800,31.804251953125,-0.36676025390625,0.29730224609375,-1.0615997314453125
1776445441550269000,31.82926904296875,-0.7223663330078125,0.1313934326171875,-0.92626953125
1776445441575284700,31.85428466796875,-0.4840087890625,0.2084197998046875,-0.819488525390625
1776445441600300800,31.87930078125,-0.3906402587890625,0.3056488037109375,-0.8674163818359375
1776445441625316900,31.90431689453125,-0.1243133544921875,0.3387603759765625,-0.9913787841796875
1776445441650332700,31.929332763671876,-0.078887939453125,0.2638702392578125,-1.03753662109375
1776445441675348700,31.9543486328125,-0.0708465576171875,0.30010986328125,-1.029449462890625
1776445441700365800,31.97936572265625,-0.2250213623046875,0.343658447265625,-0.9649200439453125
1776445441725382000,32.0043818359375,-0.310699462890625,0.4351959228515625,-0.86053466796875
1776445441750399000,32.02939892578125,-0.2955169677734375,0.48431396484375,-0.680908203125
