time,seconds_elapsed,z,y,x
1776445409798611500,0.077611572265625,-0.07621729373931885,-0.010658372193574905,0.16129980981349945
1776445409823627300,0.102627197265625,-0.020857956260442734,-0.026500767096877098,-0.0034237538930028677
1776445409848643300,0.127643310546875,0.05281180515885353,-0.011303610168397427,-0.08457066863775253
1776445409873659400,0.152659423828125,0.029556799679994583,0.009103881195187569,0.04754049703478813
1776445409898675500,0.177675537109375,-0.06280118227005005,-0.14615680277347565,0.07770803570747375
1776445409923690200,0.202690185546875,-0.036013297736644745,-0.14259986579418182,-0.023858632892370224
1776445409948706300,0.227706298828125,0.10206417739391327,0.04300529509782791,-0.025531305000185966
1776445409973722000,0.25272216796875,0.2042372226715088,0.10247164219617844,-0.013573041185736656
1776445409998738200,0.27773828125,0.22628870606422424,0.08189298212528229,0.03992341458797455
1776445410023754200,0.302754150390625,0.30129197239875793,0.05777211859822273,0.016631435602903366
1776445410048769300,0.327769287109375,0.4642921984195709,0.12929192185401917,-0.08460653573274612
1776445410073785300,0.352785400390625,0.6508954167366028,0.26285192370414734,-0.22958897054195404
1776445410098801400,0.377801513671875,0.567685604095459,0.2969288229942322,-0.05310235172510147
1776445410123817500,0.4028173828125,0.527478814125061,0.48178550601005554,0.10114989429712296
1776445410148833300,0.427833251953125,0.8279334902763367,1.0480711460113525,-0.0687774121761322
1776445410173848300,0.452848388671875,1.1844228506088257,1.190000295639038,-0.4117017686367035
1776445410198864100,0.477864013671875,1.3193987607955933,0.9055454730987549,-0.45489540696144104
1776445410223880200,0.502880126953125,1.2451603412628174,0.7568590044975281,0.08951044827699661
1776445410248896300,0.527896240234375,1.2560679912567139,0.34269726276397705,0.2201894372701645
1776445410273912300,0.552912353515625,1.3652998208999634,-0.35169920325279236,-0.1532139927148819
1776445410298927400,0.57792724609375,1.4530925750732422,-0.3964746594429016,-0.38170957565307617
1776445410323943400,0.602943359375,1.635541558265686,-0.059396326541900635,-0.0800316259264946
1776445410348959500,0.62795947265625,1.616231083869934,0.22891996800899506,0.19244781136512756
1776445410373975300,0.652975341796875,1.8118900060653687,0.49871277809143066,0.13088901340961456
1776445410398991400,0.677991455078125,2.1811065673828125,0.7615182995796204,0.05285258963704109
1776445410424007400,0.70300732421875,2.186018466949463,0.7420464754104614,-0.12767411768436432
1776445410449022200,0.728022216796875,2.129194974899292,0.3389297127723694,-0.3265485167503357
1776445410474038300,0.753038330078125,2.213087558746338,0.1809253841638565,-0.19920247793197632
1776445410499054300,0.778054443359375,2.1682348251342773,0.24222001433372498,0.011456864885985851
1776445410524070100,0.803070068359375,2.073322057723999,0.29623886942863464,0.04660230875015259
1776445410549086200,0.828086181640625,1.894679069519043,0.42033690214157104,0.0265690628439188
1776445410574101500,0.8531015625,1.7664525508880615,0.48948389291763306,0.05782216414809227
1776445410599117300,0.878117431640625,1.7841832637786865,0.3740359842777252,0.08760062605142593
1776445410624133400,0.90313330078125,1.7534314393997192,0.10501447319984436,0.012420428916811943
1776445410649149200,0.928149169921875,1.7933123111724854,0.028785845264792442,-0.058338556438684464
1776445410674165200,0.953165283203125,1.865024209022522,0.29421311616897583,-0.09467098861932755
1776445410699181300,0.978181396484375,1.8534239530563354,0.46477457880973816,-0.13071613013744354
1776445410724196000,1.003196044921875,1.791951298713684,0.3801976144313812,-0.18534624576568604
1776445410749212200,1.028212158203125,1.564680814743042,-0.02822204679250717,-0.44496262073516846
1776445410774228200,1.053228271484375,1.2939105033874512,-0.6736271977424622,-0.573932409286499
1776445410799244300,1.078244384765625,1.0999010801315308,-1.3425710201263428,-0.4281890094280243
1776445410824260400,1.10326025390625,1.0648823976516724,-0.8684660792350769,-0.19541266560554504
1776445410849275400,1.128275390625,1.0530892610549927,-0.32264167070388794,-0.22180677950382233
1776445410874291200,1.153291259765625,1.0473690032958984,-0.3635927438735962,-0.4214327335357666
1776445410899307300,1.178307373046875,0.8628504276275635,0.03720569983124733,-0.42818593978881836
1776445410924323300,1.2033232421875,0.8720699548721313,0.2574089765548706,-0.3288770318031311
1776445410949339400,1.22833935546875,1.1002545356750488,0.23962245881557465,-0.2591839134693146
1776445410974355200,1.253355224609375,1.2680299282073975,0.054857391864061356,-0.024226456880569458
1776445410999370200,1.278370361328125,1.4681233167648315,0.0113228103145957,0.07802800834178925
1776445411024386300,1.30338623046875,1.7430506944656372,-0.32187116146087646,0.13137421011924744
1776445411049402000,1.328402099609375,1.4572148323059082,-0.16595838963985443,0.13877318799495697
1776445411074418400,1.35341845703125,0.8136837482452393,-0.03824027255177498,0.13697689771652222
1776445411099434500,1.3784345703125,0.5747042894363403,0.19210302829742432,0.027542391791939735
1776445411124450300,1.4034501953125,0.7545986175537109,0.41859209537506104,-0.052826449275016785
1776445411149466400,1.42846630859375,0.8164826035499573,0.3423888385295868,-0.06933732330799103
1776445411174481400,1.4534814453125,0.7520347237586975,0.2278231531381607,0.01327069103717804
1776445411199497200,1.478497314453125,0.7482460737228394,-0.03552331030368805,0.015522804111242294
1776445411224513300,1.50351318359375,0.845471978187561,-0.1960308998823166,-0.10378067195415497
1776445411249529300,1.528529296875,1.0243768692016602,-0.11193802952766418,-0.08056175708770752
1776445411274545200,1.553545166015625,1.206583857536316,0.0032899165526032448,0.17442432045936584
1776445411299561200,1.578561279296875,1.2496862411499023,0.2235020250082016,0.46293380856513977
1776445411324576300,1.603576171875,1.1603692770004272,0.43987762928009033,0.5207672715187073
1776445411349592300,1.62859228515625,0.8208843469619751,0.4756258726119995,0.4063115119934082
1776445411374608400,1.6536083984375,0.6498983502388,0.2706560492515564,0.15452609956264496
1776445411399624400,1.67862451171875,0.5721126794815063,0.20973709225654602,0.04926937445998192
1776445411424640300,1.70364013671875,0.7131122350692749,0.2368522733449936,-0.11381497234106064
1776445411449656300,1.72865625,0.9581562280654907,-0.013752080500125885,-0.29440584778785706
1776445411474671400,1.75367138671875,1.2149156332015991,0.019374020397663116,-0.17878858745098114
1776445411499687200,1.778687255859375,1.3404598236083984,0.017183685675263405,-0.2170439213514328
1776445411524703200,1.803703125,1.4338616132736206,0.08258191496133804,-0.18807515501976013
1776445411549719300,1.82871923828125,1.5250616073608398,0.16361963748931885,0.02928832173347473
1776445411574735400,1.8537353515625,1.512001395225525,-0.055135954171419144,-0.23799386620521545
1776445411599751200,1.878751220703125,1.5819655656814575,0.03834579512476921,-0.2591859698295593
1776445411624767200,1.903767333984375,1.5805796384811401,-0.12805314362049103,-0.25407806038856506
1776445411649779000,1.928779052734375,1.430295705795288,-0.4112289845943451,-0.24665039777755737
1776445411674795000,1.953794921875,1.414648413658142,-0.26159533858299255,-0.05282144621014595
1776445411699810800,1.978810791015625,1.3794559240341187,-0.09575304388999939,0.15444163978099823
1776445411724827000,2.003826904296875,1.1576082706451416,-0.07222405821084976,0.12219056487083435
1776445411749843000,2.028843017578125,0.8666285872459412,-0.04501678794622421,-0.0032460594084113836
1776445411774858800,2.053858642578125,1.1058310270309448,-0.06728272885084152,0.020001985132694244
1776445411799874800,2.078874755859375,1.6004338264465332,-0.3459610641002655,0.04883039742708206
1776445411824891000,2.103890869140625,1.6164485216140747,-0.8139529824256897,-0.07702728360891342
1776445411849905700,2.12890576171875,1.2690831422805786,-0.7700612545013428,-0.07678747177124023
1776445411874921700,2.153921630859375,0.8336266279220581,-0.18425510823726654,0.10955948382616043
1776445411899937800,2.178937744140625,0.8372244238853455,0.6208372712135315,0.12127099186182022
1776445411924953600,2.20395361328125,1.2376912832260132,1.0045747756958008,0.23710797727108002
1776445411949969700,2.2289697265625,2.0548152923583984,0.14102524518966675,0.3040681779384613
1776445411974985700,2.25398583984375,3.08866810798645,-0.33509841561317444,0.5166731476783752
1776445412000001800,2.279001708984375,3.887784957885742,-0.3128851652145386,1.1327300071716309
1776445412025017900,2.304017822265625,4.044853210449219,-0.7362074851989746,1.3518702983856201
1776445412050033000,2.329032958984375,3.876502752304077,-0.7367602586746216,0.9495754241943359
1776445412075048700,2.354048583984375,3.5079104900360107,-0.5075923204421997,0.46433761715888977
1776445412100064800,2.379064697265625,2.982551336288452,-0.2874949276447296,0.4030649662017822
1776445412125080800,2.404080810546875,2.4519879817962646,-0.03988519683480263,0.44088903069496155
1776445412150097000,2.429096923828125,1.886016607284546,0.19963999092578888,0.4677894115447998
1776445412175112700,2.45411279296875,1.488723874092102,0.5026121139526367,0.37525230646133423
1776445412200128800,2.479128662109375,1.4457556009292603,0.6898030638694763,0.4554431140422821
1776445412225144800,2.504144775390625,1.6179699897766113,0.5997958779335022,0.4815899431705475
1776445412250159600,2.52915966796875,1.7942531108856201,0.33910760283470154,0.41220352053642273
1776445412275176000,2.554176025390625,2.0674335956573486,0.3252154290676117,0.36632320284843445
1776445412300192000,2.57919189453125,2.166229009628296,0.2378973364830017,0.4283602833747864
1776445412325207800,2.604207763671875,1.8990329504013062,-0.011112349107861519,0.4228864014148712
1776445412350224000,2.629223876953125,1.472408652305603,-0.0851728618144989,0.09196948260068893
1776445412375240000,2.654239990234375,1.2846171855926514,0.23631007969379425,0.021680835634469986
1776445412400255700,2.679255859375,1.2157928943634033,0.4394882023334503,0.20907877385616302
1776445412425271800,2.704271728515625,0.9935923218727112,0.37388816475868225,0.11360146105289459
1776445412450287900,2.729287841796875,0.9464349150657654,0.2211400717496872,-0.08152047544717789
1776445412475302700,2.754302734375,0.9849281311035156,0.2188257873058319,-0.12201778590679169
1776445412500318700,2.779318603515625,0.8577361702919006,-0.019263621419668198,0.008168857544660568
1776445412525334800,2.804334716796875,0.66733717918396,0.05682002007961273,0.14771638810634613
1776445412550350800,2.829350830078125,0.5303402543067932,0.2857639193534851,0.23848800361156464
1776445412575366700,2.85436669921875,0.5172186493873596,0.3589732050895691,0.1318746954202652
1776445412600382700,2.8793828125,0.6443343162536621,0.5363996624946594,0.0019090166315436363
1776445412625398800,2.904398681640625,0.8045046925544739,0.41105613112449646,-0.12871021032333374
1776445412650414600,2.92941455078125,1.0196449756622314,0.15727046132087708,-0.2750574052333832
1776445412675430700,2.9544306640625,1.2871335744857788,-0.005011870060116053,-0.38839974999427795
1776445412700446500,2.979446533203125,1.3406450748443604,-0.021251358091831207,-0.2668100595474243
1776445412725461500,3.00446142578125,0.9628711938858032,-0.123431496322155,-0.013798004016280174
1776445412750477300,3.029477294921875,0.8504542708396912,0.045728594064712524,-0.1690620481967926
1776445412775493400,3.054493408203125,1.034319519996643,0.12049399316310883,-0.24357707798480988
1776445412800509400,3.079509521484375,1.3165515661239624,0.023091666400432587,-0.11766481399536133
1776445412825525500,3.104525390625,1.631187081336975,-0.4298369586467743,0.06217319518327713
1776445412850541300,3.129541259765625,1.9326578378677368,-0.5737294554710388,0.2375035285949707
1776445412875557400,3.154557373046875,2.2681524753570557,-0.4619528353214264,0.3387089967727661
1776445412900573400,3.179573486328125,2.4717018604278564,-0.6397168040275574,0.1688726246356964
1776445412925589200,3.20458935546875,2.5089974403381348,-0.9805037379264832,-0.08498571813106537
1776445412950605300,3.229605224609375,2.377835750579834,-0.8495774269104004,-0.04230093955993652
1776445412975621400,3.254621337890625,2.07023549079895,-0.3539263606071472,0.2929980456829071
1776445413000636400,3.279636474609375,1.6796369552612305,0.06719379872083664,0.30557093024253845
1776445413025652500,3.304652587890625,1.3879621028900146,0.526912271976471,-0.06417014449834824
1776445413050668500,3.32966845703125,1.5471043586730957,0.7630680799484253,-0.2890428304672241
1776445413075684400,3.354684326171875,2.1317148208618164,0.6150741577148438,0.09478455781936646
1776445413100700400,3.379700439453125,2.6334915161132812,0.5207636952400208,0.2518380284309387
1776445413125716500,3.404716552734375,2.9338741302490234,0.20031049847602844,-0.17535801231861115
1776445413150732500,3.429732666015625,3.3870015144348145,-0.3329126238822937,-0.5208379626274109
1776445413175748400,3.454748291015625,3.6894748210906982,-0.4340797960758209,-0.3315737843513489
1776445413200764400,3.479764404296875,3.580702543258667,-0.25373607873916626,-0.3216322958469391
1776445413225780500,3.504780517578125,3.387469530105591,-0.2674463093280792,-0.4192107617855072
1776445413250796300,3.52979638671875,3.344731330871582,-0.20835888385772705,-0.2418973743915558
1776445413275812400,3.554812255859375,3.164365291595459,0.010680708102881908,0.08636640757322311
1776445413300828400,3.579828369140625,2.8337249755859375,0.005578397773206234,0.23770393431186676
1776445413325843500,3.604843505859375,2.5416183471679688,-0.32955202460289,0.43448707461357117
1776445413350859500,3.629859619140625,2.0524818897247314,-0.496913343667984,0.8386356830596924
1776445413375875600,3.65487548828125,1.8126065731048584,-0.3806922137737274,1.0390697717666626
1776445413400891400,3.679891357421875,1.3241525888442993,-0.12241683155298233,0.8788608312606812
1776445413425907500,3.704907470703125,0.9689376950263977,-0.11707230657339096,0.8408263325691223
1776445413450923500,3.729923583984375,0.5872493982315063,0.27977806329727173,1.106207013130188
1776445413475939600,3.754939697265625,0.4476001560688019,0.3127085268497467,0.727347731590271
1776445413500955400,3.779955322265625,0.7102140188217163,-0.030434291809797287,0.09586510807275772
1776445413525971500,3.804971435546875,1.0342745780944824,-0.21317324042320251,-0.08531732112169266
1776445413550987500,3.829987548828125,1.082209825515747,-0.21949324011802673,0.1240355521440506
1776445413576003300,3.85500341796875,1.0442142486572266,-0.2863582670688629,-0.05139707028865814
1776445413601019400,3.880019287109375,1.112457036972046,-0.3281475603580475,-0.40390434861183167
1776445413626035500,3.905035400390625,1.2281029224395752,-0.3143562972545624,-0.3059915602207184
1776445413651051500,3.930051513671875,1.1666574478149414,-0.01814286597073078,0.09031601995229721
1776445413676067600,3.955067626953125,1.1353884935379028,-0.7255913019180298,-0.03199237585067749
1776445413701083600,3.980083740234375,1.4959957599639893,-0.7972251176834106,0.007904479280114174
1776445413726098400,4.005098388671875,1.0228958129882812,-0.44989219307899475,0.511050283908844
1776445413751114500,4.030114501953125,0.49334800243377686,0.1453033834695816,0.9821354150772095
1776445413776130600,4.055130615234375,0.7951043248176575,0.8445314764976501,1.3862017393112183
1776445413801146600,4.080146728515625,2.2345924377441406,1.2723934650421143,2.003981590270996
1776445413826162700,4.10516259765625,3.054126024246216,1.620676040649414,2.098986864089966
1776445413851178800,4.1301787109375,2.428114414215088,1.8258296251296997,1.5866219997406006
1776445413876194600,4.155194580078125,1.4383888244628906,1.124884009361267,0.87433922290802
1776445413901210600,4.180210693359375,1.0654836893081665,0.754359245300293,0.21508221328258514
1776445413926226700,4.205226806640625,1.1201595067977905,0.5934205651283264,-0.01804882474243641
1776445413951242500,4.230242431640625,1.2098456621170044,0.27610474824905396,-0.11958526819944382
1776445413976258600,4.255258544921875,1.2766437530517578,0.2797035276889801,-0.13273932039737701
1776445414001274600,4.280274658203125,1.7278831005096436,0.3225739300251007,-0.0880853459239006
1776445414026290700,4.305290771484375,1.987653374671936,0.10727905482053757,-0.12447153031826019
1776445414051306500,4.330306396484375,1.9139714241027832,-0.08542414754629135,-0.40249234437942505
1776445414076322600,4.355322509765625,1.57913076877594,-0.0335988849401474,-0.6916502118110657
1776445414101338600,4.380338623046875,1.3712226152420044,-0.0030368315055966377,-0.7174467444419861
1776445414126354400,4.4053544921875,1.3903472423553467,-0.21499022841453552,-0.6568496227264404
1776445414151370500,4.43037060546875,1.3200427293777466,-0.12400376796722412,-0.5141648054122925
1776445414176386600,4.455386474609375,1.3402488231658936,-0.05938073992729187,-0.3988666832447052
1776445414201402600,4.480402587890625,1.3305611610412598,0.09273488074541092,-0.3263625204563141
1776445414226417700,4.505417724609375,1.3199747800827026,0.1336447149515152,-0.37780123949050903
1776445414251433700,4.530433837890625,1.3931076526641846,0.09594623744487762,-0.3873692750930786
1776445414276449500,4.555449462890625,1.488938331604004,0.18949909508228302,-0.3341568410396576
1776445414301465600,4.580465576171875,1.4886754751205444,0.3399227559566498,-0.15156163275241852
1776445414326481700,4.605481689453125,1.4680594205856323,0.3263292610645294,-0.08054982125759125
1776445414351497700,4.630497802734375,1.6321756839752197,0.273573100566864,0.06099832057952881
1776445414376513500,4.655513427734375,1.959612250328064,0.31273552775382996,0.17941723763942719
1776445414401529600,4.680529541015625,2.1616079807281494,0.64267897605896,-0.049468595534563065
1776445414426545700,4.705545654296875,2.3528707027435303,0.6241391897201538,-0.33728888630867004
1776445414451561500,4.7305615234375,2.3549835681915283,0.6772772669792175,-0.592904269695282
1776445414476577500,4.75557763671875,2.0608279705047607,0.29660505056381226,-0.8001089692115784
1776445414501593600,4.780593505859375,1.607049822807312,-0.3438846468925476,-0.5567983388900757
1776445414526609700,4.805609619140625,1.3354161977767944,-0.34843334555625916,-0.04821537062525749
1776445414551625500,4.83062548828125,1.6433905363082886,0.1569923311471939,0.3890519142150879
1776445414576641500,4.8556416015625,1.9037514925003052,0.00012895837426185608,0.36845457553863525
1776445414601657600,4.88065771484375,2.141155958175659,-0.365682452917099,0.13778385519981384
1776445414626673400,4.90567333984375,2.3740835189819336,-0.7981614470481873,0.0029330123215913773
1776445414651689500,4.930689453125,2.527188539505005,-0.7200247645378113,0.1725471168756485
1776445414676705500,4.95570556640625,2.3415560722351074,0.21538928151130676,0.09652841091156006
1776445414701721300,4.980721435546875,1.7736907005310059,0.1690545380115509,0.10777555406093597
1776445414726737400,5.0057373046875,1.5877045392990112,-0.05880348011851311,0.3801843225955963
1776445414751753500,5.03075341796875,1.915026307106018,-0.195336252450943,0.5635958313941956
1776445414776769500,5.05576953125,2.267930030822754,0.22844365239143372,0.4374867379665375
1776445414801785300,5.080785400390625,2.5931894779205322,0.8480570316314697,0.11168456822633743
1776445414826801700,5.1058017578125,2.7897157669067383,1.3386577367782593,0.12021090090274811
1776445414851817700,5.130817626953125,2.948021173477173,1.257861852645874,0.26782506704330444
1776445414876833500,5.15583349609375,3.0756824016571045,0.7143564820289612,0.20587755739688873
1776445414901849600,5.180849609375,2.416015863418579,-0.1154041737318039,-0.2877442538738251
1776445414926865700,5.20586572265625,1.7747503519058228,-0.6086708307266235,-0.6419347524642944
1776445414951881700,5.2308818359375,1.7077065706253052,-0.6317644715309143,-0.5415850877761841
1776445414976897500,5.2558974609375,1.9053012132644653,-0.4309629201889038,-0.43285369873046875
1776445415001912600,5.28091259765625,1.948881983757019,-0.35394445061683655,-0.29721614718437195
1776445415026928600,5.3059287109375,2.061231851577759,-0.40710267424583435,-0.126824289560318
1776445415051944400,5.3309443359375,2.3285973072052,0.062153056263923645,0.3680022358894348
1776445415076960500,5.35596044921875,2.625368595123291,0.7779653072357178,0.7560403943061829
1776445415101976600,5.3809765625,2.719604730606079,1.1028923988342285,0.5621368288993835
1776445415126992400,5.405992431640625,2.7740447521209717,0.9266040325164795,0.03300155699253082
1776445415152008400,5.431008544921875,2.9512345790863037,0.8508511781692505,-0.39884546399116516
1776445415177024500,5.4560244140625,2.901132106781006,0.9674962162971497,-0.5432891249656677
1776445415202040300,5.481040283203125,2.44551682472229,0.9950625896453857,-0.7281970977783203
1776445415227056400,5.506056396484375,1.9945868253707886,0.9309777021408081,-0.899001955986023
1776445415252072400,5.531072509765625,1.8616924285888672,0.6558725833892822,-0.8623930811882019
1776445415277088800,5.5560888671875,1.8034653663635254,0.2192138135433197,-0.5872366428375244
1776445415302104600,5.5811044921875,1.2616876363754272,0.006856962107121944,-0.36659690737724304
1776445415327120600,5.60612060546875,0.6297250986099243,-0.26854822039604187,-0.365946501493454
1776445415352136700,5.63113671875,0.2464296519756317,-0.7103506922721863,-0.244137242436409
1776445415377152500,5.656152587890625,-0.013849619776010513,-1.053763747215271,0.13555939495563507
1776445415402168600,5.68116845703125,-0.19127851724624634,-1.2316596508026123,0.4497917890548706
1776445415427184600,5.7061845703125,-0.313543438911438,-1.2136677503585815,0.4377540946006775
1776445415452200700,5.73120068359375,0.6742331981658936,0.6337741613388062,-0.04250432550907135
1776445415477216500,5.756216552734375,1.0450477600097656,0.29206278920173645,-0.2748946249485016
1776445415502232600,5.781232666015625,0.7786746621131897,0.4261939525604248,0.24185146391391754
1776445415527248600,5.80624853515625,0.7360928058624268,0.19634442031383514,0.12103170901536942
1776445415552264400,5.831264404296875,0.9474325180053711,-0.05367166921496391,0.010006614960730076
1776445415577280500,5.856280517578125,1.510966420173645,-0.3929568827152252,-0.18228945136070251
1776445415602296600,5.881296630859375,2.4687061309814453,-1.3553873300552368,-0.9730979800224304
1776445415627312600,5.906312744140625,3.107383966445923,-2.0855906009674072,-1.1818246841430664
1776445415652329000,5.931328857421875,3.192457437515259,-1.407191514968872,-1.0341386795043945
1776445415677345000,5.956344970703125,2.321559429168701,-0.665211021900177,-0.3386802673339844
1776445415702361000,5.981361083984375,0.851061224937439,0.5085968971252441,0.44247472286224365
1776445415727377000,6.006376953125,-0.21078668534755707,0.7086322903633118,0.7155431509017944
1776445415752393000,6.03139306640625,-0.2087187021970749,0.5006980895996094,0.7895104885101318
1776445415777409000,6.056408935546875,0.7270795702934265,0.8569379448890686,0.5502252578735352
1776445415802425000,6.081425048828125,2.1946256160736084,0.41281649470329285,0.20534969866275787
1776445415827441000,6.10644091796875,3.2507526874542236,0.18012887239456177,0.02080964483320713
1776445415852457000,6.13145703125,3.428431987762451,0.04862425848841667,0.14915646612644196
1776445415877473000,6.15647314453125,2.9366753101348877,0.24396637082099915,0.3712643086910248
1776445415902488800,6.18148876953125,2.3765676021575928,0.3549904525279999,0.36937421560287476
1776445415927505000,6.2065048828125,2.1134586334228516,0.07226230949163437,0.1488095074892044
1776445415952521000,6.23152099609375,1.992380142211914,-0.3301965892314911,-0.09655235707759857
1776445415977537300,6.256537353515625,1.8712077140808105,-0.23319102823734283,-0.21478626132011414
1776445416002553000,6.281552978515625,1.8934797048568726,-0.41994529962539673,-0.3591576814651489
1776445416027569200,6.306569091796875,1.9665464162826538,-0.6401083469390869,-0.44297271966934204
1776445416052585200,6.331585205078125,2.0617520809173584,-0.5155235528945923,-0.3357231020927429
1776445416077601000,6.35660107421875,2.1460776329040527,-0.4002413749694824,-0.16587655246257782
1776445416102617000,6.3816171875,2.0534090995788574,-0.2585548162460327,-0.05323424190282822
1776445416127633200,6.406633056640625,1.7243140935897827,-0.20360107719898224,0.04849369823932648
1776445416152649200,6.431649169921875,1.4672311544418335,0.054482024163007736,0.13556748628616333
1776445416177665000,6.4566650390625,1.3491708040237427,0.197510227560997,0.21869058907032013
1776445416202681000,6.48168115234375,1.233397364616394,0.22822454571723938,0.16247785091400146
1776445416227697200,6.506697265625,1.1881438493728638,-0.06315838545560837,-0.01123102568089962
1776445416252713000,6.531712890625,1.408097267150879,-0.19120138883590698,-0.131798654794693
1776445416277729000,6.55672900390625,1.7116681337356567,-0.03026459738612175,-0.2716624140739441
1776445416302745000,6.5817451171875,1.795262098312378,0.05209068953990936,-0.47752782702445984
1776445416327761000,6.606760986328125,1.7875369787216187,0.15981100499629974,-0.6196991801261902
1776445416352777000,6.63177685546875,1.7578792572021484,0.3381650745868683,-0.7498826384544373
1776445416377793000,6.65679296875,1.9764765501022339,0.28520119190216064,-0.48516958951950073
1776445416402809000,6.68180908203125,1.8837498426437378,0.11331810802221298,-0.20060573518276215
1776445416427825000,6.706824951171875,1.6104615926742554,-0.16120478510856628,-0.015652941539883614
1776445416452841000,6.731841064453125,1.4514878988265991,-0.15497945249080658,0.030090371146798134
1776445416477857000,6.75685693359375,1.519415020942688,-0.1660364866256714,0.157204270362854
1776445416502872800,6.781872802734375,1.9406388998031616,-0.1454809606075287,0.6128730177879333
1776445416527889000,6.806888916015625,2.442960739135742,-0.2972322106361389,1.022327184677124
1776445416552905000,6.831905029296875,2.762357711791992,-0.4580330550670624,1.3518357276916504
1776445416577921300,6.85692138671875,2.744736671447754,-0.4986317753791809,1.5446242094039917
1776445416602937000,6.88193701171875,2.406562089920044,-0.5270081758499146,1.4774256944656372
1776445416627953200,6.906953125,1.8726569414138794,-0.43152788281440735,1.2587907314300537
1776445416652968700,6.93196875,1.4092837572097778,-0.13518254458904266,1.1027264595031738
1776445416677984800,6.95698486328125,1.4908733367919922,0.4944157898426056,0.9431354403495789
1776445416703000800,6.982000732421875,1.5043373107910156,1.04090416431427,0.5372877717018127
1776445416728016600,7.0070166015625,1.0116775035858154,0.9938355684280396,-0.22062349319458008
1776445416753032700,7.03203271484375,0.8253676295280457,1.1843814849853516,-0.7566931247711182
1776445416778048800,7.057048828125,0.7609614729881287,1.4647636413574219,-1.0867185592651367
1776445416803064600,7.082064697265625,0.9525396823883057,0.8603298664093018,-0.899140477180481
1776445416828080600,7.10708056640625,1.4349662065505981,-0.023671183735132217,-0.3087529242038727
1776445416853096700,7.1320966796875,1.5079538822174072,-0.9058524966239929,0.2795226573944092
1776445416878112500,7.157112548828125,1.3626997470855713,-1.1183502674102783,0.25810590386390686
1776445416903128600,7.182128662109375,1.0978771448135376,-0.6226500868797302,-0.12232909351587296
1776445416928144600,7.20714453125,0.6451117992401123,0.19993926584720612,-0.34286561608314514
1776445416953160700,7.23216064453125,0.1456519216299057,0.6908173561096191,-0.24092912673950195
1776445416978176500,7.257176513671875,-0.14139556884765625,0.6504901051521301,-0.15971098840236664
1776445417003192600,7.282192626953125,-0.4573570191860199,0.7231876254081726,0.21544767916202545
1776445417028208600,7.307208740234375,-0.9096799492835999,1.2392630577087402,0.8287592530250549
1776445417053224400,7.332224365234375,-0.9029043912887573,1.5173581838607788,0.7877205610275269
1776445417078240500,7.357240478515625,-0.9182428121566772,1.027758002281189,0.40443164110183716
1776445417103256600,7.382256591796875,0.08593211323022842,-0.8638796806335449,-0.3452701270580292
1776445417128273000,7.40727294921875,0.9121837019920349,-1.6252893209457397,-0.2986952066421509
1776445417153288700,7.432288818359375,0.8847076296806335,-1.7429155111312866,-0.388091504573822
1776445417178304800,7.4573046875,0.954605758190155,-1.8428093194961548,-0.5998477339744568
1776445417203320800,7.48232080078125,0.7953593730926514,-1.347808837890625,-0.7813966274261475
1776445417228336600,7.507336669921875,0.918817937374115,-0.031012963503599167,-0.4527823328971863
1776445417253352700,7.532352783203125,1.4817768335342407,1.4831677675247192,0.45435741543769836
1776445417278368800,7.55736865234375,2.111299991607666,2.5001885890960693,0.9077205061912537
1776445417303384800,7.582384765625,2.776383638381958,1.1356655359268188,0.7665067315101624
1776445417328400600,7.607400634765625,1.488112211227417,0.62507164478302,0.3909464180469513
1776445417353416700,7.632416748046875,0.6049726605415344,-0.729829728603363,-0.7834389209747314
1776445417378432800,7.657432861328125,0.5758070349693298,-1.5801562070846558,-0.9268684983253479
1776445417403448600,7.682448486328125,0.8848618268966675,-1.0504329204559326,-0.5100852847099304
1776445417428464600,7.707464599609375,1.2208597660064697,-0.1991482824087143,-0.19999654591083527
1776445417453480700,7.732480712890625,1.391790509223938,0.5373231172561646,-0.19475799798965454
1776445417478496500,7.75749658203125,1.1158510446548462,0.8557820916175842,-0.20693077147006989
1776445417503513600,7.782513671875,0.7650011777877808,0.4124256372451782,-0.3194330036640167
1776445417528529700,7.80752978515625,0.5039552450180054,0.15238098800182343,-0.5686491131782532
1776445417553545700,7.832545654296875,0.4072451591491699,0.3669131398200989,-0.6033248901367188
1776445417578561800,7.857561767578125,0.48815545439720154,0.47160154581069946,-0.4230778217315674
1776445417603577600,7.88257763671875,0.7552300691604614,0.6433601975440979,-0.31607720255851746
1776445417628593700,7.90759375,1.2097914218902588,0.4790167510509491,-0.3168993890285492
1776445417653609700,7.932609619140625,1.6609550714492798,0.20183545351028442,-0.4859565496444702
1776445417678625800,7.957625732421875,2.1408748626708984,0.1731814742088318,-0.4993019700050354
1776445417703641600,7.9826416015625,2.3451104164123535,0.05659770220518112,-0.39817681908607483
1776445417728657700,8.00765771484375,2.449566602706909,0.42331191897392273,-0.023782238364219666
1776445417753673700,8.032673828125,2.968543529510498,0.934596061706543,0.5857748985290527
1776445417778689500,8.057689453125,3.494128942489624,0.13817308843135834,0.38027966022491455
1776445417803705600,8.08270556640625,3.5087695121765137,-0.47538018226623535,-0.41065266728401184
1776445417828721700,8.1077216796875,3.5417022705078125,-1.0237783193588257,-1.154796838760376
1776445417853737700,8.13273779296875,3.712442398071289,-1.2251278162002563,-1.3275569677352905
1776445417878753500,8.15775341796875,3.921044111251831,-1.4815151691436768,-0.9972814917564392
1776445417903769900,8.182769775390625,3.960599899291992,-1.7837468385696411,-0.519319474697113
1776445417928786000,8.207785888671875,4.002374649047852,-1.6873793601989746,-0.041961632668972015
1776445417953801700,8.2328017578125,4.025737285614014,-0.8474260568618774,0.44755980372428894
1776445417978817800,8.25781787109375,3.8191845417022705,0.23558978736400604,0.6928160190582275
1776445418003833900,8.282833740234375,3.437930107116699,0.6890078186988831,0.7046413421630859
1776445418028849700,8.307849609375,3.0041391849517822,0.8433135747909546,0.6826084852218628
1776445418053865700,8.33286572265625,2.3478403091430664,0.9840211868286133,0.7311979532241821
1776445418078881800,8.3578818359375,1.5430679321289062,0.7624548673629761,0.8159139156341553
1776445418103897900,8.38289794921875,0.7810773849487305,0.2911009192466736,0.7784349918365479
1776445418128913700,8.40791357421875,0.2426208108663559,-0.09169929474592209,0.4598236382007599
1776445418153929700,8.4329296875,0.03353521600365639,-0.2575700879096985,-0.08865059167146683
1776445418178945800,8.45794580078125,-0.07520031183958054,-0.1620248258113861,-0.4322681128978729
1776445418203961600,8.482961669921876,0.019588766619563103,-0.1695244163274765,-0.572110116481781
1776445418228977700,8.507977783203126,0.46517664194107056,-0.25173625349998474,-0.46054932475090027
1776445418253993700,8.53299365234375,1.296301245689392,-0.34194323420524597,-0.35825487971305847
1776445418279009800,8.558009765625,1.9922382831573486,-0.2881709933280945,-0.21908541023731232
1776445418304025600,8.583025634765624,2.7989885807037354,-0.20869669318199158,0.057810261845588684
1776445418329041700,8.608041748046874,3.5125739574432373,-0.3151288628578186,0.2687697112560272
1776445418354057700,8.6330576171875,3.558969736099243,-0.18615277111530304,-0.042478255927562714
1776445418379074800,8.65807470703125,2.879014492034912,1.2429006099700928,-0.531558096408844
1776445418404090600,8.683090576171875,2.610297441482544,2.2818455696105957,-0.028947949409484863
1776445418429106700,8.708106689453125,2.755314826965332,2.1102919578552246,0.2704645097255707
1776445418454122800,8.733122802734375,2.653766632080078,1.6662689447402954,0.49913400411605835
1776445418479138600,8.758138671875,2.4209611415863037,0.7494972348213196,0.5198814868927002
1776445418504154600,8.783154541015625,2.0390865802764893,0.17826953530311584,0.01719062216579914
1776445418529170700,8.808170654296875,1.8947452306747437,-0.512995183467865,-0.6005932092666626
1776445418554186800,8.833186767578125,1.8931430578231812,-1.0986580848693848,-0.7950609922409058
1776445418579202600,8.85820263671875,1.8395922183990479,-1.1751176118850708,-0.48450207710266113
1776445418604218600,8.883218505859375,1.8785971403121948,-0.8686342239379883,-0.518202006816864
1776445418629234700,8.908234619140625,2.0790414810180664,-0.6319653391838074,-0.6419808268547058
1776445418654251000,8.9332509765625,2.1730546951293945,-0.34576672315597534,-0.49186408519744873
1776445418679266800,8.958266845703125,1.9362818002700806,-0.22300943732261658,-0.39590930938720703
1776445418704283000,8.983282958984375,1.291737675666809,-0.2831418514251709,-0.4280725419521332
1776445418729299000,9.008298828125,0.34915655851364136,-0.31985610723495483,-0.6531754732131958
1776445418754315300,9.033315185546876,-0.5360550284385681,-0.2852509915828705,-0.9538519382476807
1776445418779331000,9.0583310546875,-1.7634832859039307,-0.5037809014320374,-1.6077916622161865
1776445418804347100,9.08334716796875,-2.021784782409668,-0.16958852112293243,-1.1113706827163696
1776445418829363200,9.10836328125,0.20771686732769012,0.7443932294845581,-0.3825542628765106
1776445418854379000,9.13337890625,1.8027087450027466,0.6376479864120483,0.23211462795734406
1776445418879395000,9.15839501953125,1.2846554517745972,0.4640253782272339,0.24400244653224945
1776445418904411100,9.1834111328125,1.4029626846313477,-0.11525975167751312,-0.016289381310343742
1776445418929427200,9.20842724609375,2.09844970703125,-0.08389987051486969,0.2100612223148346
1776445418954443000,9.233443115234374,2.418457269668579,-0.6594445109367371,0.6139065027236938
1776445418979459000,9.258458984375,2.3579182624816895,-1.6889413595199585,1.0726268291473389
1776445419004476200,9.28347607421875,2.6415607929229736,-2.6840717792510986,0.8995940089225769
1776445419029492200,9.3084921875,2.2707738876342773,-2.5428695678710938,-0.2305860072374344
1776445419054508000,9.333508056640625,1.7075947523117065,-1.3992624282836914,0.011942409910261631
1776445419079524000,9.358524169921875,1.655121922492981,-0.08245952427387238,0.6683657169342041
1776445419104540200,9.3835400390625,2.1656510829925537,0.1650841385126114,1.456316590309143
1776445419129556000,9.408555908203125,1.902640461921692,-0.3988063335418701,1.4608056545257568
1776445419154572000,9.433572021484375,1.9444912672042847,-0.2901744246482849,0.012319596484303474
1776445419179588000,9.458588134765625,2.4222121238708496,-0.1470750868320465,-0.24938109517097473
1776445419204604200,9.483604248046875,2.5808091163635254,-0.5856855511665344,0.5704904198646545
1776445419229620000,9.508619873046875,1.9345030784606934,-0.735206663608551,0.6815502643585205
1776445419254636000,9.533635986328125,0.8251584768295288,-0.29566866159439087,-0.18704983592033386
1776445419279652000,9.558652099609375,0.342275470495224,0.5959147214889526,-0.6031420230865479
1776445419304668000,9.58366796875,0.3523201048374176,0.9468584656715393,-0.40248870849609375
1776445419329684000,9.60868408203125,0.321841835975647,0.607032835483551,-0.11618953943252563
1776445419354700000,9.633699951171875,0.5557456612586975,0.21683479845523834,-0.10486097633838654
1776445419379716000,9.658716064453126,1.2928037643432617,-0.7877366542816162,-0.4861193597316742
1776445419404732000,9.68373193359375,0.8328052163124084,-0.023723840713500977,-0.48553964495658875
1776445419429748000,9.708748046875,0.5779761672019958,0.9045630097389221,-0.5542277097702026
1776445419454764000,9.733763916015626,1.2585080862045288,1.1033844947814941,-0.5434107780456543
1776445419479779800,9.75877978515625,2.3525376319885254,0.9941785335540771,0.13278357684612274
1776445419504797000,9.783796875,2.9781851768493652,1.2793877124786377,0.7900240421295166
1776445419529813000,9.80881298828125,3.4528262615203857,0.22345973551273346,0.3805304169654846
1776445419554829000,9.8338291015625,2.525418281555176,-0.15438327193260193,0.4315699338912964
1776445419579844900,9.858844970703124,1.4317389726638794,-0.019130889326334,0.00930420309305191
1776445419604861000,9.88386083984375,2.127870798110962,0.7534411549568176,-0.10632592439651489
1776445419629877000,9.908876953125,2.9484751224517822,1.3389489650726318,-0.04242964833974838
1776445419654893000,9.93389306640625,3.433671474456787,1.844765067100525,-0.143856018781662
1776445419679909000,9.9589091796875,3.7165215015411377,2.1473095417022705,-0.05818122252821922
1776445419704925200,9.98392529296875,4.0864081382751465,1.1809942722320557,-0.5333428382873535
1776445419729941200,10.008941162109375,2.9048678874969482,-0.525791347026825,-0.18621645867824554
1776445419754957300,10.033957275390625,1.8962347507476807,-1.9196122884750366,0.24345369637012482
1776445419779973400,10.058973388671875,1.9091742038726807,-2.890913724899292,-0.008380597457289696
1776445419804989200,10.0839892578125,2.5722694396972656,-2.835674285888672,-0.3239334523677826
1776445419830005200,10.109005126953125,2.730713367462158,-2.706510066986084,-0.40434494614601135
1776445419855021300,10.134021240234375,1.8884519338607788,-2.0060672760009766,-0.6357647180557251
1776445419880037400,10.159037353515625,1.1602869033813477,-1.0777889490127563,-0.3219487965106964
1776445419905053200,10.18405322265625,0.7599406242370605,0.017937026917934418,0.03579135239124298
1776445419930069200,10.2090693359375,0.6029720306396484,0.6656636595726013,0.16260284185409546
1776445419955085300,10.234085205078125,0.6230690479278564,1.2577358484268188,-0.037797711789608
1776445419980102400,10.259102294921876,0.704620897769928,1.3788601160049438,-0.16313894093036652
1776445420005118200,10.2841181640625,0.8346174955368042,1.6758266687393188,-0.08273209631443024
1776445420030134300,10.30913427734375,0.8374471068382263,1.7653465270996094,0.009957972913980484
1776445420055150300,10.334150390625,2.2862746715545654,1.5486259460449219,0.24238638579845428
1776445420080166100,10.359166259765624,2.64450740814209,1.3407031297683716,0.461348295211792
1776445420105182200,10.38418212890625,2.125211477279663,0.2782447636127472,0.7964245676994324
1776445420130198300,10.4091982421875,2.2415711879730225,-0.25325533747673035,0.5216155648231506
1776445420155214300,10.43421435546875,2.4206230640411377,-0.44656458497047424,0.09423352777957916
1776445420180230100,10.459230224609374,2.1264359951019287,-1.2863656282424927,-0.37200266122817993
1776445420205246200,10.48424609375,1.9392341375350952,-1.4643876552581787,-0.7225199937820435
1776445420230262300,10.50926220703125,2.0810511112213135,-0.6786381602287292,-0.3888365924358368
1776445420255278000,10.534278076171875,2.458240270614624,0.191258504986763,0.22523248195648193
1776445420280294100,10.559294189453125,2.6133017539978027,0.6333405375480652,0.5583446025848389
1776445420305310200,10.584310302734375,2.3939743041992188,0.3297572135925293,0.4894571900367737
1776445420330326300,10.609326171875,2.4869682788848877,0.10618159174919128,0.05862082540988922
1776445420355343000,10.634343017578125,2.79882550239563,-0.2584227919578552,-0.30766528844833374
1776445420380359200,10.659359130859375,3.0983643531799316,-0.45188701152801514,-0.11832953244447708
1776445420405375200,10.684375244140625,2.8516175746917725,-0.4080820679664612,-0.0007037692703306675
1776445420430391300,10.709391357421875,2.2079267501831055,-0.5303312540054321,-0.11643487960100174
1776445420455407000,10.734406982421875,1.7080891132354736,-0.5498665571212769,0.30762019753456116
1776445420480423200,10.759423095703125,1.1173673868179321,-0.11009550839662552,0.743431568145752
1776445420505439200,10.784439208984375,0.28178682923316956,0.4508669078350067,0.9627980589866638
1776445420530455000,10.809455078125,-0.5426543354988098,1.3742564916610718,1.3124037981033325
1776445420555471000,10.83447119140625,-0.7184192538261414,1.3953883647918701,1.62346351146698
1776445420580487200,10.859487060546876,1.1734660863876343,-0.7170115113258362,1.0258113145828247
1776445420605503200,10.884503173828126,2.2160496711730957,-0.7110320925712585,0.6447146534919739
1776445420630519000,10.90951904296875,2.5532784461975098,-0.2767651379108429,0.6030237674713135
1776445420655534800,10.934534912109376,2.0042014122009277,0.5133421421051025,0.2759271264076233
1776445420680551000,10.959551025390626,1.5298378467559814,0.41749516129493713,0.20311947166919708
1776445420705566700,10.984566650390626,1.5250353813171387,0.6610358357429504,0.12198107689619064
1776445420730582800,11.009582763671874,1.7179601192474365,0.6385798454284668,-0.223377525806427
1776445420755599600,11.034599609375,1.9765628576278687,0.4425583481788635,-0.49976715445518494
1776445420780615700,11.05961572265625,1.7518895864486694,0.15881384909152985,-0.48990941047668457
1776445420805631700,11.0846318359375,1.413928508758545,-0.37941429018974304,-0.4515438377857208
1776445420830647800,11.109647705078125,1.3788552284240723,-1.0029644966125488,-0.5895200967788696
1776445420855663900,11.134663818359375,1.5557836294174194,-0.9003127217292786,-0.7992215156555176
1776445420880679700,11.1596796875,1.4592539072036743,-0.17865915596485138,-0.9198868274688721
1776445420905695700,11.18469580078125,1.3235727548599243,0.5339893102645874,-0.8181295990943909
1776445420930711800,11.2097119140625,1.2654986381530762,0.7497572302818298,-0.5556080341339111
1776445420955728000,11.234727783203125,1.1982800960540771,0.605711042881012,-0.6430857181549072
1776445420980743700,11.25974365234375,1.6025338172912598,0.45135945081710815,-0.803879976272583
1776445421005759700,11.284759765625,1.6732211112976074,0.1474180817604065,-0.6131481528282166
1776445421030775800,11.30977587890625,2.083306312561035,-0.6983692049980164,-0.3569032549858093
1776445421055791600,11.33479150390625,2.1191508769989014,-1.0423799753189087,-0.3333272933959961
1776445421080807700,11.3598076171875,2.7778263092041016,-0.7096899747848511,-0.24706095457077026
1776445421105823700,11.38482373046875,3.2329277992248535,-0.11671765148639679,-0.13042911887168884
1776445421130840800,11.4098408203125,3.7008795738220215,0.13845884799957275,-0.11713138222694397
1776445421155856600,11.434856689453126,4.006023406982422,0.16121727228164673,-0.22373448312282562
1776445421180872700,11.459872802734376,4.259183406829834,-0.13535836338996887,-0.21688292920589447
1776445421205888800,11.484888671875,4.329728126525879,-0.3030247390270233,-0.1539452075958252
1776445421230904800,11.50990478515625,4.5852179527282715,-0.5327517986297607,-0.056200314313173294
1776445421255920600,11.534920654296876,4.922858715057373,-1.2484530210494995,0.45178401470184326
1776445421280936700,11.559936767578124,4.943192958831787,-0.9875290989875793,0.918187141418457
1776445421305952800,11.584952880859374,4.235889434814453,0.5035601854324341,1.0688390731811523
1776445421330968600,11.609968505859374,3.628122091293335,1.5136711597442627,1.2421730756759644
1776445421355984600,11.634984619140624,3.2062394618988037,2.019090414047241,1.3710002899169922
1776445421381000700,11.660000732421874,2.6831603050231934,2.0596511363983154,1.0562981367111206
1776445421406016800,11.685016845703124,1.7316149473190308,1.6718758344650269,0.46667012572288513
1776445421431032600,11.710032470703124,0.9012892246246338,0.8166986107826233,0.20508846640586853
1776445421456049700,11.735049560546875,0.6809552311897278,-0.04096260666847229,0.20336778461933136
1776445421481065700,11.760065673828125,1.838384747505188,-0.9397561550140381,0.027520207688212395
1776445421506081800,11.785081787109375,2.505580186843872,-0.42704132199287415,-0.025198454037308693
1776445421531097600,11.81009765625,2.3436601161956787,0.987145721912384,-0.40694302320480347
1776445421556113700,11.83511376953125,2.6781275272369385,1.9432264566421509,-0.24470289051532745
1776445421581129700,11.860129638671875,3.0704355239868164,2.0859079360961914,0.1311546117067337
1776445421606145500,11.8851455078125,2.9673943519592285,1.659642219543457,0.0731772929430008
1776445421631161600,11.91016162109375,2.513094663619995,0.4791382849216461,-0.5504120588302612
1776445421656177700,11.935177734375,2.2189199924468994,-1.3685410022735596,-1.0902997255325317
1776445421681193700,11.96019384765625,1.8515338897705078,-2.9025731086730957,-1.2884361743927002
1776445421706209800,11.985209716796875,1.9274818897247314,-3.186570167541504,-1.06621515750885
1776445421731225900,12.010225830078125,2.302175521850586,-1.9450621604919434,-0.9885482788085938
1776445421756242000,12.035241943359376,2.836442708969116,-0.3923368752002716,-0.8211910128593445
1776445421781258800,12.0602587890625,3.097865343093872,0.5369765162467957,-0.38908571004867554
1776445421806274800,12.08527490234375,2.6594021320343018,0.9179072380065918,-0.14157389104366302
1776445421831290600,12.11029052734375,1.9301191568374634,0.5304703116416931,-0.34520211815834045
1776445421856306700,12.135306640625,1.14927339553833,0.11255544424057007,-0.8163130879402161
1776445421881322800,12.16032275390625,0.684964120388031,-0.6441066265106201,-0.8195965886116028
1776445421906338800,12.1853388671875,-0.5279902219772339,-0.7632287740707397,-0.9597576260566711
1776445421931355000,12.21035498046875,-1.1392775774002075,-0.9765636324882507,-0.8576450943946838
1776445421956371000,12.235370849609374,0.9193211793899536,0.7887371182441711,0.46927881240844727
1776445421981387000,12.260386962890625,3.255777359008789,0.4457547664642334,0.9767081141471863
1776445422006402800,12.28540283203125,4.020050525665283,-0.15453194081783295,0.8292015790939331
1776445422031419000,12.3104189453125,3.028820037841797,-1.8913570642471313,0.39489319920539856
1776445422056435000,12.33543505859375,2.474317789077759,-2.207014322280884,0.4848407506942749
1776445422081451800,12.36045166015625,2.313542127609253,-0.957132875919342,0.5602859854698181
1776445422106467800,12.3854677734375,1.6920709609985352,0.09249468892812729,0.8547389507293701
1776445422131484000,12.41048388671875,1.4583204984664917,1.011443018913269,0.7892654538154602
1776445422156500000,12.4355,1.3880136013031006,1.3727837800979614,0.41065260767936707
1776445422181515800,12.460515869140625,1.422722578048706,1.1454157829284668,0.6063197255134583
1776445422206531800,12.48553173828125,1.6838619709014893,0.8198333978652954,0.690009593963623
1776445422231548000,12.5105478515625,2.1290762424468994,0.5934802889823914,0.0679880902171135
1776445422256564000,12.53556396484375,2.2502024173736572,0.022655561566352844,-0.3938709497451782
1776445422281579800,12.560579833984375,1.789452314376831,-0.5820671319961548,-0.04570959135890007
1776445422306595800,12.585595947265626,1.7684999704360962,-0.9455154538154602,0.15462154150009155
1776445422331612000,12.61061181640625,1.8397780656814575,-0.8607674241065979,0.24006721377372742
1776445422356627700,12.635627685546876,1.5753374099731445,-0.5863239765167236,0.5001375675201416
1776445422381644800,12.660644775390624,2.0485970973968506,0.0400070883333683,0.5565518736839294
1776445422406660900,12.685660888671874,2.4539008140563965,0.7754619121551514,0.10073142498731613
1776445422431677000,12.710677001953124,2.1314659118652344,0.8177151083946228,-0.2590947449207306
1776445422456692700,12.735692626953124,2.080697536468506,0.9787116646766663,-0.21524998545646667
1776445422481708800,12.760708740234374,2.607966899871826,1.0938953161239624,-0.11260169744491577
1776445422506724900,12.785724853515624,3.306703805923462,0.7330704927444458,0.21069110929965973
1776445422531741000,12.810740966796875,3.8540632724761963,-0.06953034549951553,0.19348222017288208
1776445422556756700,12.8357568359375,4.19793176651001,-0.7745141386985779,0.007822408340871334
1776445422581772800,12.860772705078125,4.292669773101807,-1.4124865531921387,-0.1000802293419838
1776445422606788900,12.885788818359375,4.015330791473389,-1.5981061458587646,0.08600293099880219
1776445422631804700,12.9108046875,3.037552833557129,-1.3155517578125,0.1277603656053543
1776445422656821200,12.9358212890625,1.7484495639801025,-0.5269118547439575,-0.11672830581665039
1776445422681837300,12.96083740234375,0.8730415105819702,0.001628105528652668,-0.32792410254478455
1776445422706853400,12.985853271484375,0.5375493168830872,0.521121621131897,-0.19204403460025787
1776445422731869200,13.010869140625,0.41981443762779236,0.7559157609939575,0.016554009169340134
1776445422756885200,13.03588525390625,0.6275409460067749,0.47929486632347107,0.27039074897766113
1776445422781901300,13.0609013671875,1.1090704202651978,0.08571895956993103,0.0676894336938858
1776445422806917400,13.08591748046875,1.4974631071090698,0.26647141575813293,-0.11996711790561676
1776445422831933200,13.11093310546875,1.8388841152191162,-0.4326171875,-0.49237415194511414
1776445422856949200,13.13594921875,2.1512835025787354,-0.47391757369041443,-0.8065133094787598
1776445422881965300,13.16096533203125,2.134798049926758,0.1777893453836441,-0.8866245746612549
1776445422906981000,13.185981201171876,1.5722925662994385,0.654964029788971,-1.132487177848816
1776445422931998200,13.210998291015626,1.28734290599823,0.6301631927490234,-1.3226778507232666
1776445422957014300,13.23601416015625,1.7042710781097412,0.18248622119426727,0.052369844168424606
1776445422982030300,13.2610302734375,1.7066136598587036,-0.4548259675502777,1.259045124053955
1776445423007046100,13.286046142578124,2.575929880142212,-0.4709862768650055,1.2736830711364746
1776445423032062200,13.311062255859374,2.9417362213134766,-1.1682767868041992,0.9789251685142517
1776445423057078300,13.336078369140624,2.534240484237671,-1.3999074697494507,0.18599499762058258
1776445423082094300,13.36109423828125,2.4187700748443604,-0.7134959697723389,-0.37629035115242004
1776445423107110100,13.386110107421874,2.621344566345215,-0.30990082025527954,0.013012235052883625
1776445423132126200,13.411126220703125,3.0177626609802246,-0.14836151897907257,0.34567415714263916
1776445423157142500,13.436142578125,3.3108115196228027,-0.13826070725917816,0.5052661895751953
1776445423182158300,13.461158447265625,3.6068222522735596,-0.25734326243400574,0.659808874130249
1776445423207175200,13.486175048828125,3.7976367473602295,-0.42753440141677856,0.8905828595161438
1776445423232191200,13.511191162109375,3.3148036003112793,0.1247529536485672,0.9182737469673157
1776445423257207300,13.536207275390625,2.499124765396118,0.45688924193382263,0.5787725448608398
1776445423282223000,13.56122314453125,2.0729522705078125,0.43990376591682434,0.11431128531694412
1776445423307239200,13.5862392578125,2.0371501445770264,-0.5511541366577148,-0.07782061398029327
1776445423332255500,13.61125537109375,2.0484774112701416,-1.2003170251846313,0.13651464879512787
1776445423357271600,13.636271484375,1.5776654481887817,-0.8126616477966309,0.5912261605262756
1776445423382287400,13.661287353515625,0.6599425673484802,0.6163973808288574,1.2737371921539307
1776445423407303400,13.686303466796875,-0.45457813143730164,1.5406347513198853,1.7215933799743652
1776445423432319500,13.711319580078126,-1.5326563119888306,1.8079668283462524,1.714917778968811
1776445423457336300,13.73633642578125,-0.0179794542491436,0.5553358197212219,1.1184806823730469
1776445423482352400,13.761352294921876,2.0399913787841797,-0.2156791388988495,0.5764126777648926
1776445423507368400,13.786368408203124,2.1774823665618896,-1.185526967048645,0.10379001498222351
1776445423532384500,13.811384521484374,2.8481013774871826,-1.5417380332946777,-0.015347259119153023
1776445423557400300,13.836400390625,3.0429136753082275,0.20151075720787048,-0.2299104779958725
1776445423582416400,13.86141650390625,2.034001111984253,1.5017521381378174,0.324224054813385
1776445423607432400,13.886432373046874,1.897350549697876,1.4991471767425537,0.5538293719291687
1776445423632448500,13.911448486328124,1.9035207033157349,0.7960616946220398,0.01572614349424839
1776445423657465300,13.93646533203125,1.838173270225525,-0.4014395475387573,-0.38416150212287903
1776445423682481400,13.9614814453125,1.731845736503601,-1.3765982389450073,-0.5282390117645264
1776445423707498000,13.986498046875,1.4741827249526978,-1.542900562286377,-0.38248589634895325
1776445423732514000,14.01151416015625,1.2896620035171509,-1.3651938438415527,-0.2059689313173294
1776445423757530000,14.036530029296875,1.3842910528182983,-0.9040752053260803,-0.216145321726799
1776445423782546200,14.061546142578125,1.5411109924316406,0.10769189149141312,-0.4605881869792938
1776445423807562200,14.086562255859375,1.3773747682571411,1.1034942865371704,-0.558892011642456
1776445423832578300,14.111578369140625,1.1495335102081299,1.590014934539795,-0.559314489364624
1776445423857594400,14.136594482421875,0.886473536491394,1.467956781387329,-0.49267613887786865
1776445423882610200,14.161610107421875,0.7021758556365967,1.2535896301269531,-0.374975323677063
1776445423907626200,14.186626220703126,2.259185552597046,0.45351293683052063,0.07371313124895096
1776445423932642300,14.211642333984376,3.136396884918213,-0.06857022643089294,-0.15694351494312286
1776445423957659100,14.2366591796875,3.236407518386841,0.232013538479805,-0.47980061173439026
1776445423982675200,14.26167529296875,3.5175845623016357,1.0265922546386719,-0.27316898107528687
1776445424007691300,14.286691162109374,4.099549770355225,1.3951364755630493,-0.028993166983127594
1776445424032707300,14.311707275390624,4.572895526885986,1.387208342552185,0.3075009882450104
1776445424057723400,14.336723388671874,4.7686686515808105,0.8917999863624573,0.03126605972647667
1776445424082739200,14.3617392578125,4.7427449226379395,0.4669519364833832,-0.2485445737838745
1776445424107755300,14.38675537109375,4.765114784240723,0.04097643867135048,-0.40607210993766785
1776445424132771300,14.411771240234375,4.702286720275879,-0.44812533259391785,-0.410480797290802
1776445424157787100,14.436787109375,4.516472816467285,-0.5734685063362122,-0.25647491216659546
1776445424182803200,14.46180322265625,3.7087795734405518,-0.3073757290840149,-0.12969622015953064
1776445424207820300,14.4868203125,2.6693451404571533,0.01673053950071335,0.261307954788208
1776445424232836400,14.51183642578125,2.069669008255005,0.01300004217773676,0.5987354516983032
1776445424257852200,14.53685205078125,2.007422924041748,-0.09659671783447266,0.833297073841095
1776445424282868200,14.5618681640625,2.0302317142486572,-0.03433794900774956,0.7318941354751587
1776445424307884300,14.58688427734375,1.4563310146331787,0.3697356581687927,0.5272828340530396
1776445424332900400,14.611900390625,1.0705634355545044,1.181663155555725,0.5094565749168396
1776445424357916200,14.636916259765625,1.5885815620422363,1.6016660928726196,0.7213428020477295
1776445424382932200,14.66193212890625,2.3849122524261475,1.0725412368774414,0.49078091979026794
1776445424407948300,14.6869482421875,2.680158853530884,0.6738746166229248,0.24363499879837036
1776445424432964000,14.711964111328125,1.952662706375122,0.132558673620224,0.15725232660770416
1776445424457981200,14.736981201171876,1.2169984579086304,-0.6066169142723083,-0.1618591845035553
1776445424482997200,14.761997314453126,1.0353529453277588,-1.1283665895462036,-0.7544841766357422
1776445424508013300,14.787013427734376,1.4727373123168945,-1.3218419551849365,-1.1515169143676758
1776445424533029000,14.812029052734376,1.8072850704193115,-1.1654208898544312,-1.1866198778152466
1776445424558045200,14.837045166015624,1.9568525552749634,-0.6072747111320496,-0.7074620127677917
1776445424583061200,14.862061279296874,2.1936724185943604,-0.12164942175149918,-0.4214681088924408
1776445424608077300,14.887077392578124,2.5415761470794678,0.27427247166633606,-0.400230348110199
1776445424633093000,14.912093017578124,2.4754445552825928,0.53242027759552,-0.3969483971595764
1776445424658112000,14.937112060546875,2.3262503147125244,0.5011951327323914,-0.5001199841499329
1776445424683129000,14.962129150390625,1.9210784435272217,0.16676776111125946,-0.6905912160873413
1776445424708145200,14.987145263671875,1.6113922595977783,0.04072727635502815,-0.5121501684188843
1776445424733161000,15.012160888671875,1.293413758277893,0.06858061254024506,-0.26880839467048645
1776445424758177000,15.037177001953125,0.8008629083633423,0.3677275776863098,-0.5966991782188416
1776445424783193000,15.062193115234376,0.4836108982563019,0.16048631072044373,-1.1091959476470947
1776445424808209200,15.087209228515626,0.27479860186576843,-0.5045080780982971,-1.305130958557129
1776445424833225000,15.112224853515626,0.28357183933258057,-0.4426848590373993,-1.3937783241271973
1776445424858241000,15.137240966796876,0.14225569367408752,-0.06798668205738068,-1.597029209136963
1776445424883257000,15.162257080078126,0.41892537474632263,-0.6229859590530396,-1.1693586111068726
1776445424908274200,15.187274169921874,0.2066146433353424,0.2142041176557541,0.2380465269088745
1776445424933290000,15.2122900390625,0.6832678914070129,0.26808714866638184,0.1922394186258316
1776445424958306000,15.23730615234375,1.107321858406067,0.19303086400032043,0.73225337266922
1776445424983322000,15.262322021484374,1.4329370260238647,-1.433493733406067,0.8894267082214355
1776445425008338000,15.287337890625,1.9952690601348877,-2.429433822631836,0.6550223231315613
1776445425033354000,15.31235400390625,2.38557767868042,-2.2231054306030273,0.05189992114901543
1776445425058370000,15.3373701171875,3.0380847454071045,-0.6206117272377014,0.2660033404827118
1776445425083386000,15.36238623046875,1.614711880683899,0.026056189090013504,0.4339797794818878
1776445425108402000,15.38740185546875,0.4350638687610626,1.467358112335205,0.05814763903617859
1776445425133419000,15.4124189453125,0.27980026602745056,1.8309837579727173,-0.4058572053909302
1776445425158435000,15.43743505859375,0.6885270476341248,1.29804265499115,-0.47131219506263733
1776445425183451100,15.462451171875,1.4046303033828735,0.4395444989204407,-0.3556566834449768
1776445425208467000,15.487467041015625,1.8044008016586304,-0.554656982421875,-0.013029759749770164
1776445425233483000,15.51248291015625,1.6515060663223267,-1.1308820247650146,0.11607509851455688
1776445425258499000,15.5374990234375,1.5089308023452759,-0.865250825881958,0.12743619084358215
1776445425283515000,15.562514892578125,1.574196219444275,-0.44247397780418396,0.32871899008750916
1776445425308531000,15.587531005859375,1.422600507736206,-0.5371773838996887,0.3628515601158142
1776445425333547000,15.612547119140626,1.0498007535934448,-0.49262529611587524,0.35291972756385803
1776445425358564000,15.637564208984376,0.9874932169914246,-0.43785741925239563,0.324899286031723
1776445425383580000,15.662579833984376,1.2800912857055664,-0.6757460236549377,0.3469163179397583
1776445425408596000,15.687595947265624,1.6974514722824097,-0.8738677501678467,0.3364350497722626
1776445425433612000,15.712612060546874,1.991011142730713,-0.8961835503578186,0.2971915602684021
1776445425458628000,15.737628173828124,2.2211036682128906,-0.9690815806388855,0.5377088785171509
1776445425483644000,15.762643798828124,2.282400369644165,-0.6147720813751221,0.8348612785339355
1776445425508660000,15.787659912109374,1.6967393159866333,0.35825055837631226,0.8873008489608765
1776445425533676000,15.812676025390624,1.427250862121582,1.061004877090454,0.5205848813056946
1776445425558693000,15.837693115234375,1.5959416627883911,0.8464788794517517,0.5871310830116272
1776445425583709000,15.862708984375,1.9287294149398804,0.20402705669403076,0.6486159563064575
1776445425608725000,15.88772509765625,2.403714895248413,-0.21631136536598206,0.5417685508728027
1776445425633741000,15.912740966796875,3.0544378757476807,-0.6490181684494019,0.37326207756996155
1776445425658757000,15.937757080078125,3.411323308944702,-0.9735540151596069,0.0019177086651325226
1776445425683773200,15.962773193359375,3.1553659439086914,-0.30875861644744873,0.016262777149677277
1776445425708789200,15.987789306640625,2.622917890548706,0.4243864417076111,0.5480825901031494
1776445425733805000,16.01280517578125,2.422030448913574,0.9089779853820801,0.6582932472229004
1776445425758821400,16.0378212890625,2.396367073059082,0.6660274267196655,0.26651492714881897
1776445425783838200,16.062838134765624,1.9674110412597656,0.14503037929534912,-0.1718854159116745
1776445425808854300,16.087854248046874,1.712306022644043,-0.25300201773643494,-0.09404255449771881
1776445425833870300,16.112870361328124,1.905324935913086,-0.7140955328941345,0.08895352482795715
1776445425858886100,16.13788623046875,1.9263911247253418,-0.8928067684173584,0.0737065002322197
1776445425883902200,16.162902099609376,1.328978419303894,-0.39516595005989075,0.08825264871120453
1776445425908918300,16.187918212890626,0.8213343620300293,0.13855724036693573,0.0503268763422966
1776445425933934300,16.212934326171876,0.8808836936950684,0.28527331352233887,-0.11280333250761032
1776445425958950400,16.237950439453126,1.192489504814148,0.5594814419746399,-0.2781520485877991
1776445425983967200,16.26296728515625,1.604480504989624,0.5152086615562439,-0.2795904576778412
1776445426008983300,16.2879833984375,2.030284881591797,0.5406907200813293,0.02687813900411129
1776445426033999000,16.3129990234375,2.1403610706329346,0.737227737903595,0.16130581498146057
1776445426059015200,16.33801513671875,1.7896349430084229,0.7149302959442139,-0.20688122510910034
1776445426084031200,16.36303125,2.130725860595703,0.5837410688400269,-0.13804741203784943
1776445426109047300,16.38804736328125,2.45983624458313,0.711781919002533,0.1333485245704651
1776445426134063400,16.4130634765625,2.880180597305298,0.9402310252189636,0.22493135929107666
1776445426159079400,16.438079345703127,3.3231141567230225,0.7022585868835449,0.13896705210208893
1776445426184095500,16.463095458984377,3.6983835697174072,-0.31239575147628784,0.5417084097862244
1776445426209112300,16.4881123046875,4.045169353485107,-1.4664934873580933,1.143534779548645
1776445426234128100,16.513128173828125,3.9397213459014893,-1.9841907024383545,0.4975191354751587
1776445426259144200,16.538144287109375,3.3075804710388184,-2.03019380569458,-0.5389521718025208
1776445426284160300,16.56316015625,2.4216156005859375,-0.9585503339767456,-0.9495097994804382
1776445426309176300,16.58817626953125,2.056002378463745,0.2422368824481964,-0.2595737874507904
1776445426334192400,16.6131923828125,2.280477523803711,0.8065268993377686,0.41028428077697754
1776445426359208400,16.63820849609375,2.338559627532959,0.8011834025382996,0.5926489233970642
1776445426384225300,16.663225341796874,2.3027455806732178,0.3744727075099945,0.09002184122800827
1776445426409241000,16.688240966796876,2.6206743717193604,-0.3767460584640503,-0.18458497524261475
1776445426434257200,16.713257080078126,3.0181734561920166,-0.4373500943183899,0.17752091586589813
1776445426459273200,16.738273193359376,2.9645705223083496,0.07138705253601074,0.39945149421691895
1776445426484289300,16.763289306640626,2.682682752609253,-0.15218012034893036,0.24165350198745728
1776445426509305300,16.788305419921876,2.2821033000946045,-0.3916252851486206,0.2040862888097763
1776445426534321400,16.8133212890625,1.8679978847503662,-0.5158323645591736,0.2866048812866211
1776445426559337500,16.83833740234375,1.4343969821929932,-0.28546595573425293,0.5514963865280151
1776445426584353300,16.863353271484375,0.62112957239151,-0.11642178893089294,0.7036885023117065
1776445426609370000,16.8883701171875,-0.395480215549469,0.41334956884384155,1.4088577032089233
1776445426634386200,16.91338623046875,-0.5816489458084106,0.5960610508918762,1.2681498527526855
1776445426659402800,16.93840283203125,0.35473281145095825,-0.38344085216522217,0.643522322177887
1776445426684418800,16.963418701171875,0.8254297375679016,-1.1177746057510376,0.4742833077907562
1776445426709435000,16.988434814453125,1.4982236623764038,-0.5122202038764954,0.6991719007492065
1776445426734451000,17.013450927734375,1.611870288848877,0.10715223848819733,0.8156424760818481
1776445426759467000,17.038467041015625,1.7166662216186523,0.4615173041820526,0.581767201423645
1776445426784483000,17.063483154296875,2.2779886722564697,0.9402254223823547,0.32616403698921204
1776445426809500000,17.0885,2.5779831409454346,1.4687252044677734,0.04254654049873352
1776445426834516000,17.113515869140624,2.654160261154175,1.290319561958313,-0.1747927963733673
1776445426859531800,17.13853173828125,1.9742276668548584,0.8518534898757935,-0.3779464364051819
1776445426884547800,17.1635478515625,1.6000217199325562,0.2133355289697647,-0.6380045413970947
1776445426909564000,17.18856396484375,1.5965384244918823,-0.1374218910932541,-0.8112291097640991
1776445426934580000,17.213580078125,1.7829314470291138,-0.3252461850643158,-0.5549917221069336
1776445426959596000,17.238595947265626,1.8199020624160767,-0.4307655394077301,-0.3510141670703888
1776445426984612900,17.26361279296875,2.016934394836426,-0.15902858972549438,-0.4020499885082245
1776445427009629000,17.28862890625,2.0754425525665283,0.13450297713279724,-0.4025392532348633
1776445427034645000,17.31364501953125,1.9489705562591553,0.1401972770690918,-0.4303898215293884
1776445427059660800,17.338660888671875,1.7368855476379395,0.17927010357379913,-0.4838378131389618
1776445427084676900,17.3636767578125,1.474467158317566,0.22562181949615479,-0.5284125208854675
1776445427109693000,17.38869287109375,1.3805837631225586,0.32143017649650574,-0.3971928358078003
1776445427134709000,17.413708984375,1.4483979940414429,0.29913970828056335,-0.1518893539905548
1776445427159725000,17.43872509765625,1.392729640007019,0.26252666115760803,-0.040150903165340424
1776445427184742000,17.463741943359373,1.4446710348129272,0.3394489288330078,0.065407395362854
1776445427209758000,17.488758056640624,2.6389424800872803,-0.003629803191870451,0.2246522158384323
1776445427234773800,17.513773681640625,2.742429733276367,0.19137533009052277,0.48558518290519714
1776445427259789800,17.538789794921875,2.985529899597168,0.7881374955177307,0.8632509112358093
1776445427284806000,17.563805908203125,3.6939170360565186,0.8411393165588379,0.9203242063522339
1776445427309822000,17.588822021484376,3.7713077068328857,0.7068884968757629,0.5060386061668396
1776445427334838000,17.613838134765626,3.5164296627044678,0.16290812194347382,-0.2627088129520416
1776445427359854000,17.63885400390625,3.1229074001312256,0.0043721310794353485,-0.6783165335655212
1776445427384871000,17.663870849609374,2.750802755355835,-0.17385347187519073,-0.7260833382606506
1776445427409887000,17.688886962890624,2.2956809997558594,-0.7430407404899597,-0.6209272146224976
1776445427434902800,17.71390283203125,2.013631582260132,-1.0292346477508545,-0.43870097398757935
1776445427459918800,17.7389189453125,1.8626810312271118,-0.9991418719291687,-0.18795867264270782
1776445427484935200,17.76393505859375,1.8748112916946411,-0.6257174611091614,0.1866009384393692
1776445427509951000,17.788950927734376,1.8995158672332764,0.11497268080711365,0.5719676613807678
1776445427534967000,17.813967041015626,1.938342809677124,0.5699271559715271,0.78544682264328
1776445427559983000,17.838983154296876,1.8901798725128174,0.5896979570388794,0.7157119512557983
1776445427585000000,17.864,1.524750828742981,0.292308509349823,0.495370477437973
1776445427610015700,17.889015625,1.0143873691558838,0.017867837101221085,0.4591330289840698
1776445427635032000,17.914031982421875,0.7548589706420898,-0.2085263580083847,-0.08732079714536667
1776445427660044000,17.9390439453125,0.8775187730789185,-0.44091904163360596,-0.1421600729227066
1776445427685060000,17.96406005859375,1.489861249923706,-0.48632341623306274,0.22970648109912872
1776445427710076200,17.989076171875,2.3404381275177,0.4879240095615387,0.43277695775032043
1776445427735092200,18.01409228515625,2.686145544052124,1.1837081909179688,0.11886022984981537
1776445427760109000,18.039109130859377,3.0679941177368164,1.4976032972335815,-0.15382985770702362
1776445427785125000,18.064125,3.6643927097320557,1.5836012363433838,-0.16276441514492035
1776445427810141200,18.08914111328125,3.715109348297119,1.466066598892212,0.0023204758763313293
1776445427835157200,18.1141572265625,3.297769546508789,0.9058904647827148,0.007997727021574974
1776445427860173000,18.139173095703125,2.8875973224639893,0.7773647308349609,-0.21281762421131134
1776445427885189000,18.164189208984375,2.544715404510498,0.5207263827323914,-0.2827281355857849
1776445427910205200,18.189205078125,2.6489691734313965,0.258783757686615,-0.4960066080093384
1776445427935221000,18.214220947265623,2.851762056350708,-0.4578624963760376,-0.8672375679016113
1776445427960238000,18.239238037109374,2.6997721195220947,-0.7914084792137146,-0.6617138981819153
1776445427985254100,18.264254150390624,2.0676748752593994,-0.1267928183078766,-0.34735751152038574
1776445428010270200,18.289270263671874,1.802302360534668,0.9712647199630737,-0.24354350566864014
1776445428035286000,18.3142861328125,1.8893256187438965,1.112518072128296,-0.3709692656993866
1776445428060302000,18.339302001953126,1.560923457145691,0.4734497368335724,-0.6056991219520569
1776445428085318100,18.364318115234376,0.8614625930786133,-0.3617946207523346,-0.3202624022960663
1776445428110334200,18.389334228515626,0.21985742449760437,-0.6960915923118591,0.026369137689471245
1776445428135351000,18.41435107421875,0.33166903257369995,-0.4730237126350403,-0.1767069399356842
1776445428160367000,18.4393671875,0.4660704433917999,-1.0264049768447876,-0.4876105487346649
1776445428185383200,18.464383056640624,0.8414449095726013,-0.8193316459655762,-0.18970337510108948
1776445428210399200,18.489399169921874,1.4163450002670288,-0.7548478841781616,-0.47109362483024597
1776445428235415000,18.5144150390625,1.8184095621109009,-1.1808364391326904,-0.8626406788825989
1776445428260431000,18.53943115234375,2.0950746536254883,-1.1295924186706543,-0.7126935720443726
1776445428285447200,18.564447265625,1.808746099472046,-1.15315842628479,-0.43794193863868713
1776445428310463000,18.589462890625,1.6889281272888184,-0.5478785634040833,-0.04692208021879196
1776445428335480000,18.61447998046875,1.3293670415878296,-0.17409475147724152,0.21758906543254852
1776445428360496000,18.63949609375,1.2174444198608398,-0.10782784968614578,0.04616440460085869
1776445428385512200,18.66451220703125,1.7121564149856567,-0.2259662002325058,-0.011419612914323807
1776445428410528000,18.689528076171875,1.8255715370178223,-0.4685975909233093,0.14086920022964478
1776445428435544000,18.7145439453125,1.8040571212768555,-0.12677177786827087,0.46775946021080017
1776445428460560100,18.73956005859375,1.7272322177886963,-0.013201335445046425,0.01542013231664896
1776445428485576200,18.764576171875,1.5822739601135254,0.3296373188495636,-0.23150983452796936
1776445428510593000,18.789593017578124,1.5545094013214111,0.5669912695884705,0.05215844511985779
1776445428535609000,18.814609130859374,1.8474916219711304,0.3643677234649658,0.312305748462677
1776445428560625200,18.839625244140624,2.0403623580932617,0.11990105360746384,0.5321114659309387
1776445428585641200,18.86464111328125,2.134760856628418,-0.17808981239795685,0.4843614399433136
1776445428610657000,18.889656982421876,2.1383790969848633,-0.3399832546710968,0.7344909310340881
1776445428635673000,18.914673095703126,2.1336166858673096,-0.3859831690788269,0.8937734365463257
1776445428660689000,18.93968896484375,1.91900634765625,-0.5870355367660522,0.8230186700820923
1776445428685706000,18.9647060546875,1.3076003789901733,-0.7255463600158691,0.6115293502807617
1776445428710721800,18.9897216796875,1.0523606538772583,-0.6352947354316711,0.556083083152771
1776445428735737900,19.01473779296875,1.6783016920089722,-0.7227003574371338,0.3979131281375885
1776445428760754000,19.03975390625,2.2173962593078613,-0.30101898312568665,0.3996833562850952
1776445428785770000,19.06477001953125,2.4581878185272217,-0.15361930429935455,0.6397894620895386
1776445428810785800,19.089785888671877,3.0736401081085205,-0.3355279564857483,0.5369268655776978
1776445428835801900,19.1148017578125,3.3952598571777344,-0.04459315165877342,0.5487757921218872
1776445428860819000,19.13981884765625,3.571704387664795,0.47607141733169556,0.8590459823608398
1776445428885835000,19.1648349609375,3.641528606414795,0.49729472398757935,0.9645071625709534
1776445428910850800,19.189850830078125,3.5799241065979004,0.5392649173736572,1.0626202821731567
1776445428935867000,19.214866943359375,3.521362781524658,0.9954105019569397,1.132359504699707
1776445428960883000,19.239883056640625,3.3549644947052,0.8638456463813782,0.7379176616668701
1776445428985898800,19.264898681640624,2.6442790031433105,0.4916418492794037,0.11440307646989822
1776445429010914800,19.289914794921874,1.965289831161499,0.3937793970108032,-0.31907588243484497
1776445429035932000,19.314931884765624,1.9762235879898071,0.37121251225471497,-0.4775315821170807
1776445429060948000,19.339947998046874,2.2947843074798584,0.4652044475078583,-0.5663078427314758
1776445429085963800,19.3649638671875,2.2967276573181152,0.5570902824401855,-0.4495125114917755
1776445429110979800,19.389979736328126,2.046278238296509,0.15079239010810852,-0.3749111592769623
1776445429135996000,19.414995849609376,1.9163235425949097,0.1011601984500885,-0.19109976291656494
1776445429161012000,19.440011962890626,1.812401533126831,0.39432957768440247,0.0026827375404536724
1776445429186027800,19.46502783203125,1.3420212268829346,0.1596308797597885,0.06981102377176285
1776445429211044900,19.490044921875,0.9181941747665405,0.24366122484207153,0.10386186093091965
1776445429236061000,19.51506103515625,0.6502307057380676,0.5377517342567444,0.16037406027317047
1776445429261077000,19.540076904296875,0.30914852023124695,0.6448830366134644,0.032451216131448746
1776445429286092800,19.5650927734375,0.09189289808273315,1.0078535079956055,-0.19171538949012756
1776445429311108900,19.59010888671875,0.9943518042564392,1.4161179065704346,-0.009622504934668541
1776445429336125000,19.615125,1.089637041091919,0.3900333344936371,0.5536284446716309
1776445429361140700,19.640140625,1.5978347063064575,-0.5324810743331909,0.613516092300415
1776445429386157800,19.66515771484375,2.3738348484039307,-0.8884928822517395,0.2556108236312866
1776445429411174000,19.690173828125,2.722716808319092,-0.798803448677063,0.1539873480796814
1776445429436190000,19.71518994140625,2.7372584342956543,-0.6500480771064758,0.07824152708053589
1776445429461205800,19.740205810546875,2.6974880695343018,-0.43472516536712646,0.11422999948263168
1776445429486221800,19.765221923828125,2.4331908226013184,-0.38210153579711914,0.326738178730011
1776445429511238000,19.79023779296875,1.9861671924591064,-0.33348166942596436,0.19902659952640533
1776445429536254000,19.81525390625,1.6305209398269653,-0.3548951745033264,-0.36371472477912903
1776445429561269800,19.840269775390624,1.6302158832550049,-0.227651908993721,-0.598180890083313
1776445429586286800,19.865286865234374,1.8367201089859009,-0.2600013315677643,-0.14785616099834442
1776445429611303000,19.890302978515624,1.7299625873565674,-0.26271501183509827,0.1263478696346283
1776445429636319000,19.915319091796874,1.5193125009536743,0.3596336841583252,0.40947142243385315
1776445429661334300,19.940334228515624,1.3591947555541992,0.8534021377563477,0.38152652978897095
1776445429686350300,19.965350341796874,1.2789064645767212,0.7998645901679993,0.20278777182102203
1776445429711366100,19.9903662109375,1.383117914199829,0.7363594174385071,0.3235606849193573
1776445429736383200,20.01538330078125,1.2970608472824097,0.5986261367797852,0.556265115737915
1776445429761399300,20.0403994140625,1.2452492713928223,0.2648038864135742,0.43749555945396423
1776445429786415400,20.065415283203127,1.3791587352752686,0.48533475399017334,0.48401379585266113
1776445429811431400,20.090431396484377,1.2524060010910034,0.8965875506401062,1.3289778232574463
1776445429836447200,20.115447265625,0.7591684460639954,0.33156123757362366,1.6574839353561401
1776445429861463300,20.14046337890625,0.25402185320854187,0.1932527720928192,1.439587116241455
1776445429886479400,20.165479248046875,0.30559206008911133,-0.4765278398990631,-0.335926353931427
1776445429911496400,20.190496337890625,1.8278239965438843,-0.5825619101524353,-0.15057337284088135
1776445429936512300,20.21551220703125,3.0960922241210938,0.4241463541984558,0.35151466727256775
1776445429961528300,20.2405283203125,2.216169834136963,1.0474809408187866,1.0965207815170288
1776445429986544400,20.26554443359375,1.5943528413772583,1.4501432180404663,1.1540772914886475
1776445430011560200,20.290560302734374,1.3242151737213135,1.2687910795211792,0.7922670245170593
1776445430036576300,20.315576171875,1.2897379398345947,0.25799721479415894,0.14794248342514038
1776445430061592300,20.34059228515625,1.25667405128479,-0.7232744097709656,-0.42611929774284363
1776445430086609400,20.365609375,1.4104716777801514,-0.9338117241859436,-0.5431089401245117
1776445430111625200,20.390625244140626,1.5883032083511353,-0.6194471716880798,-0.40201637148857117
1776445430136641300,20.415641357421876,1.92863929271698,-0.33546847105026245,-0.7394033074378967
1776445430161657300,20.4406572265625,2.07304048538208,0.03899721801280975,-1.062041997909546
1776445430186673400,20.46567333984375,1.7252687215805054,0.3701885938644409,-0.856613039970398
1776445430211689200,20.490689208984374,1.1094787120819092,0.5100947022438049,-0.5114769339561462
1776445430236705300,20.515705322265624,0.8903541564941406,0.2939029633998871,-0.6853029131889343
1776445430261722400,20.540722412109375,0.8203355669975281,0.2806752920150757,-0.6445934176445007
1776445430286738400,20.565738525390625,0.5394083261489868,0.25355634093284607,-0.25837042927742004
1776445430311754200,20.590754150390627,0.2513066828250885,-0.0009295530617237091,-0.1821766048669815
1776445430336770300,20.615770263671877,0.23535336554050446,-0.29480278491973877,-0.24885313212871552
1776445430361786400,20.640786376953123,1.332537293434143,-0.6032747626304626,-0.12888850271701813
1776445430386802200,20.66580224609375,2.1951992511749268,-0.9252703189849854,-0.3562937378883362
1776445430411818200,20.690818359375,2.3745574951171875,-0.7285574078559875,-0.4589463770389557
1776445430436835300,20.71583544921875,2.35383677482605,0.06464865803718567,-0.2581833004951477
1776445430461851400,20.740851318359375,2.517202138900757,1.0349022150039673,0.03533761203289032
1776445430486867200,20.7658671875,2.883134603500366,1.5741355419158936,0.2591974139213562
1776445430511883300,20.79088330078125,3.31461501121521,1.4710049629211426,0.3940216600894928
1776445430536899300,20.8158994140625,3.161989450454712,0.6399617195129395,-0.06514943391084671
1776445430561915400,20.840915283203124,2.8902056217193604,0.025402579456567764,-0.4087958335876465
1776445430586931200,20.86593115234375,2.9798240661621094,-0.019634198397397995,-0.06171649321913719
1776445430611948300,20.8909482421875,3.3423991203308105,0.19439446926116943,0.3095645606517792
1776445430636964400,20.91596435546875,3.7022459506988525,0.21655435860157013,0.3549778461456299
1776445430661980400,20.94098046875,3.8685050010681152,0.08993763476610184,0.28024885058403015
1776445430686996200,20.965996337890626,3.8789114952087402,-0.0018154578283429146,0.1580151915550232
1776445430712012300,20.99101220703125,3.5033345222473145,0.006704525090754032,0.2446352243423462
1776445430737028400,21.0160283203125,2.5699856281280518,0.02536243200302124,0.15252529084682465
1776445430762045400,21.04104541015625,2.2611939907073975,0.03852976858615875,-0.025284968316555023
1776445430787061200,21.066061279296875,2.0445563793182373,0.24647338688373566,-0.11423845589160919
1776445430812077300,21.091077392578125,1.6101113557815552,0.07677488774061203,-0.2373792976140976
1776445430837093400,21.11609326171875,1.3132679462432861,0.06710261851549149,-0.045216578990221024
1776445430862109200,21.141109130859373,1.1803646087646484,0.08128475397825241,0.2060282677412033
1776445430887125200,21.166125244140623,1.087538480758667,-0.50791996717453,0.11173003166913986
1776445430912141300,21.191141357421873,1.0241341590881348,-1.1049489974975586,0.07913973182439804
1776445430937158400,21.216158447265624,0.9705586433410645,-1.2260340452194214,-0.09057668596506119
1776445430962174200,21.24117431640625,0.33210307359695435,-0.22091712057590485,-0.5698720812797546
1776445430987190300,21.266190185546876,0.29322701692581177,0.2883872091770172,-0.5063868165016174
1776445431012206300,21.291206298828126,0.8204173445701599,0.7175501585006714,0.06332987546920776
1776445431037222400,21.316222412109376,1.0391490459442139,0.8359326124191284,0.49986302852630615
1776445431062238200,21.34123828125,1.3475329875946045,0.8005088567733765,0.4221173822879791
1776445431087254300,21.366254150390624,2.184295892715454,-0.16010615229606628,0.22070667147636414
1776445431112271400,21.391271240234374,1.9060765504837036,0.09307257831096649,0.2973591089248657
1776445431137287400,21.416287353515624,1.585819125175476,0.27710604667663574,0.20658878982067108
1776445431162303200,21.44130322265625,1.6529126167297363,0.26041942834854126,0.3507223427295685
1776445431187319300,21.4663193359375,1.523625373840332,0.23129397630691528,0.11080221086740494
1776445431212335400,21.49133544921875,1.5768243074417114,0.06430697441101074,0.11727134138345718
1776445431237351200,21.51635107421875,1.8693859577178955,0.025481009855866432,-0.031362853944301605
1776445431262368300,21.5413681640625,2.020009756088257,0.19188210368156433,-0.22412747144699097
1776445431287384300,21.56638427734375,2.23622465133667,0.23978106677532196,-0.21787390112876892
1776445431312400400,21.591400390625,2.315093755722046,0.5067993402481079,-0.24202404916286469
1776445431337416400,21.61641650390625,2.302924871444702,0.6956974864006042,-0.5621468424797058
1776445431362432300,21.641432373046875,2.252526044845581,0.5143676400184631,-0.8152379393577576
1776445431387448300,21.6664482421875,1.8086761236190796,0.18118971586227417,-0.6379434466362
1776445431412464400,21.69146435546875,1.3292778730392456,0.2585269808769226,-0.23919811844825745
1776445431437481500,21.7164814453125,1.1282122135162354,0.20830442011356354,-0.34019824862480164
1776445431462497300,21.741497314453124,0.5959978699684143,0.3568415641784668,-0.31978631019592285
1776445431487513300,21.766513427734374,-0.15556250512599945,0.32208138704299927,0.20911352336406708
1776445431512529400,21.791529296875,0.3284023106098175,0.4083833694458008,0.3034263849258423
1776445431537545200,21.816545166015626,1.2120518684387207,0.26467233896255493,0.0890323668718338
1776445431562561300,21.841561279296876,1.4105161428451538,-0.0899389237165451,-0.7345477342605591
1776445431587577300,21.866577392578126,2.2740094661712646,-0.6655078530311584,-0.5677725076675415
1776445431612594400,21.891594482421876,2.7171900272369385,-0.8517872095108032,-0.49372056126594543
1776445431637610200,21.9166103515625,2.159257173538208,-0.9658165574073792,-0.40888336300849915
1776445431662626800,21.941626708984376,2.005647897720337,-0.5511355400085449,-0.3041902780532837
1776445431687643000,21.966642822265626,1.7878472805023193,-0.2776991128921509,-0.19408714771270752
1776445431712658700,21.99165869140625,1.6145050525665283,0.1066473200917244,-0.11297258734703064
1776445431737674800,22.0166748046875,1.5752577781677246,0.13350868225097656,0.044328246265649796
1776445431762691800,22.04169189453125,1.9802086353302002,-0.00827435590326786,0.2706138491630554
1776445431787708000,22.0667080078125,2.4711203575134277,-0.37667059898376465,0.6445519924163818
1776445431812723700,22.0917236328125,2.7785122394561768,-0.6799524426460266,0.7680639028549194
1776445431837739800,22.11673974609375,3.0675134658813477,-0.33392035961151123,0.5108588933944702
1776445431862755800,22.141755859375,3.126126527786255,-0.07070737332105637,0.4026789367198944
1776445431887771600,22.166771728515624,2.712721824645996,0.38482415676116943,0.5696829557418823
1776445431912787700,22.19178759765625,2.1936089992523193,0.9195606112480164,0.4134851098060608
1776445431937804800,22.2168046875,1.5857555866241455,1.0449696779251099,0.23815834522247314
1776445431962820900,22.24182080078125,1.6974966526031494,0.28526750206947327,0.2158866822719574
1776445431987836700,22.266836669921876,2.8408055305480957,-0.5204558372497559,0.11722250282764435
1776445432012852700,22.291852783203126,3.4109914302825928,-0.912475049495697,0.23825545608997345
1776445432037868800,22.316868896484376,3.350166082382202,-1.4018694162368774,0.515777587890625
1776445432062884900,22.341884765625,2.5628485679626465,-2.029710054397583,0.13768325746059418
1776445432087902000,22.36690185546875,2.2095162868499756,-1.769944190979004,-0.21552588045597076
1776445432112917800,22.391917724609375,2.4464523792266846,-0.5083813071250916,0.010894475504755974
1776445432137933800,22.416933837890625,2.596920967102051,0.8192392587661743,0.4088399410247803
1776445432162950000,22.441949951171875,2.5541462898254395,1.4322258234024048,0.6390039920806885
1776445432187965700,22.466965576171877,2.7331955432891846,1.9989700317382812,0.9292640686035156
1776445432212981800,22.491981689453127,2.7577831745147705,1.9046456813812256,0.8074533939361572
1776445432237997800,22.516997802734377,2.7342112064361572,1.2389315366744995,0.3515268862247467
1776445432263015000,22.542014892578123,2.894308090209961,0.8344151377677917,0.1333089917898178
1776445432288030700,22.56703076171875,2.950028419494629,0.3146529793739319,-0.07918911427259445
1776445432313046800,22.592046875,2.693267822265625,-0.08957546949386597,-0.023630093783140182
1776445432338062800,22.617062744140625,2.3598885536193848,-0.13919633626937866,0.2664094865322113
1776445432363078700,22.64207861328125,2.102945566177368,0.2092919945716858,0.17493167519569397
1776445432388094700,22.6670947265625,1.8313292264938354,0.2248690128326416,0.03853154554963112
1776445432413111800,22.69211181640625,1.4081082344055176,0.3652149736881256,-0.19306370615959167
1776445432438127900,22.7171279296875,1.161873459815979,0.6757760047912598,-0.23807473480701447
1776445432463144000,22.74214404296875,1.1316920518875122,0.4268726408481598,-0.43422600626945496
1776445432488159700,22.76715966796875,1.1335155963897705,0.24935877323150635,-0.6839913725852966
1776445432513175800,22.79217578125,1.043131709098816,0.10778169333934784,-0.9661718606948853
1776445432538192000,22.81719189453125,1.3619886636734009,0.13723444938659668,-0.8945504426956177
1776445432563208700,22.842208740234376,1.544010877609253,-0.29711639881134033,-0.2674608528614044
1776445432588224800,22.867224853515626,1.2749683856964111,-0.9838992357254028,-0.10452274233102798
1776445432613240800,22.89224072265625,1.5576244592666626,-0.761368989944458,-0.06333594024181366
1776445432638257000,22.9172568359375,2.204873561859131,-0.5535107254981995,0.017371976748108864
1776445432663273000,22.94227294921875,2.593082904815674,-0.6428149938583374,0.10393015295267105
1776445432688289000,22.9672890625,2.8326914310455322,-0.6852880716323853,0.4217625558376312
1776445432713305000,22.99230517578125,2.809943199157715,-0.5125712156295776,0.7540900111198425
1776445432738322000,23.017322021484375,2.5256028175354004,-0.14513087272644043,0.6964243054389954
1776445432763337700,23.042337646484373,2.2474310398101807,0.1364203244447708,0.40205469727516174
1776445432788353800,23.067353759765624,1.9835970401763916,0.4205951988697052,0.23987285792827606
1776445432813370000,23.0923701171875,1.8889600038528442,0.7459625005722046,0.267879843711853
1776445432838386000,23.117385986328124,1.9485670328140259,0.5690870881080627,0.14909188449382782
1776445432863402000,23.142402099609374,2.0508530139923096,0.18671393394470215,-0.032852184027433395
1776445432888418800,23.167418701171876,2.364915132522583,-0.14512968063354492,0.11489392817020416
1776445432913435000,23.192434814453126,2.4530112743377686,-0.39792704582214355,0.3345524072647095
1776445432938450700,23.21745068359375,2.1097710132598877,-0.27053937315940857,0.37345972657203674
1776445432963467000,23.242467041015626,1.8726085424423218,0.08457988500595093,0.08500488847494125
1776445432988483000,23.267483154296876,1.6617783308029175,0.05362503230571747,0.009331213310360909
1776445433013499100,23.2924990234375,1.6062452793121338,0.16263200342655182,0.22752714157104492
1776445433038515700,23.317515625,1.4022377729415894,0.1812315285205841,0.19492913782596588
1776445433063531800,23.34253173828125,1.2213431596755981,0.436194509267807,0.11125055700540543
1776445433088547800,23.3675478515625,1.0858691930770874,0.43878597021102905,0.2180454283952713
1776445433113564000,23.39256396484375,0.8957138657569885,0.39447495341300964,0.4187546372413635
1776445433138580000,23.417580078125,0.6462337970733643,0.46014586091041565,0.38639572262763977
1776445433163596000,23.442595947265627,0.19672037661075592,0.8776169419288635,0.89864581823349
1776445433188612000,23.467612060546877,0.23608911037445068,0.6617106795310974,0.4331614673137665
1776445433213629000,23.49262890625,1.3008612394332886,0.058253027498722076,0.1355830281972885
1776445433238644700,23.517644775390625,1.712253451347351,-0.8302139043807983,0.10486866533756256
1776445433263660800,23.542660888671875,1.4952106475830078,-1.2877569198608398,-0.0009436267428100109
1776445433288676900,23.5676767578125,1.69206964969635,-0.7127308249473572,-0.037161312997341156
1776445433313693000,23.59269287109375,2.3465514183044434,0.06584042310714722,0.24763716757297516
1776445433338709000,23.617708984375,2.1327297687530518,0.03583984822034836,0.6613354682922363
1776445433363725800,23.642725830078124,1.529624581336975,-0.4465532898902893,0.0664437785744667
1776445433388742000,23.667741943359374,1.3313207626342773,-1.0713591575622559,-0.24179573357105255
1776445433413758000,23.692758056640624,0.8059933185577393,-1.2796082496643066,-0.016980383545160294
1776445433438773800,23.717773681640626,0.45143818855285645,-1.6980887651443481,0.09077342599630356
1776445433463789800,23.742789794921876,0.3737497925758362,-2.479856491088867,0.23129640519618988
1776445433488806000,23.767805908203126,0.4679992198944092,-2.9534966945648193,0.24868744611740112
1776445433513823000,23.792822998046876,0.7307291626930237,-2.7361598014831543,0.3152170181274414
1776445433538838800,23.8178388671875,0.5779411196708679,-2.0661747455596924,0.7386505603790283
1776445433563854800,23.842854736328125,0.5620172619819641,-1.5858409404754639,1.0325350761413574
1776445433588871000,23.867870849609375,1.0590617656707764,-1.3598607778549194,0.9932926893234253
1776445433613886700,23.89288671875,1.3778138160705566,-1.4867775440216064,0.7408780455589294
1776445433638902800,23.91790283203125,1.2038850784301758,-2.031714677810669,0.7498735785484314
1776445433663920600,23.942920654296874,0.7750625014305115,-2.86771821975708,0.6306275725364685
1776445433688936400,23.9679365234375,0.7368370294570923,-3.3092105388641357,0.1876598745584488
1776445433713952500,23.992952392578125,1.3302736282348633,-2.2305376529693604,-0.3604300618171692
1776445433738968600,24.017968505859375,1.8991663455963135,-0.9876301288604736,0.08680781722068787
1776445433763984400,24.042984375,1.3316437005996704,-1.5336960554122925,0.8276661038398743
1776445433789000400,24.06800048828125,0.3409249484539032,-2.4951741695404053,0.0801888182759285
1776445433814017500,24.093017578125,-0.4967484474182129,-2.4932353496551514,-0.22040626406669617
1776445433839033600,24.11803369140625,-0.5996054410934448,-2.2591378688812256,-0.2781505286693573
1776445433864049400,24.14304931640625,-0.43487465381622314,-1.4992315769195557,-0.17096878588199615
1776445433889065500,24.1680654296875,0.08299588412046432,-0.5843707323074341,-0.15350446105003357
1776445433914081500,24.19308154296875,0.6626167297363281,0.2706805169582367,-0.07965666800737381
1776445433939097600,24.21809765625,0.695573091506958,0.6601612567901611,0.08235789835453033
1776445433964114400,24.243114501953126,0.49066227674484253,1.0401732921600342,0.2410190999507904
1776445433989130500,24.268130615234377,0.4474394917488098,1.5219991207122803,0.5503768920898438
1776445434014146600,24.293146484375,0.21162040531635284,2.0439720153808594,1.0516908168792725
1776445434039162600,24.31816259765625,-0.2703106701374054,1.8292137384414673,0.9795851707458496
1776445434064178400,24.343178466796875,-0.04453088715672493,1.921195387840271,0.6735819578170776
1776445434089194500,24.368194580078125,-0.1408783197402954,1.0752547979354858,0.8727728128433228
1776445434114211600,24.393211669921875,0.004106248263269663,0.14729979634284973,1.0500404834747314
1776445434139227600,24.4182275390625,-0.12489937990903854,0.07603326439857483,1.100326418876648
1776445434164243500,24.443243408203124,-0.10163325816392899,-0.4787781536579132,0.9906004071235657
1776445434189259500,24.468259521484374,0.5426228642463684,-1.2439560890197754,0.5513409376144409
1776445434214275600,24.493275634765624,1.17832612991333,-1.174286127090454,0.3444858193397522
1776445434239291400,24.51829150390625,1.2893136739730835,-0.2944832146167755,0.6389781832695007
1776445434264308500,24.54330859375,1.0092459917068481,1.013096809387207,1.4661401510238647
1776445434289324500,24.568324462890626,0.6797385215759277,0.6513330936431885,1.4623149633407593
1776445434314340600,24.593340576171876,0.31345421075820923,-0.14363537728786469,1.3126674890518188
1776445434339356700,24.618356689453126,-0.14855451881885529,-0.13607870042324066,1.1821764707565308
1776445434364372500,24.64337255859375,-0.16346359252929688,-0.326185017824173,0.9077622294425964
1776445434389388500,24.668388427734374,0.1455327421426773,-0.520720899105072,0.9295129776000977
1776445434414404600,24.693404541015624,0.2516608238220215,-0.1788584589958191,1.2801847457885742
1776445434439420400,24.71842041015625,0.5005761981010437,-0.15162299573421478,1.7440494298934937
1776445434464436500,24.7434365234375,0.47265398502349854,-0.5474131107330322,2.1358556747436523
1776445434489453600,24.76845361328125,0.1344195157289505,-1.2090789079666138,2.136491060256958
1776445434514469600,24.7934697265625,-0.12178463488817215,-1.4317909479141235,2.2236719131469727
1776445434539485400,24.8184853515625,-0.35352787375450134,-1.683149814605713,2.534044027328491
1776445434564501500,24.84350146484375,-0.4037802517414093,-1.7727952003479004,2.589728355407715
1776445434589517600,24.868517578125,-0.18954873085021973,-1.9322848320007324,2.5289251804351807
1776445434614533600,24.89353369140625,-0.16870974004268646,-1.8229204416275024,2.706066131591797
1776445434639550500,24.918550537109375,-0.01394663192331791,-1.4106106758117676,2.8533475399017334
1776445434664565800,24.943565673828125,0.547092080116272,-1.000134825706482,2.6001429557800293
1776445434689581800,24.968581787109375,0.8366188406944275,-0.9533077478408813,2.582174301147461
1776445434714598000,24.993597900390625,0.8716892600059509,-0.6555774211883545,2.6749508380889893
1776445434739614000,25.018614013671876,0.9269987344741821,-0.7967221736907959,2.570819139480591
1776445434764629800,25.043629638671874,0.6726278066635132,-0.8986161351203918,2.5635509490966797
1776445434789646800,25.068646728515624,0.38147562742233276,-0.8765398859977722,2.358851194381714
1776445434814663000,25.093662841796874,0.29912322759628296,-1.2662019729614258,1.8503894805908203
1776445434839679000,25.118678955078124,0.00986684113740921,-1.4765480756759644,1.738166093826294
1776445434864694800,25.14369482421875,-0.3204069137573242,-1.2068665027618408,1.7756491899490356
1776445434889710800,25.1687109375,0.024658100679516792,-1.0493009090423584,1.6348271369934082
1776445434914728000,25.19372802734375,0.36903151869773865,-0.9451578259468079,1.6296392679214478
1776445434939744000,25.218743896484376,0.6197490692138672,-0.5518258213996887,1.751341462135315
1776445434964759800,25.243759765625,0.9435391426086426,-0.35023489594459534,1.4200955629348755
1776445434989776000,25.26877587890625,0.9454391002655029,-0.25405600666999817,1.253160834312439
1776445435014792000,25.2937919921875,1.0005478858947754,0.08903202414512634,1.4290915727615356
1776445435039808000,25.31880810546875,1.1990474462509155,0.06687618792057037,1.6686782836914062
1776445435064824800,25.343824951171875,0.7675526142120361,0.02075006812810898,1.7654722929000854
1776445435089841000,25.3688408203125,0.1579216718673706,0.054226234555244446,1.3552838563919067
1776445435114857000,25.39385693359375,-0.018393242731690407,-0.3240733742713928,1.010519027709961
1776445435139873000,25.418873046875,-0.1339733600616455,-0.21395666897296906,1.123043417930603
1776445435164888800,25.443888916015624,0.22591739892959595,-0.19926594197750092,1.1687415838241577
1776445435189905000,25.46890478515625,0.48536041378974915,-0.03547021001577377,1.161557674407959
1776445435214922000,25.493921875,0.3685116469860077,-0.29307636618614197,1.1386417150497437
1776445435239938000,25.51893798828125,-0.009079034440219402,-0.08411379903554916,1.059367299079895
1776445435264953900,25.543953857421876,-0.30543410778045654,-0.19700032472610474,0.4846058487892151
1776445435289970000,25.568969970703126,-0.1648409366607666,-0.06272447854280472,0.30724698305130005
1776445435314986000,25.593986083984376,0.16828277707099915,0.5135974287986755,0.1956762969493866
1776445435340001800,25.619001708984374,0.609910786151886,0.8951143622398376,-0.021596677601337433
1776445435365019000,25.644018798828125,0.8538951277732849,0.7639461159706116,-0.04499039053916931
1776445435390035000,25.669034912109375,0.8665528893470764,0.5005035400390625,-0.12103792279958725
1776445435415051000,25.694051025390625,0.3370707631111145,-0.014441018924117088,0.3699800372123718
1776445435440066800,25.71906689453125,-0.3910920321941376,-0.13779306411743164,0.4571385383605957
1776445435465083000,25.744082763671877,-0.4955539405345917,-0.17351551353931427,-0.17124728858470917
1776445435490099000,25.769098876953127,-0.708605170249939,-0.651040256023407,-0.3449026048183441
1776445435515116000,25.794115966796873,-1.002299427986145,-0.510144829750061,-0.3747166693210602
1776445435540131800,25.8191318359375,-0.3797714114189148,-0.3972596526145935,0.24140232801437378
1776445435565148000,25.84414794921875,0.47049230337142944,-0.5974380373954773,0.7805001735687256
1776445435590164000,25.8691640625,0.4694769084453583,-0.15273113548755646,1.170556902885437
1776445435615180000,25.894179931640625,0.15030252933502197,1.0489593744277954,1.5706498622894287
1776445435640195800,25.91919580078125,0.025518063455820084,2.15730619430542,1.9773081541061401
1776445435665213200,25.944213134765626,-0.9334364533424377,0.940365195274353,1.4538887739181519
1776445435690229200,25.969229248046876,-1.172527551651001,-0.4156208038330078,1.0526676177978516
1776445435715245000,25.9942451171875,-1.2757799625396729,-0.5583495497703552,1.208295464515686
1776445435740261000,26.01926123046875,-1.1736003160476685,-0.5554916262626648,1.6666492223739624
1776445435765277200,26.044277099609374,-0.4529634416103363,0.006359318271279335,2.3107292652130127
1776445435790294300,26.069294189453124,0.09120351076126099,0.6200504302978516,2.3586535453796387
1776445435815310000,26.09431005859375,0.4495465159416199,0.8142444491386414,2.4954299926757812
1776445435840326100,26.119326171875,0.5766879916191101,-0.1448931097984314,2.992839813232422
1776445435865342200,26.14434228515625,0.5280174016952515,-1.272827386856079,3.3651559352874756
1776445435890358000,26.16935791015625,1.009320855140686,-1.5824555158615112,3.199866533279419
1776445435915374000,26.1943740234375,0.9515876770019531,-1.893216848373413,3.0400218963623047
1776445435940391200,26.21939111328125,-0.3880341649055481,-2.2029569149017334,3.874768018722534
1776445435965407200,26.2444072265625,-1.8636642694473267,-1.5326215028762817,4.457215309143066
1776445435990423300,26.26942333984375,-2.3659512996673584,-0.2752736210823059,4.414675712585449
1776445436015439000,26.294439208984375,-1.7005867958068848,1.7206188440322876,4.348721504211426
1776445436040455200,26.319455078125,-0.9190657734870911,2.6747758388519287,4.183192729949951
1776445436065471200,26.34447119140625,-0.3895798325538635,1.6149623394012451,3.7696311473846436
1776445436090488300,26.36948828125,-0.07696161419153214,0.6458887457847595,3.635680913925171
1776445436115504000,26.394504150390624,0.10197628289461136,-0.18720175325870514,3.355177879333496
1776445436140520200,26.419520263671874,0.509011447429657,-0.4674445390701294,2.6691908836364746
1776445436165536300,26.444536376953124,0.7666398286819458,-0.31118303537368774,2.0517261028289795
1776445436190552000,26.469552001953126,0.6325215697288513,-0.8324023485183716,1.3866215944290161
1776445436215568100,26.494568115234376,0.7543050050735474,-1.683993935585022,1.1083568334579468
1776445436240585200,26.519585205078126,1.217848300933838,-1.7063044309616089,1.5994819402694702
1776445436265601300,26.544601318359376,1.1322933435440063,-2.020240545272827,1.8318605422973633
1776445436290617000,26.5696171875,0.4104022979736328,-1.968302845954895,1.5292731523513794
1776445436315633200,26.594633056640625,-0.21443378925323486,-0.9994618892669678,0.9277421832084656
1776445436340649200,26.619649169921875,-0.6981426477432251,-0.24685564637184143,0.7595582008361816
1776445436365665300,26.644665283203125,-0.803924560546875,-0.22492775321006775,0.49279099702835083
1776445436390681900,26.669681884765627,-0.7692803740501404,0.26237645745277405,1.0072053670883179
1776445436415698200,26.6946982421875,-0.7580993175506592,0.7818834781646729,1.893862009048462
1776445436440714200,26.71971435546875,-1.1081523895263672,0.5790254473686218,1.726425051689148
1776445436465730300,26.744730224609373,-1.0676249265670776,0.165323406457901,1.1280484199523926
1776445436490746000,26.76974609375,-0.8057085871696472,0.12733881175518036,1.04944908618927
1776445436515763000,26.794762939453125,-0.747414767742157,-0.647669792175293,1.0878829956054688
1776445436540779000,26.819779052734376,-0.039197709411382675,-1.1978633403778076,1.0722264051437378
1776445436565795000,26.844795166015626,0.8963218927383423,-0.8166878819465637,1.153307318687439
1776445436590811100,26.86981103515625,1.1552977561950684,-0.35851866006851196,0.85760098695755
1776445436615827200,26.8948271484375,0.7412212491035461,-0.07333697378635406,1.1091296672821045
1776445436640843300,26.91984326171875,0.29344770312309265,0.11916270107030869,1.3250360488891602
1776445436665859600,26.944859619140626,0.03454319015145302,-0.20005936920642853,0.5486398935317993
1776445436690875600,26.969875732421876,0.3168308734893799,-0.4198324680328369,-0.1121492087841034
1776445436715891700,26.9948916015625,0.602333128452301,-0.4251919686794281,-0.11691702157258987
1776445436740907800,27.01990771484375,0.5120383501052856,-0.07249706983566284,0.21487028896808624
1776445436765923800,27.044923828125,-0.4092220664024353,0.3856760859489441,0.5573416948318481
1776445436790939600,27.069939697265625,-1.301674723625183,0.07093910872936249,0.699533998966217
1776445436815956500,27.09495654296875,-1.6267579793930054,-0.8089620471000671,1.365749716758728
1776445436840972500,27.11997265625,-1.3114054203033447,-1.008962869644165,1.6555250883102417
1776445436865988600,27.144988525390627,-0.7612782716751099,-0.7464737296104431,1.534568428993225
1776445436891004700,27.170004638671877,0.16346552968025208,-0.0759161189198494,1.6217575073242188
1776445436916020700,27.195020751953123,1.6555523872375488,-0.05711551383137703,2.1997883319854736
1776445436941037600,27.22003759765625,0.7634585499763489,-1.5234544277191162,2.1062746047973633
1776445436966053600,27.2450537109375,0.2318844348192215,0.5178460478782654,1.3485468626022339
1776445436991069400,27.2700693359375,-0.22425195574760437,0.9653744101524353,0.6491414308547974
1776445437016085500,27.29508544921875,0.049017131328582764,-0.5112932324409485,0.31553471088409424
1776445437041101600,27.3201015625,0.7742183804512024,-1.1683547496795654,-0.08998938649892807
1776445437066118000,27.345117919921876,0.6919761896133423,-1.0629104375839233,0.022759145125746727
1776445437091134700,27.370134765625,-0.0034263539128005505,-0.3877604901790619,0.10286367684602737
1776445437116150500,27.395150634765624,-0.8430693745613098,-0.027012456208467484,0.35024726390838623
1776445437141166600,27.42016650390625,-1.5998607873916626,0.32137343287467957,0.4268244802951813
1776445437166182700,27.4451826171875,-1.809105396270752,0.43694573640823364,0.29371771216392517
1776445437191198500,27.470198486328126,-0.8058680891990662,0.20403918623924255,0.34456098079681396
1776445437216214800,27.49521484375,0.5424314737319946,0.04518860578536987,0.5285464525222778
1776445437241231600,27.520231689453126,1.1344795227050781,-0.3728311359882355,0.6022239327430725
1776445437266247700,27.54524755859375,0.7486604452133179,-1.2074389457702637,0.1687612682580948
1776445437291263500,27.570263427734375,0.22742851078510284,-0.5706835389137268,0.086176298558712
1776445437316279600,27.595279541015625,-0.07765021175146103,0.6189656257629395,-0.2273457944393158
1776445437341295600,27.620295654296875,-0.2647068500518799,1.1542463302612305,-0.2917485535144806
1776445437366312700,27.645312744140625,-0.4230712056159973,1.0146400928497314,-0.1715918779373169
1776445437391328500,27.67032861328125,-0.27184975147247314,0.39805179834365845,0.0273748729377985
1776445437416344600,27.695344482421874,0.24030917882919312,-0.07855617254972458,0.257583886384964
1776445437441360600,27.720360595703124,0.5172523260116577,-0.25272849202156067,0.318783700466156
1776445437466376700,27.745376708984374,0.41566920280456543,-0.24803707003593445,0.30886009335517883
1776445437491392500,27.770392578125,0.14300963282585144,0.0866311565041542,0.4855118989944458
1776445437516409600,27.79540966796875,0.08608919382095337,0.41113224625587463,0.6671918630599976
1776445437541425700,27.82042578125,0.43059611320495605,0.5740862488746643,1.1637763977050781
1776445437566441700,27.845441650390626,0.9879292845726013,0.34812191128730774,1.624497413635254
1776445437591457500,27.87045751953125,1.1611286401748657,0.021687958389520645,1.718976616859436
1776445437616473600,27.8954736328125,0.8067978024482727,0.003559286706149578,1.785855770111084
1776445437641489700,27.92048974609375,-0.034602563828229904,-0.054716020822525024,1.775234341621399
1776445437666506500,27.945506591796875,-0.6189526319503784,-0.31011027097702026,1.0409554243087769
1776445437691522600,27.9705224609375,-0.5856155157089233,-0.16779933869838715,0.36917248368263245
1776445437716538400,27.995538330078126,-0.3820750117301941,-0.17119629681110382,0.5066823363304138
1776445437741555500,28.020555419921877,-0.3043424189090729,-0.24152524769306183,0.44174817204475403
1776445437766571500,28.045571533203123,-0.6610376238822937,-0.24822522699832916,-0.21844881772994995
1776445437791587600,28.070587646484373,-0.9693397879600525,-0.20324033498764038,-0.44355154037475586
1776445437816603600,28.095603759765623,-0.8685030341148376,-0.5485581755638123,-0.25776952505111694
1776445437841619500,28.120619384765625,0.14105649292469025,-0.6210088133811951,0.6702004075050354
1776445437866635500,28.145635498046875,0.8544065952301025,-0.7681813836097717,1.705108404159546
1776445437891652600,28.170652587890626,1.0745652914047241,-1.2511365413665771,1.9970685243606567
1776445437916668700,28.195668701171876,0.7820829749107361,-1.327116847038269,1.9662667512893677
1776445437941684500,28.2206845703125,0.3824225962162018,-0.9412197470664978,1.9009613990783691
1776445437966700500,28.245700439453124,-0.3456355333328247,0.1544845998287201,1.6860319375991821
1776445437991716600,28.270716552734374,-0.5697924494743347,-0.018829721957445145,1.81617271900177
1776445438016732400,28.295732421875,-0.4908493161201477,-0.302433580160141,1.8587087392807007
1776445438041749500,28.32074951171875,-0.4178548753261566,-0.5511157512664795,1.8312581777572632
1776445438066765600,28.345765625,-0.33665895462036133,-0.5512628555297852,1.7708938121795654
1776445438091781600,28.37078173828125,-0.012497346848249435,-0.41622593998908997,1.8760669231414795
1776445438116797400,28.39579736328125,0.3159080445766449,-0.24582785367965698,2.140244960784912
1776445438141813500,28.4208134765625,0.2466072142124176,-0.2705950438976288,2.3780548572540283
1776445438166830600,28.44583056640625,0.029211046174168587,-0.4099898338317871,2.6825647354125977
1776445438191846700,28.4708466796875,-0.25137603282928467,-0.5261141657829285,2.9644267559051514
1776445438216862500,28.495862548828125,-0.3701132535934448,-0.3689989149570465,3.135305404663086
1776445438241878500,28.52087841796875,-0.37355512380599976,-0.1511215716600418,3.2973616123199463
1776445438266894600,28.54589453125,-0.3840133547782898,-0.06078215688467026,3.3884341716766357
1776445438291910700,28.57091064453125,-0.43340209126472473,-0.2598520517349243,3.3177244663238525
1776445438316927500,28.595927490234374,-0.6357161402702332,-0.3730452358722687,3.0990560054779053
1776445438341943600,28.620943603515624,-0.6997670531272888,0.03998040035367012,2.9291880130767822
1776445438366959600,28.645959716796874,-0.6649286150932312,0.050625793635845184,3.0516135692596436
1776445438391975700,28.6709755859375,-0.878332793712616,-0.32862019538879395,3.009352207183838
1776445438416991500,28.695991455078126,-1.3263252973556519,-0.5046794414520264,2.50382137298584
1776445438442008600,28.721008544921876,-1.4213787317276,-0.09672371298074722,2.2913942337036133
1776445438467024600,28.746024658203126,-1.4195674657821655,0.026876050978899002,2.299374580383301
1776445438492040700,28.771040771484376,-1.2353960275650024,-0.0432170107960701,2.2114415168762207
1776445438517056500,28.796056396484374,-0.8917602300643921,-0.24569420516490936,1.9622963666915894
1776445438542072600,28.821072509765624,-0.5275089144706726,-0.3492760956287384,1.846622109413147
1776445438567088600,28.846088623046874,-0.14322207868099213,-0.05642687901854515,1.6166313886642456
1776445438592105700,28.871105712890625,0.008668004535138607,-0.1807553768157959,1.7275201082229614
1776445438617121500,28.89612158203125,-0.09311265498399734,-0.7566428780555725,1.7283433675765991
1776445438642137600,28.9211376953125,-0.19711995124816895,-0.9991612434387207,1.8192521333694458
1776445438667153700,28.946153564453127,-0.15598465502262115,-1.0452903509140015,1.6886026859283447
1776445438692169700,28.971169677734373,-0.12997765839099884,-0.7061653137207031,1.3794673681259155
1776445438717186800,28.996186767578124,-0.21773332357406616,-0.41635435819625854,1.0043429136276245
1776445438742203000,29.021202880859374,-0.22743916511535645,-0.21156169474124908,0.6639567017555237
1776445438767219000,29.046218994140624,-0.3344779908657074,0.22666247189044952,0.6353029608726501
1776445438792234800,29.07123486328125,-0.10576553642749786,-0.15707585215568542,0.8109711408615112
1776445438817250800,29.096250732421876,0.012309486046433449,-0.8728519678115845,1.0311201810836792
1776445438842267000,29.121266845703126,-0.3688383400440216,-0.790723979473114,0.863847017288208
1776445438867283700,29.14628369140625,-0.28079190850257874,-0.217305526137352,0.6600890755653381
1776445438892299800,29.1712998046875,0.027463950216770172,-0.13700583577156067,0.4925500750541687
1776445438917315800,29.19631591796875,0.09896044433116913,-0.163309246301651,0.09419223666191101
1776445438942332000,29.221331787109374,0.16940049827098846,-0.025553643703460693,0.24076201021671295
1776445438967347700,29.24634765625,0.039403945207595825,0.14149923622608185,0.6960009932518005
1776445438992364500,29.271364501953126,-0.6846099495887756,0.3511500060558319,1.180453896522522
1776445439017380600,29.296380615234376,-1.0719112157821655,0.4045444428920746,1.1473671197891235
1776445439042396700,29.321396728515627,-1.0129214525222778,-0.03741485998034477,1.3387484550476074
1776445439067412700,29.346412841796877,-0.7074571847915649,-0.5202409625053406,1.3034008741378784
1776445439092428800,29.3714287109375,-0.47245460748672485,0.03129120171070099,1.7097119092941284
1776445439117444900,29.39644482421875,-0.48057451844215393,0.7595131993293762,2.168659210205078
1776445439142461700,29.421461669921875,-0.7018355131149292,0.3706189692020416,2.151644468307495
1776445439167477500,29.4464775390625,-0.9669829607009888,-0.159883514046669,1.994382381439209
1776445439192493600,29.47149365234375,-0.9882139563560486,-0.392928808927536,2.543123722076416
1776445439217509600,29.496509521484374,-0.4912373423576355,-0.834191620349884,3.367607593536377
1776445439242525700,29.521525634765624,0.07428020238876343,-0.08817796409130096,3.379533052444458
1776445439267541800,29.546541748046874,0.24798250198364258,0.9420108199119568,3.0314064025878906
1776445439292558600,29.57155859375,0.6144059300422668,2.1428582668304443,2.9597110748291016
1776445439317574700,29.59657470703125,1.367740273475647,2.261916160583496,2.433206558227539
1776445439342590700,29.6215908203125,1.9805463552474976,1.3826632499694824,2.1111812591552734
1776445439367606500,29.6466064453125,2.059725046157837,-0.24644996225833893,1.5667952299118042
1776445439392622600,29.67162255859375,1.026383638381958,-0.4025948643684387,0.7395378351211548
1776445439417639700,29.6966396484375,-0.21333251893520355,-0.40650492906570435,0.16198980808258057
1776445439442655700,29.72165576171875,-0.16759535670280457,-0.6021852493286133,0.3351982533931732
1776445439467671600,29.746671630859375,-0.22471915185451508,-0.1937064826488495,0.4096324145793915
1776445439492687600,29.7716875,0.09919306635856628,-0.03823331743478775,0.6638070940971375
1776445439517703700,29.79670361328125,0.6164355278015137,0.3532462418079376,0.8815191984176636
1776445439542719500,29.821719482421877,0.5195941925048828,0.2975330054759979,1.1572608947753906
1776445439567736600,29.846736572265623,0.5467401146888733,0.16208800673484802,1.381810188293457
1776445439592752600,29.871752685546873,0.5323821902275085,0.6168014407157898,1.569757103919983
1776445439617768700,29.896768798828123,0.5444758534431458,0.930901050567627,1.300565481185913
1776445439642784500,29.921784423828125,0.47241613268852234,0.42109113931655884,0.9873817563056946
1776445439667801000,29.946801025390624,0.5375059843063354,0.2542284429073334,0.6233090758323669
1776445439692818200,29.971818115234374,0.5413301587104797,0.36886066198349,0.9275050163269043
1776445439717834200,29.996834228515624,0.07904771715402603,1.2218122482299805,1.2514036893844604
1776445439742850300,30.021850341796874,-0.17105990648269653,0.8357076048851013,0.9311160445213318
1776445439767866000,30.0468662109375,0.017602238804101944,0.46530961990356445,0.6011567711830139
1776445439792882200,30.071882080078126,0.19507662951946259,-0.00896189920604229,0.24657340347766876
1776445439817898200,30.096898193359376,0.33887726068496704,-0.010407807305455208,0.09437248855829239
1776445439842915300,30.121915283203126,0.5597607493400574,0.1816726177930832,0.2458154559135437
1776445439867931100,30.14693115234375,0.4190961420536041,-0.003127644769847393,0.7682938575744629
1776445439892947200,30.171947265625,0.2992301881313324,-0.13681566715240479,0.8749920725822449
1776445439917963300,30.19696337890625,0.13454128801822662,0.0693712830543518,1.026665210723877
1776445439942979000,30.22197900390625,0.3009580075740814,-0.6969464421272278,0.882271409034729
1776445439967996200,30.24699609375,0.2149217426776886,-0.9901874661445618,0.7302829623222351
1776445439993012200,30.27201220703125,-0.07925773411989212,-0.5765610337257385,0.7701734900474548
1776445440018028300,30.2970283203125,-0.20010019838809967,0.06812434643507004,0.9459044337272644
1776445440043044400,30.32204443359375,0.11362916976213455,0.3545210361480713,1.3380985260009766
1776445440068060200,30.34706005859375,0.19478073716163635,-0.2730032801628113,1.59494948387146
1776445440093076200,30.372076171875,0.14596901834011078,-0.7076929211616516,1.6379895210266113
1776445440118093300,30.39709326171875,-0.007666632067412138,-0.2964061200618744,1.4105678796768188
1776445440143109400,30.422109375,-0.18719646334648132,-0.3119667172431946,1.4479502439498901
1776445440168125200,30.447125244140626,0.22556984424591064,-0.7944852113723755,1.6342415809631348
1776445440193141200,30.472141357421876,0.3570345640182495,-0.9524240493774414,1.9371153116226196
1776445440218157300,30.4971572265625,0.1856788843870163,-0.9885352253913879,2.1529953479766846
1776445440243174400,30.52217431640625,-0.16066257655620575,-0.9525464177131653,1.7967743873596191
1776445440268190200,30.547190185546874,-0.058725904673337936,-0.3503108620643616,1.59609854221344
1776445440293206300,30.572206298828124,0.14666035771369934,-0.0603162981569767,2.2656571865081787
1776445440318222300,30.597222412109375,0.24328646063804626,-0.8337112665176392,2.6446452140808105
1776445440343238100,30.622238037109376,0.30171728134155273,-1.3447726964950562,2.8628642559051514
1776445440368254200,30.647254150390626,0.10351260006427765,-0.6447039842605591,2.949100971221924
1776445440393271300,30.672271240234377,0.11069516837596893,-0.1432322859764099,2.7521276473999023
1776445440418287400,30.697287353515627,0.17340128123760223,-0.3770846724510193,2.5093393325805664
1776445440443303200,30.72230322265625,0.3436192572116852,-0.5251251459121704,2.3565826416015625
1776445440468319200,30.7473193359375,0.36065059900283813,-0.7880016565322876,2.2608895301818848
1776445440493335300,30.772335205078125,0.3844025731086731,-1.3828195333480835,2.446784734725952
1776445440518352400,30.797352294921875,0.14814642071723938,-1.666347861289978,2.7870354652404785
1776445440543368200,30.8223681640625,-0.11128269881010056,-1.4602367877960205,2.9754443168640137
1776445440568384300,30.84738427734375,-0.15459878742694855,-0.7768786549568176,2.915694236755371
1776445440593400300,30.872400390625,0.02308725006878376,0.33589017391204834,2.6923604011535645
1776445440618416400,30.89741650390625,-0.16597436368465424,1.2369190454483032,2.606250047683716
1776445440643432200,30.92243212890625,-0.14035016298294067,1.0111140012741089,2.7696077823638916
1776445440668448800,30.94744873046875,0.19570805132389069,-0.005041924305260181,2.7750279903411865
1776445440693464800,30.97246484375,0.31489092111587524,-0.5913227200508118,2.755730628967285
1776445440718481000,30.99748095703125,0.17141740024089813,-0.7152693867683411,2.3566105365753174
1776445440743497000,31.0224970703125,0.03962474688887596,-0.6834180951118469,1.788791537284851
1776445440768512800,31.0475126953125,-0.01795843057334423,-0.14539304375648499,1.6588040590286255
1776445440793529900,31.07252978515625,-0.10358571261167526,-0.10595062375068665,0.9591317176818848
1776445440818546000,31.0975458984375,-0.12387285381555557,0.47570013999938965,1.0164176225662231
1776445440843562000,31.12256201171875,-0.2680548131465912,1.0571215152740479,0.8268706202507019
1776445440868577800,31.147577880859377,-0.23709115386009216,0.39168214797973633,0.5091848969459534
1776445440893593900,31.17259375,-0.04595157504081726,-0.5360731482505798,0.5162766575813293
1776445440918610000,31.19760986328125,0.17699186503887177,-0.13404271006584167,0.7414812445640564
1776445440943627000,31.222626953125,0.23766480386257172,0.5886306762695312,0.8412932753562927
