time,seconds_elapsed,z,y,x
1776443396801195800,0.08619580078125,-41.2923583984375,15.161026000976562,2.81695556640625
1776443396826211800,0.1112119140625,-41.7032470703125,14.455886840820312,2.858795166015625
1776443396851227100,0.13622705078125,-42.38189697265625,14.1162109375,3.569427490234375
1776443396876243000,0.161242919921875,-42.390228271484375,13.556640625,3.82257080078125
1776443396901259000,0.186259033203125,-42.330352783203125,12.970138549804688,4.08038330078125
1776443396926275000,0.211275146484375,-42.6055908203125,12.324432373046875,4.301055908203125
1776443396951289900,0.236289794921875,-42.80938720703125,12.247421264648438,4.80657958984375
1776443396976306000,0.261305908203125,-42.66546630859375,11.737350463867188,5.0537567138671875
1776443397001322000,0.286322021484375,-42.4468994140625,11.409042358398438,5.767791748046875
1776443397026337000,0.3113369140625,-42.430328369140625,10.943344116210938,6.0952911376953125
1776443397051356700,0.336356689453125,-42.362884521484375,10.911422729492188,6.9197845458984375
1776443397076372700,0.361372802734375,-42.819976806640625,10.667678833007812,7.471282958984375
1776443397101389000,0.38638916015625,-42.435791015625,10.765121459960938,7.990875244140625
1776443397126403800,0.41140380859375,-42.308624267578125,10.299560546875,8.480194091796875
1776443397151420000,0.436419921875,-42.14324951171875,9.961013793945312,9.266189575195312
1776443397176436000,0.46143603515625,-42.25360107421875,9.62274169921875,10.014755249023438
1776443397201452000,0.4864521484375,-41.777618408203125,9.58355712890625,10.836227416992188
1776443397226466800,0.511466796875,-41.63934326171875,9.465988159179688,11.246200561523438
1776443397251483000,0.53648291015625,-41.705322265625,9.537979125976562,12.271682739257812
1776443397276498700,0.561498779296875,-41.743499755859375,9.185165405273438,12.302642822265625
1776443397301514000,0.586513916015625,-42.14495849609375,8.742691040039062,12.077880859375
1776443397326530000,0.611530029296875,-42.39190673828125,8.322311401367188,11.495361328125
1776443397351545900,0.6365458984375,-41.960601806640625,7.9042510986328125,10.913558959960938
1776443397376562000,0.66156201171875,-43.08258056640625,7.1565399169921875,10.416946411132812
1776443397401577000,0.686576904296875,-43.335723876953125,6.601409912109375,9.274795532226562
1776443397426592800,0.7115927734375,-43.7169189453125,5.869659423828125,8.273941040039062
1776443397451608800,0.73660888671875,-43.545379638671875,5.9249725341796875,6.7790069580078125
1776443397476625000,0.761625,-44.13446044921875,5.5115814208984375,5.6950836181640625
1776443397501640000,0.786639892578125,-44.547607421875,4.9968109130859375,4.7358551025390625
1776443397526656000,0.811656005859375,-44.89349365234375,4.8269805908203125,4.0569305419921875
1776443397551672000,0.836672119140625,-44.869384765625,4.786712646484375,3.6926422119140625
1776443397576687900,0.86168798828125,-44.455596923828125,4.515228271484375,3.261962890625
1776443397601703000,0.886702880859375,-44.71026611328125,4.671356201171875,3.04498291015625
1776443397626719000,0.911718994140625,-44.56805419921875,4.769989013671875,2.8620147705078125
1776443397651734800,0.93673486328125,-44.535736083984375,5.334197998046875,2.936920166015625
1776443397676749800,0.961749755859375,-45.0203857421875,5.043975830078125,2.970306396484375
1776443397701766000,0.986765869140625,-45.20623779296875,4.8630828857421875,3.430389404296875
1776443397726782000,1.011781982421875,-44.732391357421875,4.7405548095703125,3.6626739501953125
1776443397751798000,1.036798095703125,-44.60546875,4.6067047119140625,3.7162628173828125
1776443397776812800,1.061812744140625,-44.671875,4.5587921142578125,3.5900115966796875
1776443397801828900,1.086828857421875,-44.70343017578125,4.45050048828125,3.85894775390625
1776443397826845000,1.111844970703125,-45.134063720703125,4.384033203125,3.861724853515625
1776443397851861000,1.136861083984375,-45.00726318359375,4.275177001953125,3.65667724609375
1776443397876875800,1.161875732421875,-45.021026611328125,4.1012725830078125,3.4410552978515625
1776443397901891800,1.186891845703125,-45.208740234375,3.8538360595703125,3.383636474609375
1776443397926908000,1.211907958984375,-45.687164306640625,3.0339508056640625,3.16937255859375
1776443397951924000,1.236924072265625,-45.597747802734375,2.922149658203125,2.84283447265625
1776443397976939000,1.26193896484375,-45.652496337890625,2.3719024658203125,2.7481536865234375
1776443398001954800,1.286954833984375,-45.76824951171875,2.021392822265625,2.638946533203125
1776443398026971000,1.311970947265625,-45.42919921875,1.4003448486328125,3.183380126953125
1776443398051983600,1.336983642578125,-45.288299560546875,1.4863739013671875,3.3788299560546875
1776443398076998700,1.36199853515625,-45.7978515625,1.726959228515625,3.970703125
1776443398102014700,1.3870146484375,-45.442535400390625,1.960723876953125,4.4959259033203125
1776443398127030500,1.412030517578125,-45.127532958984375,2.4681243896484375,5.2535858154296875
1776443398152045800,1.4370458984375,-44.704437255859375,2.9554901123046875,5.7126617431640625
1776443398177062000,1.462061767578125,-45.0975341796875,3.1917572021484375,6.0419158935546875
1776443398202077700,1.48707763671875,-45.282623291015625,3.3029022216796875,6.1787109375
1776443398227093800,1.51209375,-45.301422119140625,3.1661376953125,6.6251678466796875
1776443398252108500,1.537108642578125,-45.33367919921875,3.1010894775390625,7.0279083251953125
1776443398277124600,1.56212451171875,-45.177978515625,2.3419342041015625,7.510162353515625
1776443398302140700,1.587140625,-44.87213134765625,1.740142822265625,7.237701416015625
1776443398327156700,1.61215673828125,-45.75274658203125,1.00262451171875,7.019683837890625
1776443398352171800,1.637171875,-45.156494140625,0.633819580078125,7.15185546875
1776443398377187800,1.662187744140625,-45.947265625,-0.597015380859375,6.564117431640625
1776443398402204000,1.687203857421875,-45.232391357421875,-0.800872802734375,5.967498779296875
1776443398427219700,1.7122197265625,-45.61083984375,-0.9752197265625,5.3358612060546875
1776443398452234800,1.73723486328125,-45.9757080078125,-0.9922943115234375,5.0051116943359375
1776443398477250600,1.76225048828125,-45.659210205078125,-1.1254730224609375,4.55035400390625
1776443398502266600,1.7872666015625,-46.003173828125,-0.9224700927734375,3.8518524169921875
1776443398527282700,1.81228271484375,-46.22930908203125,-1.0080718994140625,2.4571533203125
1776443398552297500,1.83729736328125,-45.82122802734375,-0.68017578125,1.7588653564453125
1776443398577313500,1.8623134765625,-46.43603515625,-0.5709075927734375,1.0502471923828125
1776443398602329900,1.887329833984375,-46.089019775390625,-0.7367095947265625,0.9384307861328125
1776443398627346000,1.912345947265625,-46.243377685546875,-0.4450836181640625,0.7536468505859375
1776443398652360700,1.937360595703125,-46.103271484375,-0.453948974609375,0.92852783203125
1776443398677376800,1.962376708984375,-45.80609130859375,-0.0462493896484375,1.4814300537109375
1776443398702392600,1.987392578125,-45.768890380859375,0.030426025390625,1.9275970458984375
1776443398727408600,2.01240869140625,-46.259765625,-0.2403564453125,1.636016845703125
1776443398752423700,2.037423583984375,-46.0584716796875,-0.0622406005859375,1.7493133544921875
1776443398777439500,2.062439453125,-46.058349609375,-0.2914581298828125,1.385589599609375
1776443398802455600,2.08745556640625,-45.925201416015625,-0.2398834228515625,1.863555908203125
1776443398827471600,2.1124716796875,-46.540496826171875,-0.26751708984375,2.08123779296875
1776443398852486700,2.137486572265625,-46.427093505859375,-0.493377685546875,2.5008087158203125
1776443398877502700,2.162502685546875,-46.394317626953125,-1.0112457275390625,2.151336669921875
1776443398902518800,2.187518798828125,-45.992279052734375,-1.1871490478515625,1.8214263916015625
1776443398927534600,2.21253466796875,-46.319610595703125,-1.9977569580078125,1.7066497802734375
1776443398952550700,2.237550537109375,-46.085784912109375,-2.50372314453125,1.94091796875
1776443398977565700,2.262565673828125,-46.091522216796875,-3.6013641357421875,1.81591796875
1776443399002581500,2.28758154296875,-45.908599853515625,-3.863861083984375,1.951995849609375
1776443399027597600,2.31259765625,-45.903717041015625,-4.6201934814453125,2.2528533935546875
1776443399052613400,2.33761328125,-45.715240478515625,-5.2924957275390625,2.6797943115234375
1776443399077628400,2.36262841796875,-46.247711181640625,-5.8663482666015625,2.1896209716796875
1776443399102644200,2.387644287109375,-46.0574951171875,-6.0107574462890625,1.7661895751953125
1776443399127660300,2.412660400390625,-46.14849853515625,-6.751068115234375,1.3938140869140625
1776443399152676400,2.43767626953125,-45.791015625,-6.7482757568359375,1.6782379150390625
1776443399177691100,2.462691162109375,-46.079132080078125,-7.8175201416015625,0.8836822509765625
1776443399202707200,2.487707275390625,-45.889617919921875,-7.596282958984375,0.88970947265625
1776443399227723300,2.51272314453125,-46.018402099609375,-8.3551025390625,0.1238861083984375
1776443399252739000,2.537739013671875,-46.022369384765625,-8.543670654296875,-0.5272979736328125
1776443399277755100,2.562755126953125,-45.540435791015625,-9.246200561523438,-0.6654205322265625
1776443399302770400,2.5877705078125,-45.704345703125,-9.1986083984375,-0.8461761474609375
1776443399327786200,2.6127861328125,-45.42919921875,-10.090484619140625,-0.5600738525390625
1776443399352802300,2.63780224609375,-45.475860595703125,-9.928421020507812,-0.031494140625
1776443399377818400,2.662818359375,-45.22979736328125,-10.375396728515625,0.659454345703125
1776443399402833200,2.687833251953125,-44.959991455078125,-10.7379150390625,0.9467010498046875
1776443399427849200,2.71284912109375,-45.15521240234375,-11.002197265625,1.54296875
1776443399452865300,2.737865234375,-45.270172119140625,-11.14312744140625,1.76495361328125
1776443399477881000,2.762881103515625,-44.267120361328125,-12.007843017578125,2.3044586181640625
1776443399502896400,2.787896484375,-43.94879150390625,-12.50506591796875,2.2900390625
1776443399527912400,2.812912353515625,-44.185516357421875,-13.716949462890625,2.1699676513671875
1776443399552928300,2.83792822265625,-44.09259033203125,-14.4532470703125,2.32928466796875
1776443399577944300,2.8629443359375,-43.20086669921875,-15.880462646484375,2.4994049072265625
1776443399602960400,2.88796044921875,-42.67657470703125,-17.054443359375,2.412750244140625
1776443399627975200,2.91297509765625,-42.39306640625,-18.066619873046875,2.1502685546875
1776443399652991200,2.9379912109375,-41.886871337890625,-18.7744140625,1.9602508544921875
1776443399678007300,2.96300732421875,-41.265350341796875,-20.039581298828125,1.5157623291015625
1776443399703023000,2.988023193359375,-40.952972412109375,-20.648834228515625,1.303192138671875
1776443399728038400,3.013038330078125,-40.532867431640625,-21.970840454101562,1.326019287109375
1776443399753054500,3.038054443359375,-40.580810546875,-22.034347534179688,1.2288665771484375
1776443399778070300,3.0630703125,-39.972442626953125,-22.232254028320312,1.10302734375
1776443399803086300,3.08808642578125,-40.421966552734375,-22.246505737304688,0.9194183349609375
1776443399828102400,3.113102294921875,-40.7950439453125,-21.543289184570312,0.4626617431640625
1776443399853117200,3.1381171875,-40.52099609375,-21.3472900390625,0.2628326416015625
1776443399878133200,3.16313330078125,-40.607666015625,-20.63897705078125,-0.1298675537109375
1776443399903149300,3.1881494140625,-41.458526611328125,-20.571075439453125,0.0109405517578125
1776443399928165000,3.2131650390625,-41.33819580078125,-20.053680419921875,-0.10076904296875
1776443399953181200,3.23818115234375,-41.80145263671875,-19.537612915039062,-0.206085205078125
1776443399978196500,3.263196533203125,-41.560699462890625,-19.222015380859375,-0.099151611328125
1776443400003212300,3.28821240234375,-41.9366455078125,-18.536056518554688,0.2203521728515625
1776443400028228400,3.313228271484375,-42.2216796875,-18.77618408203125,-0.024627685546875
1776443400053244000,3.338243896484375,-42.1138916015625,-18.687667846679688,-0.438018798828125
1776443400078259000,3.363259033203125,-42.27020263671875,-18.783782958984375,-0.8926544189453125
1776443400103274800,3.388274658203125,-41.852325439453125,-18.824264526367188,-1.2246551513671875
1776443400128290800,3.413290771484375,-42.054473876953125,-19.170989990234375,-1.4512786865234375
1776443400153307000,3.438306884765625,-41.586334228515625,-19.351821899414062,-1.858673095703125
1776443400178323000,3.463322998046875,-41.410675048828125,-19.370452880859375,-2.0341339111328125
1776443400203338000,3.488337890625,-41.378509521484375,-19.56890869140625,-2.4400177001953125
1776443400228354000,3.51335400390625,-41.551025390625,-19.678451538085938,-2.58233642578125
1776443400253370000,3.5383701171875,-42.07855224609375,-19.794357299804688,-2.663787841796875
1776443400278386000,3.563385986328125,-41.64752197265625,-19.793807983398438,-2.1909332275390625
1776443400303402000,3.588402099609375,-41.24969482421875,-19.77783203125,-1.7815093994140625
1776443400328416800,3.613416748046875,-41.9664306640625,-19.734649658203125,-1.8911285400390625
1776443400353432800,3.638432861328125,-42.09271240234375,-19.80609130859375,-1.7409210205078125
1776443400378449000,3.663448974609375,-42.195526123046875,-19.64910888671875,-1.56060791015625
1776443400403465000,3.68846484375,-41.7822265625,-19.742141723632812,-1.7844085693359375
1776443400428480800,3.713480712890625,-41.604644775390625,-19.61517333984375,-1.4844818115234375
1776443400453496000,3.73849609375,-41.359161376953125,-19.936416625976562,-1.7816925048828125
1776443400478512000,3.76351220703125,-41.52313232421875,-20.142654418945312,-1.9627685546875
1776443400503528000,3.78852783203125,-40.834991455078125,-20.426483154296875,-2.1819000244140625
1776443400528544000,3.8135439453125,-40.953521728515625,-20.625335693359375,-2.739166259765625
1776443400553560000,3.83856005859375,-40.610015869140625,-20.687286376953125,-3.4303741455078125
1776443400578574800,3.863574951171875,-40.57867431640625,-20.852081298828125,-4.0157470703125
1776443400603591000,3.8885908203125,-40.610198974609375,-20.8349609375,-4.7208251953125
1776443400628607000,3.91360693359375,-40.63629150390625,-20.821487426757812,-5.7059173583984375
1776443400653622800,3.938622802734375,-40.43890380859375,-21.060195922851562,-6.275390625
1776443400678638800,3.963638916015625,-40.045135498046875,-21.085922241210938,-7.0236663818359375
1776443400703654100,3.988654052734375,-40.615570068359375,-21.302520751953125,-8.107696533203125
1776443400728670000,4.013669921875,-40.33306884765625,-21.06109619140625,-8.592437744140625
1776443400753686000,4.03868603515625,-40.05291748046875,-21.141494750976562,-8.757553100585938
1776443400778702000,4.0637021484375,-40.12969970703125,-21.044754028320312,-8.825454711914062
1776443400803718000,4.0887177734375,-40.37969970703125,-21.133560180664062,-8.572006225585938
1776443400828733000,4.11373291015625,-40.670684814453125,-21.02685546875,-8.712875366210938
1776443400853749000,4.1387490234375,-40.46844482421875,-20.871200561523438,-9.180221557617188
1776443400878764800,4.163764892578125,-40.507232666015625,-20.487106323242188,-9.804473876953125
1776443400903780900,4.18878076171875,-40.100311279296875,-20.068496704101562,-10.909637451171875
1776443400928797000,4.213796875,-40.221160888671875,-19.750015258789062,-11.770828247070312
1776443400953812000,4.23881201171875,-40.0626220703125,-19.09307861328125,-12.738983154296875
1776443400978828000,4.263828125,-39.980133056640625,-19.045257568359375,-13.465545654296875
1776443401003844000,4.288843994140625,-39.540924072265625,-18.395645141601562,-14.26153564453125
1776443401028860000,4.31385986328125,-40.072723388671875,-18.140106201171875,-14.751663208007812
1776443401053875700,4.338875732421875,-40.26568603515625,-17.559967041015625,-15.180633544921875
1776443401078890800,4.363890869140625,-39.66497802734375,-17.155914306640625,-15.786514282226562
1776443401103906600,4.388906494140625,-39.620513916015625,-16.24267578125,-16.281707763671875
1776443401128922600,4.413922607421875,-39.927520751953125,-16.250152587890625,-16.619384765625
1776443401153938700,4.438938720703125,-39.563812255859375,-15.49176025390625,-17.038742065429688
1776443401178954500,4.46395458984375,-39.8262939453125,-14.831924438476562,-17.657791137695312
1776443401203970600,4.488970458984375,-39.927490234375,-13.883163452148438,-18.105072021484375
1776443401228985900,4.51398583984375,-40.12890625,-13.39288330078125,-18.742935180664062
1776443401254001700,4.539001708984375,-40.23272705078125,-12.959335327148438,-19.118682861328125
1776443401279017700,4.564017822265625,-39.727874755859375,-12.22149658203125,-19.651107788085938
1776443401304033800,4.58903369140625,-40.07708740234375,-11.553512573242188,-20.519485473632812
1776443401329049600,4.614049560546875,-39.650634765625,-10.546737670898438,-20.6561279296875
1776443401354064600,4.639064697265625,-39.279632568359375,-10.085769653320312,-21.6241455078125
1776443401379080700,4.664080810546875,-39.436126708984375,-9.711318969726562,-21.920440673828125
1776443401404096500,4.689096435546875,-40.1015625,-8.965179443359375,-22.123794555664062
1776443401429112600,4.714112548828125,-39.9862060546875,-8.502288818359375,-22.1365966796875
1776443401454128600,4.739128662109375,-39.56640625,-8.22613525390625,-21.866836547851562
1776443401479143700,4.764143798828125,-39.576446533203125,-8.321243286132812,-21.773544311523438
1776443401504159700,4.78915966796875,-40.116180419921875,-8.252914428710938,-21.446090698242188
1776443401529175800,4.81417578125,-39.90484619140625,-8.671768188476562,-21.376968383789062
1776443401554191600,4.839191650390625,-40.148406982421875,-8.730438232421875,-21.040130615234375
1776443401579207700,4.864207763671875,-39.8856201171875,-9.142745971679688,-20.979293823242188
1776443401604223700,4.8892236328125,-40.03619384765625,-9.816436767578125,-20.630340576171875
1776443401629238500,4.914238525390625,-40.1026611328125,-10.407333374023438,-20.1761474609375
1776443401654254600,4.939254638671875,-40.349334716796875,-10.7337646484375,-20.253524780273438
1776443401679270700,4.964270751953125,-40.048614501953125,-11.236434936523438,-20.443084716796875
1776443401704286500,4.989286376953125,-39.7965087890625,-11.694198608398438,-20.651962280273438
1776443401729302500,5.014302490234375,-39.136505126953125,-11.903228759765625,-20.8607177734375
1776443401754317800,5.03931787109375,-38.89312744140625,-12.050384521484375,-21.40631103515625
1776443401779333600,5.064333740234375,-38.686370849609375,-12.099929809570312,-22.16717529296875
1776443401804349700,5.089349609375,-38.32025146484375,-11.37518310546875,-23.06243896484375
1776443401829365800,5.11436572265625,-38.03387451171875,-10.820343017578125,-23.968368530273438
1776443401854381800,5.1393818359375,-37.22064208984375,-9.6669921875,-25.321121215820312
1776443401879397600,5.164397705078125,-36.852630615234375,-8.940780639648438,-26.375076293945312
1776443401904412700,5.18941259765625,-36.41668701171875,-7.8892974853515625,-27.321441650390625
1776443401929428500,5.214428466796875,-35.801483154296875,-7.0056304931640625,-27.693649291992188
1776443401954444500,5.239444580078125,-35.16748046875,-5.4488525390625,-28.41912841796875
1776443401979460600,5.264460693359375,-35.190582275390625,-4.6409759521484375,-28.5888671875
1776443402004476700,5.2894765625,-35.05194091796875,-3.1584014892578125,-29.409286499023438
1776443402029492700,5.31449267578125,-34.866546630859375,-2.6441802978515625,-29.740066528320312
1776443402054507800,5.3395078125,-34.833526611328125,-2.1180419921875,-30.111297607421875
1776443402079523800,5.36452392578125,-34.721160888671875,-0.725250244140625,-30.4959716796875
1776443402104540000,5.389539794921875,-34.855072021484375,0.0246124267578125,-30.5740966796875
1776443402129555700,5.4145556640625,-34.223358154296875,1.0160980224609375,-30.552993774414062
1776443402154571800,5.43957177734375,-34.07769775390625,1.5561370849609375,-30.5296630859375
1776443402179586800,5.4645869140625,-33.72821044921875,1.8590850830078125,-30.801742553710938
1776443402204602600,5.4896025390625,-33.923828125,2.186767578125,-30.57281494140625
1776443402229618700,5.51461865234375,-33.955322265625,2.43463134765625,-30.56817626953125
1776443402254634800,5.539634765625,-33.911102294921875,2.9009857177734375,-30.301055908203125
1776443402279650800,5.56465087890625,-33.675537109375,3.1362457275390625,-29.979171752929688
1776443402304667000,5.5896669921875,-34.32647705078125,3.4860076904296875,-29.8282470703125
1776443402329682000,5.614681884765625,-34.39410400390625,3.7670135498046875,-29.346511840820312
1776443402354697700,5.63969775390625,-34.145294189453125,4.1831817626953125,-28.941757202148438
1776443402379713800,5.6647138671875,-34.774658203125,4.787750244140625,-28.833526611328125
1776443402404729900,5.689729736328125,-34.913604736328125,4.9173736572265625,-28.706588745117188
1776443402429745700,5.71474560546875,-35.006103515625,5.4094390869140625,-28.429229736328125
1776443402454761700,5.73976171875,-34.983489990234375,6.0611114501953125,-28.231201171875
1776443402479776800,5.76477685546875,-35.203277587890625,6.41229248046875,-28.146697998046875
1776443402504792600,5.78979248046875,-34.936859130859375,6.69659423828125,-27.901168823242188
1776443402529808600,5.81480859375,-35.191009521484375,6.7429656982421875,-27.859832763671875
1776443402554824700,5.83982470703125,-35.178619384765625,6.6031646728515625,-27.64715576171875
1776443402579840800,5.8648408203125,-35.364227294921875,7.051025390625,-27.604400634765625
1776443402604856800,5.88985693359375,-35.2730712890625,7.384033203125,-27.38458251953125
1776443402629871900,5.914871826171875,-35.246368408203125,7.3389129638671875,-27.165664672851562
1776443402654887700,5.9398876953125,-35.4029541015625,7.6725616455078125,-26.82647705078125
1776443402679903700,5.96490380859375,-35.83465576171875,7.2420806884765625,-27.0582275390625
1776443402704919800,5.989919921875,-35.7513427734375,6.9368133544921875,-27.065811157226562
1776443402729936000,6.014935791015625,-35.882720947265625,6.64276123046875,-27.125518798828125
1776443402754951700,6.03995166015625,-35.975860595703125,6.8910064697265625,-26.85968017578125
1776443402779966700,6.064966796875,-36.13568115234375,6.546295166015625,-26.952407836914062
1776443402804982800,6.089982666015625,-36.201934814453125,6.0869903564453125,-26.951385498046875
1776443402829998800,6.114998779296875,-36.474029541015625,6.1899261474609375,-26.758453369140625
1776443402855015000,6.140014892578125,-36.790740966796875,6.0377960205078125,-27.127365112304688
1776443402880031000,6.165031005859375,-36.246826171875,6.0911712646484375,-27.074920654296875
1776443402905046800,6.190046875,-36.25225830078125,6.03326416015625,-27.170730590820312
1776443402930061800,6.215061767578125,-36.604583740234375,6.369354248046875,-26.801986694335938
1776443402955078000,6.240077880859375,-36.66754150390625,6.1774139404296875,-26.423477172851562
1776443402980093700,6.26509375,-36.75177001953125,6.691314697265625,-26.467025756835938
1776443403005109800,6.29010986328125,-36.787933349609375,6.9061737060546875,-26.437652587890625
1776443403030125800,6.315125732421875,-36.65496826171875,7.3665313720703125,-26.198471069335938
1776443403055143000,6.340142822265625,-36.51531982421875,7.92864990234375,-26.165618896484375
1776443403080158000,6.365157958984375,-36.84149169921875,8.594680786132812,-25.919097900390625
1776443403105173800,6.390173828125,-37.0615234375,9.04083251953125,-25.552764892578125
1776443403130189800,6.41518994140625,-37.304931640625,10.125946044921875,-24.861480712890625
1776443403155206000,6.440205810546875,-37.085113525390625,10.555007934570312,-24.161895751953125
1776443403180221700,6.4652216796875,-37.409881591796875,11.325485229492188,-23.7100830078125
1776443403205237800,6.49023779296875,-37.138092041015625,12.093780517578125,-23.021194458007812
1776443403230253000,6.515253173828125,-37.502960205078125,13.238937377929688,-22.125991821289062
1776443403255268900,6.540268798828125,-37.39959716796875,14.020751953125,-21.541275024414062
1776443403280285000,6.565284912109375,-37.6390380859375,14.656967163085938,-20.462509155273438
1776443403305301000,6.590301025390625,-37.964599609375,14.943206787109375,-20.022735595703125
1776443403330316800,6.61531689453125,-38.236358642578125,15.0968017578125,-19.539596557617188
1776443403355332900,6.640332763671875,-37.8931884765625,15.78717041015625,-19.101699829101562
1776443403380348000,6.665347900390625,-38.14227294921875,15.805999755859375,-19.170852661132812
1776443403405363700,6.69036376953125,-38.48736572265625,15.874984741210938,-19.103683471679688
1776443403430379800,6.7153798828125,-38.563262939453125,15.84942626953125,-18.796401977539062
1776443403455395800,6.740395751953125,-38.748779296875,15.697097778320312,-18.748291015625
1776443403480412000,6.765411865234375,-38.715362548828125,14.834335327148438,-18.707855224609375
1776443403505427700,6.790427734375,-38.847137451171875,14.91009521484375,-18.739303588867188
1776443403530443000,6.815443115234375,-38.899566650390625,14.9063720703125,-18.45623779296875
1776443403555458800,6.840458740234375,-38.5634765625,15.077392578125,-18.443618774414062
1776443403580475000,6.865474853515625,-38.8631591796875,15.078353881835938,-17.36676025390625
1776443403605491000,6.890490966796875,-39.184814453125,14.997482299804688,-16.871994018554688
1776443403630507000,6.915507080078125,-39.657867431640625,15.113174438476562,-16.54595947265625
1776443403655522800,6.940522705078125,-39.76934814453125,15.112091064453125,-16.083267211914062
1776443403680537900,6.965537841796875,-40.564300537109375,15.065032958984375,-15.065277099609375
1776443403705554000,6.990553955078125,-40.64056396484375,14.892074584960938,-14.016921997070312
1776443403730569700,7.01556982421875,-41.162933349609375,14.848526000976562,-12.540023803710938
1776443403755585800,7.040585693359375,-41.6693115234375,14.882003784179688,-11.6568603515625
1776443403780601900,7.065601806640625,-41.438446044921875,15.333602905273438,-10.686935424804688
1776443403805618000,7.090617919921875,-41.8177490234375,15.215347290039062,-9.903396606445312
1776443403830634000,7.115634033203125,-41.235260009765625,15.365524291992188,-9.063308715820312
1776443403855649000,7.14064892578125,-41.83306884765625,14.951446533203125,-8.393203735351562
1776443403880664800,7.165664794921875,-41.767578125,14.92645263671875,-8.027389526367188
1776443403905681000,7.190680908203125,-41.985595703125,15.29486083984375,-7.2076873779296875
1776443403930697000,7.215697021484375,-41.82525634765625,15.615478515625,-6.1791839599609375
1776443403955712800,7.240712646484375,-41.771026611328125,15.560806274414062,-5.2920074462890625
1776443403980728800,7.265728759765625,-42.166839599609375,15.37969970703125,-4.1556854248046875
1776443404005743900,7.290743896484375,-42.1778564453125,15.267333984375,-3.30029296875
1776443404030760000,7.315760009765625,-42.155670166015625,15.320999145507812,-1.711273193359375
1776443404055775200,7.340775146484375,-42.311492919921875,15.209442138671875,-0.959869384765625
1776443404080791300,7.365791259765625,-42.378631591796875,14.8194580078125,-0.34149169921875
1776443404105807400,7.390807373046875,-42.635650634765625,14.34869384765625,0.0473480224609375
1776443404130823200,7.4158232421875,-42.56011962890625,14.030899047851562,1.1542510986328125
1776443404155838200,7.440838134765625,-42.82098388671875,13.658035278320312,1.49273681640625
1776443404180854000,7.46585400390625,-43.108001708984375,13.385665893554688,1.7458038330078125
1776443404205870000,7.4908701171875,-43.005096435546875,13.361465454101562,2.1141510009765625
1776443404230886100,7.51588623046875,-43.203033447265625,12.766098022460938,2.305419921875
1776443404255902200,7.540902099609375,-42.86712646484375,12.166580200195312,3.0440673828125
1776443404280918000,7.56591796875,-43.0501708984375,11.904296875,3.63177490234375
1776443404305933300,7.590933349609375,-43.506744384765625,11.241302490234375,4.228607177734375
1776443404330949400,7.615949462890625,-43.30841064453125,11.052947998046875,4.5736083984375
1776443404355965200,7.640965087890625,-43.317779541015625,10.975067138671875,5.62353515625
1776443404380981200,7.665981201171875,-43.984588623046875,10.431472778320312,5.8960113525390625
1776443404405997300,7.690997314453125,-43.44512939453125,9.972671508789062,6.4106292724609375
1776443404431013000,7.71601318359375,-43.711639404296875,9.942459106445312,6.4862213134765625
1776443404456029200,7.741029296875,-43.706512451171875,9.752426147460938,6.674285888671875
1776443404481044200,7.766044189453125,-43.60137939453125,9.8031005859375,7.0099029541015625
1776443404506060000,7.79106005859375,-43.48468017578125,9.578033447265625,7.803802490234375
1776443404531076000,7.816076171875,-43.0634765625,9.241668701171875,8.041976928710938
1776443404556092200,7.841092041015625,-43.051666259765625,8.898757934570312,8.565460205078125
1776443404581108000,7.86610791015625,-43.251251220703125,8.83270263671875,9.24371337890625
1776443404606124300,7.891124267578125,-43.487884521484375,8.431015014648438,9.879669189453125
1776443404631139300,7.916139404296875,-43.05157470703125,8.293380737304688,10.15069580078125
1776443404656155100,7.941155029296875,-42.873199462890625,8.72222900390625,10.515289306640625
1776443404681171200,7.966171142578125,-42.61199951171875,8.660064697265625,10.684768676757812
1776443404706187300,7.991187255859375,-42.682586669921875,8.938796997070312,10.319534301757812
1776443404731203000,8.016203125,-42.898468017578125,8.904190063476562,10.29443359375
1776443404756219100,8.04121923828125,-42.420196533203125,8.878463745117188,9.641448974609375
1776443404781235200,8.066235107421875,-43.29443359375,9.189056396484375,9.025802612304688
1776443404806250000,8.09125,-42.788604736328125,9.365234375,8.717193603515625
1776443404831266000,8.11626611328125,-43.216705322265625,9.811203002929688,9.159835815429688
1776443404856282000,8.1412822265625,-42.882415771484375,9.35174560546875,10.049728393554688
1776443404881298200,8.166298095703125,-42.482635498046875,9.044570922851562,10.72271728515625
1776443404906314200,8.191314208984375,-43.03094482421875,8.735458374023438,11.32196044921875
1776443404931330300,8.216330322265625,-42.78564453125,8.474411010742188,11.845108032226562
1776443404956345000,8.241344970703125,-42.861236572265625,7.7594146728515625,12.333053588867188
1776443404981361200,8.266361083984375,-43.02752685546875,7.40740966796875,11.954055786132812
1776443405006377200,8.291377197265625,-43.192657470703125,6.80987548828125,12.290557861328125
1776443405031393300,8.316393310546875,-43.3453369140625,6.4066925048828125,11.7657470703125
1776443405056408600,8.34140869140625,-43.232177734375,5.8832550048828125,11.972183227539062
1776443405081424600,8.366424560546875,-43.1409912109375,5.758514404296875,11.883407592773438
1776443405106440700,8.391440673828125,-43.658538818359375,4.979583740234375,12.371505737304688
1776443405131455700,8.416455810546875,-43.81182861328125,4.9113006591796875,12.374847412109375
1776443405156471800,8.441471923828125,-43.5760498046875,4.37786865234375,12.6209716796875
1776443405181487900,8.46648779296875,-43.142730712890625,4.499664306640625,12.272964477539062
1776443405206503700,8.491503662109375,-43.073822021484375,4.6054534912109375,11.561050415039062
1776443405231519700,8.516519775390625,-43.06927490234375,4.48809814453125,11.713455200195312
1776443405256535800,8.541535888671875,-43.4195556640625,4.063568115234375,11.7559814453125
1776443405281551600,8.566551513671875,-43.571075439453125,3.5899810791015625,12.178787231445312
1776443405306566700,8.591566650390625,-43.74920654296875,2.7048492431640625,12.716781616210938
1776443405331582700,8.616582763671875,-43.79815673828125,2.13397216796875,12.884613037109375
1776443405356598500,8.6415986328125,-43.52020263671875,1.0640411376953125,13.466598510742188
1776443405381614600,8.666614501953125,-43.45947265625,0.493072509765625,13.67352294921875
1776443405406630700,8.691630615234375,-43.323974609375,-0.523101806640625,13.52008056640625
1776443405431646500,8.716646484375,-43.15936279296875,-0.93701171875,13.6337890625
1776443405456661800,8.741661865234375,-43.48980712890625,-1.608673095703125,13.724609375
1776443405481677800,8.766677734375,-43.267578125,-1.9296875,13.654632568359375
1776443405506693600,8.791693603515625,-43.27264404296875,-2.41259765625,13.6907958984375
1776443405531709700,8.816709716796876,-43.4091796875,-2.762969970703125,14.013427734375
1776443405556725800,8.841725830078126,-43.65545654296875,-3.610382080078125,13.9521484375
1776443405581741800,8.866741943359376,-43.39349365234375,-3.672454833984375,13.906173706054688
1776443405606757600,8.891757568359376,-43.348419189453125,-3.98626708984375,13.4093017578125
1776443405631772700,8.916772705078126,-43.89752197265625,-3.5457916259765625,13.166458129882812
1776443405656788500,8.94178857421875,-43.59075927734375,-3.537841796875,12.122955322265625
1776443405681804500,8.966804443359376,-43.672454833984375,-3.295379638671875,11.849594116210938
1776443405706820600,8.991820556640626,-44.09912109375,-3.3033599853515625,11.058258056640625
1776443405731836700,9.016836669921876,-44.070068359375,-3.3959503173828125,10.44500732421875
1776443405756852700,9.041852783203124,-44.155181884765625,-2.8641815185546875,10.1136474609375
1776443405781868800,9.066868896484374,-44.078125,-3.14727783203125,9.946212768554688
1776443405806883600,9.091883544921876,-44.724945068359375,-3.6849517822265625,10.07763671875
1776443405831899600,9.116899658203126,-44.505218505859375,-3.9333343505859375,10.460342407226562
1776443405856915700,9.141915771484374,-44.3328857421875,-4.41644287109375,10.817245483398438
1776443405881931800,9.166931884765624,-43.52154541015625,-5.048431396484375,11.1629638671875
1776443405906947600,9.191947509765624,-43.7669677734375,-5.5955657958984375,11.2437744140625
1776443405931963600,9.216963623046874,-43.866119384765625,-5.768798828125,11.083694458007812
1776443405956979700,9.241979736328124,-43.979461669921875,-5.8553466796875,10.785202026367188
1776443405981994800,9.266994873046874,-44.16387939453125,-5.5836639404296875,10.616867065429688
1776443406007010800,9.2920107421875,-44.065185546875,-5.740020751953125,10.31903076171875
1776443406032027000,9.31702685546875,-44.10858154296875,-5.2773895263671875,10.41357421875
1776443406057043500,9.34204345703125,-43.9937744140625,-5.5646514892578125,10.41326904296875
1776443406082059500,9.3670595703125,-43.85052490234375,-5.6441497802734375,10.479217529296875
1776443406107075600,9.39207568359375,-43.888763427734375,-5.9887237548828125,10.568588256835938
1776443406132091600,9.417091552734375,-43.863189697265625,-5.88787841796875,10.508499145507812
1776443406157106700,9.442106689453125,-44.01031494140625,-5.8084564208984375,10.382537841796875
1776443406182122800,9.467122802734375,-43.916351318359375,-5.6952972412109375,10.730056762695312
1776443406207138600,9.492138671875,-43.971954345703125,-5.611785888671875,10.82110595703125
1776443406232154600,9.517154541015625,-44.01422119140625,-5.6025543212890625,10.4927978515625
1776443406257170700,9.542170654296875,-43.885406494140625,-5.5865478515625,10.108688354492188
1776443406282186800,9.567186767578125,-43.995819091796875,-5.6208648681640625,9.972442626953125
1776443406307202600,9.59220263671875,-43.99163818359375,-5.7097015380859375,9.409866333007812
1776443406332217600,9.617217529296875,-43.69976806640625,-5.9876251220703125,9.048858642578125
1776443406357233700,9.642233642578125,-43.869354248046875,-6.4738006591796875,8.743255615234375
1776443406382249500,9.66724951171875,-43.83941650390625,-6.76141357421875,8.107315063476562
1776443406407265500,9.692265625,-44.259674072265625,-7.2159271240234375,7.938018798828125
1776443406432281900,9.71728173828125,-43.916595458984375,-8.391571044921875,7.4348907470703125
1776443406457297700,9.742297607421875,-43.543914794921875,-9.07061767578125,7.1822967529296875
1776443406482313700,9.767313720703125,-44.06378173828125,-9.780853271484375,7.23297119140625
1776443406507328800,9.792328857421875,-44.140228271484375,-10.28369140625,6.694091796875
1776443406532344600,9.817344482421875,-44.28436279296875,-11.335906982421875,6.5656890869140625
1776443406557360600,9.842360595703125,-43.74365234375,-11.340423583984375,5.89813232421875
1776443406582376700,9.867376708984375,-43.755706787109375,-11.783203125,5.6600799560546875
1776443406607392500,9.892392578125,-44.13232421875,-12.44622802734375,5.5323028564453125
1776443406632408600,9.91740869140625,-43.962371826171875,-12.587081909179688,5.2728424072265625
1776443406657424600,9.942424560546876,-43.883209228515625,-13.034271240234375,5.1096343994140625
1776443406682439700,9.967439697265625,-43.976959228515625,-12.917755126953125,5.0777587890625
1776443406707455700,9.992455810546875,-43.65655517578125,-13.261886596679688,5.0308074951171875
1776443406732471800,10.017471923828126,-44.2109375,-13.5892333984375,4.8577117919921875
1776443406757487600,10.042487548828126,-44.089752197265625,-13.218292236328125,4.6021728515625
1776443406782503700,10.067503662109376,-43.952423095703125,-13.6890869140625,4.80865478515625
1776443406807519700,10.092519775390626,-44.0291748046875,-13.625686645507812,4.216156005859375
1776443406832535800,10.117535888671876,-43.8897705078125,-13.70001220703125,3.9591827392578125
1776443406857550600,10.142550537109376,-44.03662109375,-13.6983642578125,3.697113037109375
1776443406882566700,10.167566650390626,-43.5648193359375,-13.803207397460938,3.4108734130859375
1776443406907582700,10.192582763671876,-43.551605224609375,-13.9583740234375,3.3066864013671875
1776443406932598500,10.2175986328125,-43.409515380859375,-14.154525756835938,3.3292083740234375
1776443406957614600,10.242614501953126,-43.302032470703125,-14.27410888671875,2.878387451171875
1776443406982630700,10.267630615234374,-43.246551513671875,-14.310989379882812,2.7930450439453125
1776443407007646500,10.292646484375,-43.33209228515625,-14.126388549804688,2.2321014404296875
1776443407032662500,10.31766259765625,-43.02593994140625,-14.281707763671875,1.3502960205078125
1776443407057677300,10.34267724609375,-43.167816162109375,-14.5029296875,0.998382568359375
1776443407082693400,10.367693359375,-43.1427001953125,-14.4229736328125,0.209747314453125
1776443407107709400,10.39270947265625,-43.100341796875,-14.50726318359375,-0.827850341796875
1776443407132725200,10.417725341796874,-43.48834228515625,-15.321136474609375,-1.9322357177734375
1776443407157741300,10.4427412109375,-43.178955078125,-15.423141479492188,-2.9679412841796875
1776443407182757400,10.46775732421875,-42.8101806640625,-15.706649780273438,-3.89154052734375
1776443407207773200,10.492773193359374,-42.790283203125,-16.140731811523438,-4.47650146484375
1776443407232788200,10.517788330078124,-42.074798583984375,-17.13616943359375,-5.048858642578125
1776443407257804300,10.54280419921875,-42.002044677734375,-17.389892578125,-5.3185882568359375
1776443407282820400,10.5678203125,-41.94061279296875,-17.736862182617188,-6.280548095703125
1776443407307836400,10.59283642578125,-41.344085693359375,-17.985214233398438,-6.9800872802734375
1776443407332852500,10.6178525390625,-40.535125732421875,-18.439163208007812,-8.264877319335938
1776443407357868500,10.64286865234375,-40.789031982421875,-18.799118041992188,-9.050857543945312
1776443407382884400,10.66788427734375,-40.453826904296875,-18.8194580078125,-10.0172119140625
1776443407407899400,10.6928994140625,-40.312835693359375,-18.832138061523438,-10.8924560546875
1776443407432915200,10.717915283203125,-40.54327392578125,-18.26141357421875,-12.075225830078125
1776443407457931300,10.74293115234375,-40.908294677734375,-18.149856567382812,-12.646408081054688
1776443407482947300,10.767947265625,-40.244720458984375,-17.78961181640625,-12.804443359375
1776443407507963400,10.79296337890625,-40.63458251953125,-17.956512451171875,-13.036895751953125
1776443407532979200,10.817979248046875,-40.363311767578125,-17.300872802734375,-13.173309326171875
1776443407557995300,10.842995361328125,-40.28521728515625,-17.12042236328125,-13.256362915039062
1776443407583011300,10.86801123046875,-40.773284912109375,-16.470840454101562,-13.62005615234375
1776443407608026400,10.8930263671875,-40.748748779296875,-16.165176391601562,-13.61297607421875
1776443407633042400,10.91804248046875,-40.51165771484375,-15.546157836914062,-14.344345092773438
1776443407658058500,10.94305859375,-40.69976806640625,-15.317657470703125,-14.8563232421875
1776443407683074300,10.96807421875,-40.50677490234375,-15.290298461914062,-15.423873901367188
1776443407708090400,10.99309033203125,-40.253265380859375,-15.000503540039062,-16.175430297851562
1776443407733106400,11.0181064453125,-40.08001708984375,-14.852554321289062,-16.596435546875
1776443407758122200,11.043122314453125,-40.05633544921875,-14.65728759765625,-16.675262451171875
1776443407783137300,11.06813720703125,-40.106597900390625,-14.468887329101562,-16.991439819335938
1776443407808153300,11.0931533203125,-40.574188232421875,-14.140090942382812,-16.872650146484375
1776443407833169200,11.118169189453125,-40.03216552734375,-13.736495971679688,-16.567291259765625
1776443407858185200,11.143185302734375,-40.77496337890625,-13.53875732421875,-16.619308471679688
1776443407883201300,11.168201171875,-41.047882080078125,-13.284561157226562,-16.874176025390625
1776443407908217300,11.19321728515625,-40.598175048828125,-12.7261962890625,-17.306838989257812
1776443407933233200,11.218233154296875,-40.1954345703125,-12.42193603515625,-18.172286987304688
1776443407958249200,11.243249267578125,-39.959442138671875,-11.940322875976562,-18.587890625
1776443407983264300,11.26826416015625,-39.84210205078125,-11.646652221679688,-19.3868408203125
1776443408008280300,11.2932802734375,-39.847991943359375,-11.4229736328125,-19.550704956054688
1776443408033296400,11.31829638671875,-39.5560302734375,-11.279266357421875,-19.796768188476562
1776443408058312400,11.3433125,-39.619293212890625,-11.518951416015625,-19.852432250976562
1776443408083328300,11.368328369140626,-39.6500244140625,-11.630355834960938,-19.566482543945312
1776443408108344300,11.39334423828125,-39.506988525390625,-11.874969482421875,-19.735946655273438
1776443408133360400,11.4183603515625,-39.41802978515625,-12.323089599609375,-19.757797241210938
1776443408158376200,11.443376220703126,-38.710174560546875,-12.139678955078125,-19.6640625
1776443408183391200,11.46839111328125,-38.84991455078125,-12.593109130859375,-20.111312866210938
1776443408208407300,11.4934072265625,-39.20770263671875,-12.60198974609375,-20.17633056640625
1776443408233423400,11.51842333984375,-39.04852294921875,-12.275863647460938,-20.74560546875
1776443408258439400,11.543439453125,-39.018280029296875,-12.210601806640625,-20.888946533203125
1776443408283455500,11.56845556640625,-38.736602783203125,-12.019378662109375,-21.174423217773438
1776443408308471300,11.59347119140625,-38.470550537109375,-11.618377685546875,-21.793472290039062
1776443408333487400,11.6184873046875,-38.362548828125,-11.436614990234375,-22.006942749023438
1776443408358503400,11.64350341796875,-38.3358154296875,-11.331863403320312,-22.070755004882812
1776443408383518200,11.668518310546874,-38.159027099609375,-10.892242431640625,-22.424102783203125
1776443408408534300,11.6935341796875,-38.19976806640625,-10.3328857421875,-22.934188842773438
1776443408433550300,11.71855029296875,-38.528350830078125,-9.739822387695312,-23.326766967773438
1776443408458566400,11.74356640625,-38.885040283203125,-8.437515258789062,-23.576904296875
1776443408483582200,11.768582275390624,-38.322540283203125,-7.66107177734375,-23.828643798828125
1776443408508598300,11.793598388671874,-38.408111572265625,-6.97393798828125,-23.834609985351562
1776443408533614300,11.8186142578125,-38.611724853515625,-6.1499481201171875,-23.858734130859375
1776443408558630100,11.843630126953125,-38.92913818359375,-4.9957122802734375,-23.339736938476562
1776443408583645400,11.8686455078125,-38.645538330078125,-4.1829376220703125,-23.342559814453125
1776443408608661500,11.89366162109375,-38.612030029296875,-2.7593994140625,-23.766586303710938
1776443408633677300,11.91867724609375,-38.69976806640625,-2.0414276123046875,-24.32659912109375
1776443408658693400,11.943693359375,-38.00640869140625,-1.0943450927734375,-24.885635375976562
1776443408683709400,11.96870947265625,-37.757476806640625,-0.613311767578125,-25.518203735351562
1776443408708725200,11.993725341796875,-37.5677490234375,0.15277099609375,-25.629058837890625
1776443408733741300,12.0187412109375,-37.73345947265625,0.766265869140625,-25.875442504882812
1776443408758757400,12.04375732421875,-37.41400146484375,1.7175445556640625,-25.800994873046875
1776443408783772200,12.068772216796875,-37.302703857421875,2.2614288330078125,-25.96417236328125
1776443408808788200,12.093788330078125,-37.399505615234375,2.417633056640625,-25.832351684570312
1776443408833804300,12.11880419921875,-37.520477294921875,2.8315582275390625,-25.380416870117188
1776443408858820000,12.143820068359375,-38.424560546875,2.90008544921875,-24.799774169921875
1776443408883836200,12.168836181640625,-38.296905517578125,2.7870330810546875,-24.5494384765625
1776443408908852200,12.193852294921875,-38.668182373046875,2.6087799072265625,-24.51104736328125
1776443408933868300,12.218868408203125,-38.249053955078125,2.8206024169921875,-24.774826049804688
1776443408958884400,12.24388427734375,-38.0279541015625,3.4828948974609375,-24.51690673828125
1776443408983899400,12.2688994140625,-38.066680908203125,3.7053680419921875,-24.70123291015625
1776443409008915500,12.29391552734375,-37.6373291015625,4.3295135498046875,-24.281448364257812
1776443409033931300,12.31893115234375,-37.485382080078125,5.0297088623046875,-24.284835815429688
1776443409058946800,12.34394677734375,-37.67230224609375,5.1952056884765625,-24.398651123046875
1776443409083962600,12.368962646484375,-37.60137939453125,5.3481292724609375,-24.531631469726562
1776443409108978700,12.393978759765625,-37.89178466796875,5.7242889404296875,-24.593612670898438
1776443409133994800,12.418994873046875,-37.606597900390625,5.6819000244140625,-24.412872314453125
1776443409159010800,12.4440107421875,-38.369049072265625,5.7135009765625,-24.242706298828125
1776443409184025900,12.46902587890625,-38.21441650390625,6.2335205078125,-23.964614868164062
1776443409209042000,12.4940419921875,-38.1923828125,6.42626953125,-23.878875732421875
1776443409234057700,12.5190576171875,-37.958770751953125,6.4255218505859375,-23.815460205078125
1776443409259073800,12.54407373046875,-38.554046630859375,6.6239166259765625,-24.13165283203125
1776443409284089900,12.56908984375,-38.345458984375,6.6357879638671875,-23.828048706054688
1776443409309106000,12.59410595703125,-38.20574951171875,6.698150634765625,-23.459152221679688
1776443409334121700,12.619121826171876,-38.139984130859375,6.51055908203125,-23.65667724609375
1776443409359137800,12.6441376953125,-37.86602783203125,6.7124176025390625,-23.60980224609375
1776443409384152800,12.66915283203125,-38.02239990234375,6.4149932861328125,-23.890518188476562
1776443409409168600,12.694168701171876,-38.03515625,6.962066650390625,-23.826950073242188
1776443409434184700,12.719184814453126,-37.358062744140625,7.04718017578125,-24.280593872070312
1776443409459200800,12.74420068359375,-37.394317626953125,7.526031494140625,-24.9720458984375
1776443409484216600,12.769216552734376,-37.03271484375,7.6920013427734375,-25.450973510742188
1776443409509232600,12.794232666015626,-36.699127197265625,7.9828338623046875,-25.89068603515625
1776443409534248700,12.819248779296874,-36.247406005859375,8.348175048828125,-25.878067016601562
1776443409559264800,12.8442646484375,-36.55328369140625,8.846405029296875,-25.736526489257812
1776443409584280800,12.86928076171875,-36.031280517578125,9.28582763671875,-25.085769653320312
1776443409609296000,12.8942958984375,-36.941070556640625,9.247024536132812,-24.822189331054688
1776443409634311700,12.919311767578124,-37.036651611328125,9.234756469726562,-24.34185791015625
1776443409659327700,12.94432763671875,-37.521881103515625,9.156539916992188,-23.690155029296875
1776443409684343800,12.96934375,-37.44317626953125,9.09576416015625,-23.384689331054688
1776443409709359900,12.99435986328125,-38.171966552734375,8.924362182617188,-22.763778686523438
1776443409734375700,13.019375732421874,-37.784454345703125,9.006591796875,-22.846343994140625
1776443409759391700,13.044391845703124,-38.328216552734375,8.829925537109375,-22.295654296875
1776443409784407800,13.06940771484375,-38.318939208984375,8.467880249023438,-22.094833374023438
1776443409809422800,13.0944228515625,-38.76654052734375,8.403167724609375,-21.669082641601562
1776443409834439000,13.11943896484375,-38.783355712890625,8.262313842773438,-21.505111694335938
1776443409859455000,13.144455078125,-39.030975341796875,8.2867431640625,-21.051544189453125
1776443409884470800,13.169470703125,-39.554351806640625,8.162628173828125,-21.1959228515625
1776443409909486800,13.19448681640625,-39.77020263671875,8.095413208007812,-20.86492919921875
1776443409934503000,13.2195029296875,-39.661163330078125,7.8443603515625,-20.639938354492188
1776443409959518700,13.244518798828125,-40.373870849609375,7.291748046875,-20.629562377929688
1776443409984534800,13.26953466796875,-39.68695068359375,7.027130126953125,-20.942184448242188
1776443410009550800,13.29455078125,-39.8780517578125,6.5914306640625,-20.589309692382812
1776443410034565600,13.319565673828125,-39.19183349609375,6.581085205078125,-20.672760009765625
1776443410059582700,13.344582763671875,-39.76025390625,6.0034942626953125,-20.721176147460938
1776443410084598500,13.3695986328125,-39.168060302734375,5.8168182373046875,-20.693435668945312
1776443410109614600,13.394614501953125,-39.22015380859375,5.6904754638671875,-21.038497924804688
1776443410134630700,13.419630615234375,-39.176513671875,5.51446533203125,-21.073516845703125
1776443410159646700,13.444646728515625,-39.425140380859375,5.472930908203125,-21.324081420898438
1776443410184662500,13.46966259765625,-39.32476806640625,5.423248291015625,-21.446929931640625
1776443410209678600,13.4946787109375,-39.385589599609375,6.2554931640625,-21.296127319335938
1776443410234694700,13.519694580078125,-39.536468505859375,6.466888427734375,-20.980270385742188
1776443410259709700,13.544709716796875,-39.8994140625,7.072357177734375,-20.58599853515625
1776443410284725800,13.569725830078125,-39.900054931640625,7.6501007080078125,-20.38433837890625
1776443410309741800,13.594741943359375,-39.882110595703125,8.3939208984375,-19.846145629882812
1776443410334757600,13.619757568359375,-40.063385009765625,9.720443725585938,-18.98577880859375
1776443410359773700,13.644773681640626,-39.832672119140625,10.141815185546875,-18.080123901367188
1776443410384789800,13.669789794921876,-40.40740966796875,11.1705322265625,-17.042831420898438
1776443410409805600,13.6948056640625,-40.522491455078125,11.715866088867188,-16.133056640625
1776443410434821600,13.719821533203126,-40.73931884765625,12.481399536132812,-14.705810546875
1776443410459837700,13.744837646484376,-40.878448486328125,12.821807861328125,-13.911331176757812
1776443410484852500,13.7698525390625,-41.139007568359375,13.238418579101562,-13.232620239257812
1776443410509868500,13.79486865234375,-41.128875732421875,13.694488525390625,-12.55316162109375
1776443410534884600,13.819884521484376,-40.31341552734375,14.153854370117188,-12.11053466796875
1776443410559900700,13.844900634765626,-40.63134765625,14.455474853515625,-11.951507568359375
1776443410584916500,13.86991650390625,-40.934112548828125,14.778884887695312,-12.158187866210938
1776443410609932500,13.8949326171875,-40.556976318359375,14.653045654296875,-12.033233642578125
1776443410634948600,13.919948486328124,-40.61260986328125,14.66748046875,-11.959030151367188
1776443410659964700,13.944964599609374,-40.8438720703125,14.543472290039062,-11.9918212890625
1776443410684980700,13.969980712890624,-40.44940185546875,14.805084228515625,-11.53802490234375
1776443410709995800,13.994995849609374,-40.51458740234375,14.63958740234375,-11.0137939453125
1776443410735011600,14.020011474609374,-40.91021728515625,14.752899169921875,-10.232650756835938
1776443410760027600,14.045027587890624,-41.05169677734375,14.679306030273438,-9.55877685546875
1776443410785043700,14.070043701171874,-41.297515869140625,14.799362182617188,-9.095352172851562
1776443410810059500,14.0950595703125,-41.60992431640625,14.519668579101562,-8.73455810546875
1776443410835075600,14.12007568359375,-41.884490966796875,14.563232421875,-8.127487182617188
1776443410860091600,14.145091552734375,-42.113006591796875,14.331161499023438,-8.204421997070312
1776443410885107700,14.170107666015625,-41.803924560546875,14.580841064453125,-7.636932373046875
1776443410910123500,14.19512353515625,-41.425567626953125,14.792694091796875,-7.900634765625
1776443410935138800,14.220138916015625,-41.41656494140625,14.580886840820312,-7.641998291015625
1776443410960154600,14.245154541015625,-41.536224365234375,14.496658325195312,-7.3623809814453125
1776443410985170700,14.270170654296875,-41.177215576171875,14.897415161132812,-6.614471435546875
1776443411010186800,14.295186767578125,-41.740081787109375,15.045654296875,-6.02972412109375
1776443411035202800,14.320202880859375,-41.5816650390625,15.791030883789062,-4.3963775634765625
1776443411060218400,14.34521826171875,-41.8853759765625,16.000137329101562,-3.4809722900390625
1776443411085234400,14.370234375,-41.7471923828125,16.380142211914062,-2.03192138671875
1776443411110250500,14.39525048828125,-41.25787353515625,16.676849365234375,-1.23284912109375
1776443411135266600,14.4202666015625,-41.19036865234375,16.85784912109375,-0.179931640625
1776443411160282400,14.445282470703125,-41.379119873046875,17.1544189453125,0.60797119140625
1776443411185297400,14.47029736328125,-41.38079833984375,17.011093139648438,0.7381439208984375
1776443411210313500,14.4953134765625,-41.214324951171875,16.95611572265625,1.4133148193359375
1776443411235329300,14.520329345703125,-41.274688720703125,16.661712646484375,1.17767333984375
1776443411260345300,14.545345458984375,-41.9671630859375,16.961761474609375,1.1796112060546875
1776443411285361400,14.570361328125,-41.6544189453125,16.713668823242188,0.7649383544921875
1776443411310377500,14.59537744140625,-41.606048583984375,16.68133544921875,0.8184814453125
1776443411335393500,14.6203935546875,-41.42071533203125,16.5955810546875,0.374755859375
1776443411360409600,14.64540966796875,-41.737335205078125,16.287017822265625,0.5181732177734375
1776443411385425400,14.67042529296875,-41.387664794921875,16.236282348632812,0.82684326171875
1776443411410440400,14.6954404296875,-42.0274658203125,15.383743286132812,1.1281890869140625
1776443411435456500,14.72045654296875,-42.1229248046875,15.049026489257812,1.9427642822265625
1776443411460472300,14.745472412109375,-42.350494384765625,14.641647338867188,2.47113037109375
1776443411485488400,14.77048828125,-42.408294677734375,14.203262329101562,2.61907958984375
1776443411510504400,14.79550439453125,-42.622314453125,13.796844482421875,2.4947052001953125
1776443411535520500,14.8205205078125,-42.2264404296875,13.77252197265625,2.6262969970703125
1776443411560536300,14.845536376953126,-42.624267578125,13.778854370117188,2.5097198486328125
1776443411585552400,14.870552490234376,-42.3238525390625,13.7791748046875,2.0874176025390625
1776443411610568400,14.895568359375,-42.399871826171875,13.580123901367188,2.31854248046875
1776443411635583500,14.92058349609375,-42.534271240234375,13.366195678710938,2.39794921875
1776443411660599600,14.945599609375,-42.709869384765625,13.0592041015625,2.509674072265625
1776443411685615600,14.97061572265625,-43.071807861328125,12.120376586914062,3.4643707275390625
1776443411710631400,14.99563134765625,-42.856719970703125,11.79888916015625,4.251617431640625
1776443411735647500,15.0206474609375,-43.1644287109375,11.036087036132812,5.2506256103515625
1776443411760663600,15.04566357421875,-43.104156494140625,10.308380126953125,6.027740478515625
1776443411785679400,15.070679443359374,-43.328704833984375,9.092025756835938,7.3496246337890625
1776443411810695400,15.0956953125,-43.294464111328125,8.2120361328125,8.135498046875
1776443411835711500,15.12071142578125,-43.3419189453125,7.3223724365234375,9.374099731445312
1776443411860727600,15.1457275390625,-43.199249267578125,6.15789794921875,10.278366088867188
1776443411885742300,15.170742431640624,-42.832916259765625,4.7301788330078125,11.11468505859375
1776443411910758400,15.19575830078125,-42.681732177734375,3.9281158447265625,11.770492553710938
1776443411935774200,15.220774169921874,-42.71124267578125,2.7916412353515625,12.263412475585938
1776443411960790300,15.245790283203124,-43.049896240234375,2.503814697265625,12.683624267578125
1776443411985806600,15.270806640625,-42.68402099609375,1.7269744873046875,12.753387451171875
1776443412010822700,15.29582275390625,-42.86041259765625,1.441070556640625,12.632293701171875
1776443412035838500,15.32083837890625,-42.876983642578125,1.3907928466796875,12.9658203125
1776443412060854300,15.345854248046875,-42.959442138671875,1.37646484375,12.737319946289062
1776443412085870300,15.370870361328125,-42.6331787109375,1.17462158203125,12.62799072265625
1776443412110885000,15.395885009765625,-42.422698974609375,1.3270263671875,12.341018676757812
1776443412135901200,15.420901123046875,-43.071624755859375,1.329193115234375,12.438339233398438
1776443412160917000,15.4459169921875,-43.197265625,1.5198822021484375,12.245071411132812
1776443412185933000,15.47093310546875,-43.276824951171875,1.5053863525390625,12.209487915039062
1776443412210949000,15.49594921875,-43.164215087890625,1.2861480712890625,12.399032592773438
1776443412235965200,15.520965087890625,-43.066314697265625,0.7421417236328125,12.37060546875
1776443412260981000,15.54598095703125,-43.0135498046875,0.2516326904296875,12.589370727539062
1776443412285997000,15.5709970703125,-42.94000244140625,-0.5066070556640625,13.347000122070312
1776443412311013000,15.59601318359375,-42.7452392578125,-1.0716705322265625,13.996231079101562
1776443412336029000,15.62102880859375,-42.188812255859375,-1.70184326171875,14.649932861328125
1776443412361044200,15.646044189453125,-42.508758544921875,-2.3551025390625,14.94384765625
1776443412386060300,15.671060302734375,-42.3321533203125,-2.734619140625,15.466384887695312
1776443412411076000,15.696076171875,-41.939117431640625,-4.52880859375,15.626022338867188
1776443412436092200,15.721092041015625,-41.4334716796875,-5.337615966796875,15.7708740234375
1776443412461108200,15.746108154296875,-41.45050048828125,-6.6220245361328125,16.028274536132812
1776443412486124000,15.7711240234375,-41.30487060546875,-7.30072021484375,16.4344482421875
1776443412511140000,15.79614013671875,-40.72271728515625,-8.19061279296875,16.704879760742188
1776443412536156200,15.82115625,-40.236785888671875,-8.837936401367188,17.210540771484375
1776443412561172200,15.846172119140626,-40.41839599609375,-9.758438110351562,17.791748046875
1776443412586188000,15.87118798828125,-40.25018310546875,-9.911224365234375,17.869186401367188
1776443412611203000,15.896203125,-40.38336181640625,-10.33721923828125,17.438720703125
1776443412636219100,15.92121923828125,-40.492645263671875,-10.835861206054688,17.034500122070312
1776443412661235200,15.946235107421876,-40.676788330078125,-11.144699096679688,17.082717895507812
1776443412686251300,15.971251220703126,-40.069427490234375,-11.73016357421875,17.02606201171875
1776443412711267300,15.996267333984376,-39.832366943359375,-12.231063842773438,17.327651977539062
1776443412736283100,16.021283203125,-39.63031005859375,-12.562728881835938,17.474746704101562
1776443412761299200,16.04629931640625,-39.355804443359375,-12.949188232421875,17.556671142578125
1776443412786315300,16.071315185546876,-39.417144775390625,-13.409713745117188,17.236923217773438
1776443412811331000,16.0963310546875,-39.386260986328125,-13.675613403320312,16.828689575195312
1776443412836347100,16.12134716796875,-39.736236572265625,-13.897109985351562,16.6351318359375
1776443412861362200,16.146362060546874,-39.4068603515625,-13.829879760742188,16.10321044921875
1776443412886378000,16.1713779296875,-40.209014892578125,-13.683563232421875,15.646865844726562
1776443412911394000,16.19639404296875,-40.29876708984375,-13.9840087890625,15.2974853515625
1776443412936410000,16.22141015625,-40.261932373046875,-14.274871826171875,14.909042358398438
1776443412961426200,16.24642626953125,-40.130645751953125,-13.959274291992188,14.320327758789062
1776443412986442000,16.27144189453125,-40.195831298828125,-14.021560668945312,13.99658203125
1776443413011458000,16.2964580078125,-40.377197265625,-13.759262084960938,13.45123291015625
1776443413036474000,16.32147412109375,-40.49761962890625,-13.629196166992188,13.28216552734375
1776443413061490400,16.346490478515626,-40.864288330078125,-13.555618286132812,12.553680419921875
1776443413086506500,16.371506591796877,-40.879852294921875,-13.146270751953125,12.7413330078125
1776443413111521500,16.396521484375,-41.482452392578125,-12.996261596679688,12.094772338867188
1776443413136537600,16.42153759765625,-41.331451416015625,-13.1298828125,11.84197998046875
1776443413161553700,16.4465537109375,-41.779876708984375,-13.3209228515625,11.173309326171875
1776443413186569500,16.471569580078125,-41.4884033203125,-13.38262939453125,11.321578979492188
1776443413211585500,16.49658544921875,-41.30914306640625,-13.994461059570312,10.564804077148438
1776443413236601600,16.5216015625,-41.528656005859375,-14.360275268554688,10.071640014648438
1776443413261617700,16.54661767578125,-41.66058349609375,-15.09686279296875,9.24664306640625
1776443413286633500,16.571633544921873,-41.75146484375,-15.227127075195312,8.809860229492188
1776443413311649500,16.5966494140625,-41.572723388671875,-15.389328002929688,7.9973602294921875
1776443413336665600,16.62166552734375,-42.104400634765625,-15.53009033203125,7.574066162109375
1776443413361680400,16.646680419921875,-42.419952392578125,-15.895538330078125,6.7763824462890625
1776443413386696700,16.67169677734375,-42.14788818359375,-15.922271728515625,6.1816864013671875
1776443413411712800,16.696712646484375,-42.228485107421875,-15.857711791992188,5.5568695068359375
1776443413436728600,16.721728515625,-41.880615234375,-16.383941650390625,5.0785369873046875
1776443413461744600,16.74674462890625,-42.47564697265625,-16.557342529296875,3.9929656982421875
1776443413486760700,16.7717607421875,-42.0438232421875,-16.913543701171875,3.575408935546875
1776443413511776500,16.796776611328124,-42.348541259765625,-17.095550537109375,2.4625701904296875
1776443413536792600,16.82179248046875,-42.01690673828125,-17.31585693359375,2.08935546875
1776443413561808600,16.84680859375,-42.04034423828125,-17.45526123046875,1.339508056640625
1776443413586824700,16.87182470703125,-41.906494140625,-17.792510986328125,0.789886474609375
1776443413611839500,16.896839599609375,-41.531036376953125,-17.392059326171875,0.3879241943359375
1776443413636855600,16.92185546875,-41.78338623046875,-17.599334716796875,0.1969146728515625
1776443413661871600,16.94687158203125,-42.156585693359375,-17.069305419921875,-0.375213623046875
1776443413686887400,16.971887451171874,-42.06927490234375,-16.975006103515625,0.064422607421875
1776443413711903500,16.996903564453124,-42.203765869140625,-16.91357421875,-0.3218841552734375
1776443413736919600,17.02191943359375,-42.30999755859375,-16.493804931640625,-0.327117919921875
1776443413761935400,17.046935302734376,-42.372772216796875,-16.703140258789062,-1.5148773193359375
1776443413786951400,17.071951416015626,-42.31024169921875,-16.748992919921875,-1.833770751953125
1776443413811967500,17.096967529296876,-41.804046630859375,-16.617218017578125,-3.112030029296875
1776443413836983800,17.12198388671875,-42.44573974609375,-16.763397216796875,-3.7686004638671875
1776443413861998600,17.14699853515625,-42.093017578125,-17.059539794921875,-4.7462310791015625
1776443413887014700,17.1720146484375,-41.73968505859375,-17.320785522460938,-5.6825408935546875
1776443413912030500,17.197030517578124,-41.7022705078125,-17.664077758789062,-6.9044036865234375
1776443413937046500,17.222046630859374,-41.063201904296875,-17.675155639648438,-7.1690826416015625
1776443413962062600,17.2470625,-40.86480712890625,-17.5972900390625,-8.33758544921875
1776443413987078700,17.27207861328125,-40.577056884765625,-17.66046142578125,-9.252639770507812
1776443414012094500,17.297094482421876,-40.004180908203125,-17.4990234375,-10.413223266601562
1776443414037110500,17.322110595703126,-40.039947509765625,-17.343185424804688,-11.283782958984375
1776443414062129400,17.34712939453125,-39.887054443359375,-17.205902099609375,-12.574493408203125
1776443414087145200,17.372145263671875,-39.70611572265625,-17.007186889648438,-13.567153930664062
1776443414112161300,17.397161376953125,-39.170501708984375,-16.88067626953125,-14.92462158203125
1776443414137176600,17.422176513671875,-39.276458740234375,-16.375579833984375,-15.683685302734375
1776443414162192400,17.4471923828125,-38.641571044921875,-15.67327880859375,-16.829330444335938
1776443414187208400,17.47220849609375,-38.66058349609375,-15.557418823242188,-17.177001953125
1776443414212224500,17.497224609375,-38.63482666015625,-15.341278076171875,-17.574142456054688
1776443414237240300,17.522240234375,-38.78240966796875,-14.9681396484375,-17.674514770507812
1776443414262256400,17.54725634765625,-38.867645263671875,-14.570892333984375,-17.488052368164062
1776443414287272400,17.5722724609375,-39.11822509765625,-14.084259033203125,-17.49310302734375
1776443414312288300,17.597288330078126,-39.062347412109375,-13.861114501953125,-17.005950927734375
1776443414337304300,17.62230419921875,-39.385650634765625,-13.634490966796875,-17.188583374023438
1776443414362320400,17.6473203125,-39.7579345703125,-13.288482666015625,-16.611114501953125
1776443414387336400,17.67233642578125,-39.9710693359375,-13.128890991210938,-16.557540893554688
1776443414412351500,17.6973515625,-40.420562744140625,-13.318267822265625,-16.347396850585938
1776443414437367600,17.722367431640624,-40.116912841796875,-13.252212524414062,-16.085769653320312
1776443414462383600,17.747383544921874,-40.26141357421875,-13.576446533203125,-15.97930908203125
1776443414487399400,17.7723994140625,-40.0384521484375,-13.490142822265625,-15.960556030273438
1776443414512415500,17.79741552734375,-40.001861572265625,-13.732864379882812,-16.185501098632812
1776443414537431600,17.822431640625,-39.8070068359375,-13.4947509765625,-16.676727294921875
1776443414562447400,17.847447265625,-39.302886962890625,-13.392623901367188,-17.17926025390625
1776443414587463400,17.87246337890625,-39.8096923828125,-13.194259643554688,-17.874114990234375
1776443414612479500,17.8974794921875,-39.85357666015625,-12.879287719726562,-18.862167358398438
1776443414637495600,17.92249560546875,-38.636474609375,-12.132156372070312,-19.340728759765625
1776443414662510300,17.94751025390625,-38.867279052734375,-11.958084106445312,-19.694808959960938
1776443414687526400,17.9725263671875,-38.709564208984375,-12.105484008789062,-19.863739013671875
1776443414712542200,17.997542236328126,-39.062774658203125,-11.7857666015625,-20.029388427734375
1776443414737558300,18.022558349609376,-38.80279541015625,-11.314895629882812,-20.4710693359375
1776443414762574300,18.04757421875,-38.54058837890625,-11.070343017578125,-20.992706298828125
1776443414787590400,18.07259033203125,-38.506011962890625,-10.804702758789062,-20.963424682617188
1776443414812606200,18.097606201171875,-38.390869140625,-10.805084228515625,-21.034042358398438
1776443414837622500,18.12262255859375,-38.11126708984375,-10.7672119140625,-21.740768432617188
1776443414862638600,18.147638671875,-38.089141845703125,-10.315139770507812,-21.84490966796875
1776443414887654400,18.172654296875,-37.936767578125,-10.416412353515625,-22.395828247070312
1776443414912670500,18.19767041015625,-37.588287353515625,-10.155548095703125,-22.954940795898438
1776443414937685500,18.222685546875,-36.9307861328125,-10.01715087890625,-24.166397094726562
1776443414962701300,18.247701416015627,-36.18194580078125,-9.811019897460938,-24.899581909179688
1776443414987717400,18.27271728515625,-35.7178955078125,-9.407745361328125,-26.165863037109375
1776443415012733400,18.2977333984375,-35.3980712890625,-8.49261474609375,-27.088699340820312
1776443415037749200,18.322749267578125,-34.821533203125,-7.2308197021484375,-28.135650634765625
1776443415062761500,18.347761474609374,-34.728271484375,-6.6424407958984375,-28.456298828125
1776443415087777500,18.372777587890624,-33.97991943359375,-6.113433837890625,-29.10504150390625
1776443415112793600,18.397793701171874,-33.72735595703125,-5.5890655517578125,-29.2109375
1776443415137809700,18.4228095703125,-33.6278076171875,-4.710296630859375,-29.295852661132812
1776443415162825500,18.447825439453126,-34.01708984375,-4.237030029296875,-29.479171752929688
1776443415187841500,18.472841552734376,-34.244842529296875,-3.1946868896484375,-29.53656005859375
1776443415212856600,18.497856689453126,-34.619781494140625,-2.7609100341796875,-29.441864013671875
1776443415237872600,18.52287255859375,-34.846893310546875,-1.8481292724609375,-28.975051879882812
1776443415262888700,18.547888671875,-35.617340087890625,-1.14593505859375,-28.389892578125
1776443415287904800,18.57290478515625,-35.72509765625,-1.1108551025390625,-27.7166748046875
1776443415312920600,18.597920654296875,-35.810394287109375,-0.766998291015625,-27.0771484375
1776443415337936600,18.6229365234375,-36.52972412109375,-0.192108154296875,-26.65740966796875
1776443415362952700,18.64795263671875,-36.9818115234375,0.0346527099609375,-26.271453857421875
1776443415387968500,18.672968505859377,-37.01605224609375,0.52252197265625,-25.81976318359375
1776443415412984600,18.697984619140627,-37.039886474609375,1.0727081298828125,-25.1351318359375
1776443415438000600,18.723000732421873,-37.52099609375,1.554473876953125,-25.126373291015625
1776443415463016700,18.7480166015625,-37.65264892578125,2.0450439453125,-24.694061279296875
1776443415488031700,18.77303173828125,-37.192108154296875,2.72686767578125,-24.594619750976562
1776443415513047800,18.7980478515625,-37.12554931640625,3.3270416259765625,-25.232315063476562
1776443415538064000,18.82306396484375,-36.590606689453125,4.3543853759765625,-25.37005615234375
1776443415563079700,18.84807958984375,-36.44207763671875,4.6344757080078125,-25.7781982421875
1776443415588095700,18.873095703125,-36.068328857421875,4.816650390625,-26.257461547851562
1776443415613111800,18.89811181640625,-36.49517822265625,4.8746490478515625,-26.169769287109375
1776443415638127600,18.923127685546874,-36.238037109375,5.071990966796875,-25.898590087890625
1776443415663143700,18.948143798828124,-36.55255126953125,5.2193450927734375,-25.281082153320312
1776443415688159700,18.97315966796875,-36.88067626953125,5.3603515625,-24.8626708984375
1776443415713175600,18.998175537109375,-37.00494384765625,5.4108428955078125,-24.799102783203125
1776443415738191600,19.023191650390626,-37.44073486328125,5.4626922607421875,-24.2750244140625
1776443415763206700,19.04820654296875,-38.274871826171875,5.5190582275390625,-24.074111938476562
1776443415788222500,19.073222412109374,-37.94573974609375,5.8860321044921875,-23.303665161132812
1776443415813238500,19.098238525390624,-37.827911376953125,6.561859130859375,-23.040267944335938
1776443415838254600,19.123254638671874,-38.281005859375,7.118927001953125,-22.566680908203125
1776443415863270700,19.148270751953124,-37.90472412109375,7.6921844482421875,-22.748565673828125
1776443415888286500,19.173286376953126,-37.47613525390625,8.93096923828125,-23.045303344726562
1776443415913302800,19.198302734375,-37.33331298828125,9.601806640625,-22.84454345703125
1776443415938318800,19.22331884765625,-37.071624755859375,10.3485107421875,-22.859100341796875
1776443415963334700,19.248334716796876,-37.2152099609375,10.926254272460938,-22.427734375
1776443415988350700,19.273350830078126,-37.39276123046875,11.487869262695312,-21.435562133789062
1776443416013366800,19.29836669921875,-37.59124755859375,11.964508056640625,-20.548828125
1776443416038382800,19.3233828125,-38.53863525390625,12.251235961914062,-19.265579223632812
1776443416063398700,19.348398681640624,-38.737396240234375,12.465347290039062,-18.729110717773438
1776443416088414500,19.37341455078125,-39.1124267578125,12.904815673828125,-18.177719116210938
1776443416113430500,19.398430419921876,-38.739501953125,13.250015258789062,-18.081497192382812
1776443416138446600,19.423446533203126,-38.634002685546875,13.541366577148438,-18.072036743164062
1776443416163462700,19.448462646484376,-38.7763671875,14.033203125,-17.925613403320312
1776443416188478500,19.473478515625,-38.65521240234375,14.176345825195312,-17.623550415039062
1776443416213494500,19.49849462890625,-38.8834228515625,14.491790771484375,-17.001846313476562
1776443416238510600,19.523510498046875,-39.208526611328125,14.697982788085938,-16.442642211914062
1776443416263526400,19.5485263671875,-39.173095703125,14.617691040039062,-15.572265625
1776443416288542500,19.57354248046875,-39.236663818359375,14.491485595703125,-14.7578125
1776443416313558500,19.59855859375,-39.229339599609375,14.683135986328125,-14.692657470703125
1776443416338574300,19.62357421875,-39.645477294921875,15.204437255859375,-14.12823486328125
1776443416363589600,19.648589599609377,-39.63983154296875,15.1339111328125,-13.947998046875
1776443416388605700,19.673605712890627,-39.8057861328125,15.55352783203125,-13.83282470703125
1776443416413621500,19.69862158203125,-39.33209228515625,15.657241821289062,-13.556350708007812
1776443416438637600,19.723637451171875,-39.273223876953125,16.484954833984375,-13.312057495117188
1776443416463653600,19.748653564453125,-39.378875732421875,17.072677612304688,-12.631317138671875
1776443416488669700,19.773669677734375,-39.35546875,17.58026123046875,-12.044998168945312
1776443416513685500,19.798685546875,-39.176544189453125,18.195846557617188,-10.94476318359375
1776443416538701600,19.82370166015625,-38.8919677734375,18.731170654296875,-10.480117797851562
1776443416563717600,19.848717529296874,-39.455108642578125,19.174240112304688,-9.29754638671875
1776443416588733400,19.8737333984375,-38.828094482421875,19.3828125,-8.901443481445312
1776443416613749500,19.89874951171875,-38.652984619140625,19.803298950195312,-8.443817138671875
1776443416638765600,19.923765625,-38.429718017578125,19.829910278320312,-8.33074951171875
1776443416663781600,19.94878173828125,-38.8763427734375,20.282089233398438,-8.20806884765625
1776443416688796400,19.97379638671875,-38.567779541015625,20.308868408203125,-8.505142211914062
1776443416713812500,19.9988125,-38.500823974609375,19.983840942382812,-8.354965209960938
1776443416738828500,20.02382861328125,-38.96484375,19.858016967773438,-8.260955810546875
1776443416763844600,20.0488447265625,-39.41632080078125,19.629165649414062,-7.403350830078125
1776443416788860700,20.073860595703124,-39.54046630859375,19.301742553710938,-6.7545623779296875
1776443416813876700,20.098876708984374,-39.872833251953125,19.109054565429688,-6.296630859375
1776443416838892500,20.123892578125,-39.928802490234375,18.57928466796875,-5.7826080322265625
1776443416863908600,20.14890869140625,-40.5906982421875,18.42620849609375,-5.4417724609375
1776443416888924700,20.173924560546876,-40.31744384765625,18.160110473632812,-4.931396484375
1776443416913940500,20.1989404296875,-40.421112060546875,18.012008666992188,-3.9606781005859375
1776443416938956500,20.22395654296875,-40.232177734375,17.946701049804688,-3.318206787109375
1776443416963972600,20.24897265625,-40.63153076171875,17.42962646484375,-2.29376220703125
1776443416988988700,20.27398876953125,-40.716033935546875,17.440414428710938,-1.5687713623046875
1776443417014003500,20.29900341796875,-41.051361083984375,17.146896362304688,-0.3520050048828125
1776443417039019500,20.32401953125,-41.2464599609375,16.601287841796875,0.02947998046875
1776443417064035600,20.34903564453125,-41.075408935546875,16.13189697265625,0.7137298583984375
1776443417089051600,20.3740517578125,-41.2021484375,15.88800048828125,1.2463531494140625
1776443417114067500,20.3990673828125,-41.617340087890625,15.96697998046875,1.6856536865234375
1776443417139083500,20.42408349609375,-40.88580322265625,16.126815795898438,2.16070556640625
1776443417164099600,20.449099609375,-40.919281005859375,16.31134033203125,2.946136474609375
1776443417189115600,20.47411572265625,-40.7861328125,16.551910400390625,3.364166259765625
1776443417214131700,20.499131591796875,-40.935394287109375,16.445449829101562,4.2835540771484375
1776443417239147800,20.524147705078125,-40.95361328125,16.297409057617188,5.5120697021484375
1776443417264163800,20.549163818359375,-40.772125244140625,16.258514404296875,6.571929931640625
1776443417289179600,20.5741796875,-40.6453857421875,16.047500610351562,7.3724517822265625
1776443417314195700,20.59919580078125,-40.5946044921875,15.552505493164062,8.880233764648438
1776443417339211800,20.624211669921873,-40.4434814453125,15.0433349609375,10.656112670898438
1776443417364226600,20.6492265625,-40.46600341796875,14.078536987304688,11.651504516601562
1776443417389242600,20.67424267578125,-40.674560546875,12.947586059570312,12.2642822265625
1776443417414258700,20.6992587890625,-40.571533203125,11.59228515625,12.808563232421875
1776443417439274500,20.7242744140625,-40.764007568359375,10.884796142578125,12.991134643554688
1776443417464290600,20.74929052734375,-40.867645263671875,10.0244140625,13.163772583007812
1776443417489306600,20.774306640625,-41.7698974609375,9.059860229492188,13.345657348632812
1776443417514322700,20.79932275390625,-41.593841552734375,8.742202758789062,13.09246826171875
1776443417539338500,20.82433837890625,-41.951416015625,7.8390960693359375,13.2698974609375
1776443417564354600,20.8493544921875,-41.5255126953125,7.019378662109375,14.01348876953125
1776443417589370600,20.87437060546875,-41.5926513671875,6.03131103515625,14.00750732421875
1776443417614386400,20.899386474609376,-41.912933349609375,5.6112213134765625,14.45562744140625
1776443417639402800,20.92440283203125,-41.908050537109375,5.3622283935546875,14.678924560546875
1776443417664418800,20.949418701171876,-41.85455322265625,4.829345703125,15.011505126953125
1776443417689435000,20.974434814453126,-41.74395751953125,4.6450347900390625,14.9208984375
1776443417714449700,20.99944970703125,-42.049591064453125,4.284637451171875,14.554153442382812
1776443417739465700,21.0244658203125,-41.988616943359375,4.1668243408203125,14.402755737304688
1776443417764481500,21.0494814453125,-41.699493408203125,4.2603759765625,13.937744140625
1776443417789497600,21.07449755859375,-42.033599853515625,3.976776123046875,13.835617065429688
1776443417814513700,21.099513671875,-42.264068603515625,4.055084228515625,14.075515747070312
1776443417839529700,21.12452978515625,-42.377288818359375,3.606414794921875,14.584197998046875
1776443417864545500,21.149545654296876,-41.74090576171875,3.1183929443359375,15.90093994140625
1776443417889561600,21.1745615234375,-41.29022216796875,2.4251708984375,16.981658935546875
1776443417914577700,21.19957763671875,-41.14227294921875,0.5720672607421875,18.417495727539062
1776443417939593500,21.224593505859374,-40.884124755859375,-0.47845458984375,19.166427612304688
1776443417964609500,21.249609619140625,-40.65069580078125,-1.7572021484375,20.209884643554688
1776443417989625600,21.27462548828125,-40.431427001953125,-2.658111572265625,20.775375366210938
1776443418014641700,21.2996416015625,-39.66912841796875,-3.7794342041015625,21.032989501953125
1776443418039657500,21.324657470703126,-39.95257568359375,-4.4351959228515625,20.695510864257812
1776443418064676400,21.34967626953125,-40.427642822265625,-5.03314208984375,19.891082763671875
1776443418089692400,21.3746923828125,-40.1468505859375,-5.5410003662109375,19.477142333984375
1776443418114708200,21.399708251953125,-40.6761474609375,-5.764556884765625,18.942901611328125
1776443418139724300,21.424724365234376,-41.537017822265625,-5.75421142578125,18.179733276367188
1776443418164740400,21.449740234375,-41.52984619140625,-5.6297149658203125,17.346054077148438
1776443418189756400,21.47475634765625,-41.404815673828125,-5.8072509765625,16.863388061523438
1776443418214772200,21.499772216796874,-42.29302978515625,-5.7905120849609375,16.275924682617188
1776443418239788300,21.524788330078124,-42.10723876953125,-6.1518402099609375,16.016250610351562
1776443418264804400,21.549804443359374,-42.3629150390625,-6.63592529296875,15.685134887695312
1776443418289820200,21.574820068359376,-42.318511962890625,-7.0743560791015625,15.425445556640625
1776443418314836200,21.599836181640626,-41.823486328125,-7.69500732421875,15.396697998046875
1776443418339852300,21.624852294921876,-41.995452880859375,-8.21832275390625,15.310821533203125
1776443418364868000,21.6498681640625,-41.735626220703125,-8.940887451171875,15.66259765625
1776443418389884200,21.67488427734375,-41.765380859375,-9.102279663085938,15.299636840820312
1776443418414899500,21.6998994140625,-42.120819091796875,-8.925308227539062,15.326461791992188
1776443418439915300,21.724915283203124,-42.56243896484375,-9.307479858398438,14.977294921875
1776443418464931300,21.749931396484374,-42.387664794921875,-9.361572265625,14.668426513671875
1776443418489947400,21.774947509765624,-42.200042724609375,-9.435516357421875,14.578643798828125
1776443418514963500,21.79996337890625,-42.67193603515625,-9.242584228515625,14.533416748046875
1776443418539979300,21.824979248046876,-42.286590576171875,-9.763031005859375,14.877639770507812
1776443418564995300,21.849995361328126,-41.81988525390625,-9.692291259765625,14.961441040039062
1776443418590011400,21.875011474609376,-41.7513427734375,-10.253448486328125,14.608795166015625
1776443418615027200,21.900027099609375,-41.62371826171875,-10.394882202148438,14.337509155273438
1776443418640043300,21.925043212890625,-42.18365478515625,-10.959686279296875,14.165512084960938
1776443418665059300,21.950059326171875,-41.852081298828125,-11.381820678710938,13.89959716796875
1776443418690075100,21.9750751953125,-41.788421630859375,-12.315475463867188,13.155441284179688
1776443418715091200,22.00009130859375,-41.985443115234375,-12.414093017578125,12.631362915039062
1776443418740107300,22.025107177734377,-42.507354736328125,-13.207687377929688,12.006622314453125
1776443418765123300,22.050123291015623,-41.927703857421875,-13.207992553710938,11.641586303710938
1776443418790138400,22.075138427734377,-42.4410400390625,-13.66241455078125,10.565704345703125
1776443418815154400,22.100154541015623,-42.88629150390625,-13.832870483398438,10.059005737304688
1776443418840170500,22.12517041015625,-42.414093017578125,-14.33251953125,9.6854248046875
1776443418865186300,22.150186279296875,-42.271697998046875,-14.358154296875,9.240341186523438
1776443418890202400,22.175202392578125,-42.468017578125,-14.904586791992188,8.4671630859375
1776443418915218400,22.200218505859375,-42.84051513671875,-15.547195434570312,7.7456207275390625
1776443418940234200,22.225234130859373,-41.944000244140625,-16.3192138671875,6.7198638916015625
1776443418965250300,22.250250244140624,-42.326629638671875,-17.056137084960938,5.918243408203125
1776443418990266400,22.275266357421874,-42.15521240234375,-18.027603149414062,4.8858642578125
1776443419015282400,22.300282470703124,-41.82672119140625,-18.24139404296875,4.40704345703125
1776443419040298200,22.32529833984375,-41.949371337890625,-18.94866943359375,3.260833740234375
1776443419065309700,22.350309814453126,-41.9718017578125,-19.008880615234375,2.7222442626953125
1776443419090325800,22.37532568359375,-41.23016357421875,-19.255645751953125,1.38006591796875
1776443419115341600,22.400341552734375,-41.566192626953125,-19.489959716796875,0.632415771484375
1776443419140357600,22.425357666015625,-41.354766845703125,-19.95379638671875,-0.2064056396484375
1776443419165373000,22.450373046875,-41.28729248046875,-20.111740112304688,-0.685211181640625
1776443419190388700,22.475388671875,-41.40283203125,-20.456436157226562,-1.4482421875
1776443419215404800,22.50040478515625,-40.7564697265625,-21.013168334960938,-2.183685302734375
1776443419240420900,22.5254208984375,-40.78582763671875,-20.904510498046875,-2.938873291015625
1776443419265437000,22.55043701171875,-40.822967529296875,-20.954483032226562,-3.4888153076171875
1776443419290452700,22.57545263671875,-40.69000244140625,-21.320404052734375,-4.4290924072265625
1776443419315468800,22.60046875,-40.470611572265625,-21.43878173828125,-5.11907958984375
1776443419340484900,22.62548486328125,-40.365142822265625,-21.522567749023438,-5.95501708984375
1776443419365500700,22.650500732421875,-40.3658447265625,-21.253189086914062,-6.26361083984375
1776443419390516700,22.675516845703125,-40.720855712890625,-21.096633911132812,-6.7525787353515625
1776443419415532800,22.70053271484375,-40.55718994140625,-20.749038696289062,-7.457061767578125
1776443419440548600,22.725548583984374,-40.855255126953125,-20.465240478515625,-7.8877716064453125
1776443419465564700,22.750564697265624,-40.63568115234375,-20.225082397460938,-8.325607299804688
1776443419490580700,22.775580810546874,-40.450164794921875,-19.828262329101562,-8.810043334960938
1776443419515596800,22.8005966796875,-41.034820556640625,-19.4918212890625,-9.023330688476562
1776443419540612600,22.825612548828126,-40.9300537109375,-19.196990966796875,-9.959182739257812
1776443419565628700,22.850628662109376,-40.589324951171875,-19.24658203125,-10.752120971679688
1776443419590644000,22.87564404296875,-40.67706298828125,-18.368331909179688,-12.16705322265625
1776443419615659800,22.90065966796875,-40.315765380859375,-18.432876586914062,-13.048873901367188
1776443419640675800,22.92567578125,-39.958770751953125,-17.91326904296875,-14.79339599609375
1776443419665692000,22.95069189453125,-39.72686767578125,-17.67596435546875,-16.054794311523438
1776443419690707700,22.975707763671874,-39.03924560546875,-17.129547119140625,-17.756134033203125
1776443419715723800,23.000723876953124,-38.76800537109375,-16.778182983398438,-18.707672119140625
1776443419740739800,23.02573974609375,-38.41607666015625,-15.973800659179688,-20.082870483398438
1776443419765756000,23.050755859375,-38.0738525390625,-15.195632934570312,-20.853408813476562
1776443419790771700,23.075771728515626,-37.79022216796875,-14.22601318359375,-22.5411376953125
1776443419815787800,23.100787841796876,-37.9022216796875,-13.2442626953125,-23.250869750976562
1776443419840803800,23.125803955078126,-37.787750244140625,-11.876602172851562,-23.77593994140625
1776443419865819600,23.150819580078124,-37.54522705078125,-10.741104125976562,-24.01776123046875
1776443419890835700,23.175835693359375,-37.965911865234375,-9.391876220703125,-24.453857421875
1776443419915851800,23.200851806640625,-37.886199951171875,-8.281951904296875,-24.684829711914062
1776443419940867600,23.22586767578125,-37.94464111328125,-7.117828369140625,-24.432846069335938
1776443419965883600,23.250883544921876,-37.770294189453125,-6.6212005615234375,-24.813217163085938
1776443419990899700,23.275899658203127,-38.51312255859375,-5.5648345947265625,-24.982192993164062
1776443420015914800,23.300914794921876,-37.835113525390625,-4.72088623046875,-25.17767333984375
1776443420040930800,23.325930908203127,-37.44647216796875,-3.723052978515625,-25.737991333007812
1776443420065948000,23.350947998046873,-37.298004150390625,-3.3162841796875,-25.984481811523438
1776443420090964000,23.3759638671875,-37.171600341796875,-2.47625732421875,-26.019790649414062
1776443420115980000,23.40097998046875,-37.628936767578125,-2.0530548095703125,-26.05206298828125
1776443420140996000,23.42599609375,-37.8978271484375,-1.2603912353515625,-25.711761474609375
1776443420166012000,23.451011962890625,-37.740203857421875,-1.1001434326171875,-25.7078857421875
1776443420191028000,23.476028076171875,-37.69024658203125,-1.3172760009765625,-26.4688720703125
1776443420216044000,23.5010439453125,-37.36749267578125,-1.2535400390625,-26.955291748046875
1776443420241060000,23.52606005859375,-35.845458984375,-1.403289794921875,-28.003555297851562
1776443420266076000,23.551075927734374,-35.92034912109375,-1.49481201171875,-28.193572998046875
1776443420291092000,23.576092041015624,-35.160858154296875,-1.5521697998046875,-28.7926025390625
1776443420316108000,23.60110791015625,-34.94268798828125,-1.71282958984375,-28.681625366210938
1776443420341123800,23.626123779296876,-35.08349609375,-2.112701416015625,-29.021133422851562
1776443420366140000,23.651139892578126,-35.00592041015625,-2.55194091796875,-29.249908447265625
1776443420391156000,23.676156005859376,-35.220001220703125,-3.0595703125,-28.888824462890625
1776443420416171800,23.701171875,-35.0933837890625,-2.7806396484375,-28.999984741210938
1776443420441187800,23.726187744140624,-35.28424072265625,-3.209808349609375,-29.07720947265625
1776443420466203000,23.751202880859374,-35.125030517578125,-3.10205078125,-29.189346313476562
1776443420491218700,23.77621875,-34.751190185546875,-3.019012451171875,-29.59075927734375
1776443420516234800,23.80123486328125,-34.68524169921875,-2.8653411865234375,-30.008590698242188
1776443420541251000,23.8262509765625,-34.779571533203125,-2.5597686767578125,-29.895721435546875
1776443420566267100,23.85126708984375,-34.622039794921875,-2.0581207275390625,-30.069976806640625
1776443420591283000,23.876282958984376,-33.990814208984375,-1.457916259765625,-30.316497802734375
1776443420616299000,23.901299072265626,-33.796142578125,-1.1880645751953125,-30.788040161132812
1776443420641315000,23.926315185546876,-33.473114013671875,-0.5185394287109375,-31.103118896484375
1776443420666331000,23.951330810546875,-33.090484619140625,0.0859527587890625,-31.730545043945312
1776443420691347000,23.976346923828125,-32.606414794921875,0.745330810546875,-31.826644897460938
1776443420716364000,24.001364013671875,-31.8909912109375,1.871795654296875,-32.50201416015625
1776443420741378800,24.02637890625,-31.24298095703125,2.343048095703125,-32.95603942871094
1776443420766395000,24.051394775390627,-30.468902587890625,3.32965087890625,-33.617523193359375
1776443420791411000,24.076410888671877,-29.701385498046875,3.7744598388671875,-34.33782958984375
1776443420816427000,24.101427001953127,-28.900238037109375,4.4805755615234375,-35.000274658203125
1776443420841442800,24.12644287109375,-27.94268798828125,4.551300048828125,-35.403472900390625
1776443420866459000,24.151458984375,-27.109100341796875,4.81365966796875,-36.18367004394531
1776443420891475000,24.176474853515625,-26.4041748046875,5.0165557861328125,-36.75364685058594
1776443420916490800,24.20149072265625,-25.676422119140625,5.1774749755859375,-37.42608642578125
1776443420941506800,24.2265068359375,-24.625335693359375,5.8732757568359375,-37.61604309082031
1776443420966523000,24.25152294921875,-24.2274169921875,5.687347412109375,-38.38897705078125
1776443420991539000,24.2765390625,-23.126983642578125,5.8111724853515625,-38.68153381347656
1776443421016554800,24.3015546875,-22.06524658203125,6.0648956298828125,-39.5467529296875
1776443421041570800,24.32657080078125,-20.57012939453125,6.08709716796875,-39.90431213378906
1776443421066585600,24.351585693359375,-19.426849365234375,6.4878082275390625,-40.562408447265625
1776443421091601700,24.3766015625,-17.44073486328125,6.85504150390625,-41.11865234375
1776443421116617700,24.40161767578125,-16.29962158203125,7.3565216064453125,-41.787750244140625
1776443421141633500,24.426633544921874,-13.62542724609375,7.8058013916015625,-42.597747802734375
1776443421166649600,24.451649658203124,-12.82977294921875,7.786529541015625,-42.83149719238281
1776443421191665700,24.476665771484374,-10.66339111328125,8.488204956054688,-43.3280029296875
1776443421216680400,24.501680419921875,-9.866119384765625,8.904632568359375,-43.103057861328125
1776443421241696500,24.526696533203125,-7.935760498046875,9.65740966796875,-43.565643310546875
1776443421266712600,24.551712646484376,-7.505859375,10.018325805664062,-43.40869140625
1776443421291728400,24.576728271484374,-6.807525634765625,10.7215576171875,-43.27937316894531
1776443421316744400,24.601744384765624,-6.765899658203125,11.036636352539062,-43.159698486328125
1776443421341760500,24.626760498046874,-7.673736572265625,11.063064575195312,-43.40928649902344
1776443421366776600,24.651776611328124,-8.51031494140625,11.571456909179688,-43.056976318359375
1776443421391792600,24.676792724609374,-10.00970458984375,12.153121948242188,-42.40946960449219
1776443421416808700,24.70180859375,-11.303314208984375,12.71343994140625,-41.98994445800781
1776443421441824800,24.72682470703125,-12.319671630859375,12.941482543945312,-41.73799133300781
1776443421466840600,24.751840576171876,-12.456573486328125,13.383377075195312,-41.69374084472656
1776443421491856600,24.776856689453126,-13.72381591796875,13.99676513671875,-41.219818115234375
1776443421516872700,24.801872802734376,-13.1728515625,13.974594116210938,-41.076324462890625
1776443421541888500,24.826888427734374,-13.372100830078125,14.27496337890625,-40.90771484375
1776443421566904600,24.851904541015625,-13.432708740234375,14.385467529296875,-41.0089111328125
1776443421591920600,24.876920654296875,-13.0711669921875,14.669143676757812,-41.064788818359375
1776443421616936700,24.901936767578125,-12.56768798828125,14.863540649414062,-41.05363464355469
1776443421641952500,24.926952392578126,-12.013885498046875,15.23052978515625,-41.270233154296875
1776443421666968600,24.951968505859377,-11.29913330078125,15.062393188476562,-41.422454833984375
1776443421691983400,24.9769833984375,-10.687408447265625,15.257461547851562,-41.266845703125
1776443421716999400,25.00199951171875,-9.944915771484375,15.285995483398438,-41.66529846191406
1776443421742015500,25.027015380859375,-9.505523681640625,15.200820922851562,-41.730499267578125
1776443421767031600,25.052031494140625,-9.5028076171875,15.18731689453125,-41.80766296386719
1776443421792047600,25.077047607421875,-10.10235595703125,15.18756103515625,-41.735595703125
1776443421817063700,25.102063720703125,-10.4820556640625,14.972503662109375,-41.801727294921875
1776443421842079700,25.127079833984375,-11.47674560546875,14.702133178710938,-41.56278991699219
1776443421867095600,25.152095458984373,-11.559906005859375,14.370758056640625,-41.62773132324219
1776443421892111600,25.177111572265623,-11.7620849609375,13.265533447265625,-41.945770263671875
1776443421917127700,25.202127685546873,-11.84112548828125,12.885665893554688,-42.12297058105469
1776443421942143700,25.227143798828124,-11.898895263671875,12.401992797851562,-41.9625244140625
1776443421967159600,25.25215966796875,-11.4273681640625,12.432342529296875,-42.00169372558594
1776443421992175600,25.277175537109375,-11.049591064453125,12.195281982421875,-42.043212890625
1776443422017191700,25.302191650390625,-10.93988037109375,12.052993774414062,-42.45918273925781
1776443422042207500,25.32720751953125,-11.601348876953125,11.53472900390625,-42.267425537109375
1776443422067224600,25.352224609375,-11.968505859375,11.312332153320312,-42.36274719238281
1776443422092240600,25.37724072265625,-12.49395751953125,11.168853759765625,-42.142181396484375
1776443422117256700,25.402256591796874,-12.560455322265625,11.147232055664062,-42.150390625
1776443422142272500,25.4272724609375,-12.709716796875,11.213027954101562,-42.1434326171875
1776443422167288600,25.45228857421875,-12.840118408203125,10.52337646484375,-42.552764892578125
1776443422192303600,25.4773037109375,-12.897613525390625,10.211593627929688,-42.22332763671875
1776443422217319400,25.5023193359375,-12.971649169921875,9.844345092773438,-42.41181945800781
1776443422242335500,25.52733544921875,-13.8173828125,9.739166259765625,-42.03761291503906
1776443422267351600,25.5523515625,-14.26275634765625,9.76129150390625,-42.056793212890625
1776443422292367400,25.577367431640624,-15.07208251953125,9.524200439453125,-41.591949462890625
1776443422317383400,25.602383544921874,-15.7786865234375,9.480560302734375,-41.37983703613281
1776443422342399500,25.6273994140625,-16.394561767578125,9.561325073242188,-41.24139404296875
1776443422367415600,25.65241552734375,-16.563720703125,9.510406494140625,-41.3499755859375
1776443422392431600,25.677431640625,-16.6226806640625,8.923187255859375,-41.295440673828125
1776443422417447700,25.70244775390625,-17.003387451171875,8.657546997070312,-40.914947509765625
1776443422442463700,25.727463623046877,-17.343597412109375,8.631378173828125,-41.11128234863281
1776443422467479600,25.7524794921875,-18.09295654296875,8.556900024414062,-40.87443542480469
1776443422492495600,25.77749560546875,-19.310638427734375,8.048355102539062,-40.450836181640625
1776443422517511700,25.80251171875,-19.996551513671875,7.916900634765625,-40.19525146484375
1776443422542527700,25.82752783203125,-20.715606689453125,6.5802154541015625,-40.18292236328125
1776443422567543600,25.85254345703125,-21.282196044921875,5.8394012451171875,-40.26560974121094
1776443422592559600,25.8775595703125,-21.4471435546875,4.849884033203125,-40.10435485839844
1776443422617575700,25.90257568359375,-21.63653564453125,4.041656494140625,-40.05238342285156
1776443422642590500,25.927590576171873,-21.723236083984375,3.0935516357421875,-39.92692565917969
1776443422667606500,25.9526064453125,-22.092987060546875,2.333709716796875,-40.09474182128906
1776443422692622600,25.97762255859375,-21.422698974609375,1.1255645751953125,-40.0689697265625
1776443422717638400,26.002638427734375,-21.440338134765625,0.5912628173828125,-40.210906982421875
1776443422742654500,26.027654541015625,-21.073272705078125,-0.4090576171875,-40.2696533203125
1776443422767670500,26.05267041015625,-21.1263427734375,-1.1517333984375,-40.127685546875
1776443422792686300,26.077686279296874,-20.7965087890625,-2.0921630859375,-40.170623779296875
1776443422817702700,26.10270263671875,-20.548675537109375,-3.0186767578125,-40.30738830566406
1776443422842718700,26.12771875,-19.971466064453125,-3.5004730224609375,-40.11689758300781
1776443422867734800,26.15273486328125,-19.636993408203125,-4.2154541015625,-40.4139404296875
1776443422892750600,26.17775048828125,-19.18634033203125,-5.3090057373046875,-40.27143859863281
1776443422917766700,26.2027666015625,-19.290802001953125,-5.7041473388671875,-40.185546875
1776443422942782700,26.22778271484375,-19.159027099609375,-6.2438201904296875,-40.02986145019531
1776443422967798500,26.252798583984376,-19.406402587890625,-6.7294769287109375,-40.165985107421875
1776443422992814600,26.277814697265626,-19.678680419921875,-6.8542327880859375,-39.69804382324219
1776443423017830700,26.30283056640625,-19.30950927734375,-7.3438568115234375,-39.69683837890625
1776443423042846700,26.3278466796875,-20.01934814453125,-7.749298095703125,-39.447113037109375
1776443423067862000,26.352862060546876,-19.595367431640625,-8.091659545898438,-39.06178283691406
1776443423092878000,26.377878173828126,-19.6142578125,-8.518646240234375,-38.87431335449219
1776443423117894100,26.40289404296875,-19.886627197265625,-9.066696166992188,-38.840301513671875
1776443423142909000,26.427908935546874,-20.14459228515625,-9.132537841796875,-38.64646911621094
1776443423167925000,26.452925048828124,-19.25848388671875,-9.135818481445312,-38.71925354003906
1776443423192941300,26.47794140625,-19.884307861328125,-9.302474975585938,-38.745361328125
1776443423217957400,26.502957275390624,-19.853179931640625,-9.316238403320312,-38.72349548339844
1776443423242973200,26.52797314453125,-20.129241943359375,-9.5579833984375,-38.656524658203125
1776443423267989200,26.5529892578125,-19.570770263671875,-9.749923706054688,-38.41864013671875
1776443423293005300,26.57800537109375,-19.632720947265625,-9.761276245117188,-38.44410705566406
1776443423318021000,26.603021240234376,-19.82666015625,-9.91204833984375,-38.543243408203125
1776443423343037200,26.628037109375,-19.44830322265625,-9.8876953125,-38.30348205566406
1776443423368053200,26.65305322265625,-19.254302978515625,-10.105499267578125,-38.549896240234375
1776443423393069300,26.6780693359375,-18.75701904296875,-10.655731201171875,-38.79777526855469
1776443423418085000,26.703085205078125,-17.598388671875,-11.561492919921875,-38.89091491699219
1776443423443101200,26.72810107421875,-16.75146484375,-11.818740844726562,-39.04304504394531
1776443423468117200,26.7531171875,-15.38250732421875,-12.959640502929688,-39.576873779296875
1776443423493133000,26.778133056640623,-14.2811279296875,-13.695144653320312,-39.5595703125
1776443423518149000,26.803149169921873,-11.744354248046875,-15.09613037109375,-39.7652587890625
1776443423543165200,26.828165283203123,-10.9034423828125,-15.44757080078125,-39.88623046875
1776443423568181000,26.853180908203125,-9.818328857421875,-16.399642944335938,-39.481964111328125
1776443423593197000,26.878197021484375,-9.638671875,-16.746978759765625,-39.50691223144531
1776443423618212000,26.903212158203125,-8.495697021484375,-17.264556884765625,-39.32965087890625
1776443423643228200,26.928228271484375,-7.915374755859375,-17.716781616210938,-39.40531921386719
1776443423668244200,26.953244140625,-7.8394775390625,-17.899429321289062,-39.37538146972656
1776443423693260300,26.97826025390625,-7.123809814453125,-18.141189575195312,-39.45301818847656
1776443423718276400,27.0032763671875,-6.43096923828125,-18.52587890625,-39.18682861328125
1776443423743292200,27.028292236328124,-5.35662841796875,-18.537734985351562,-39.24867248535156
1776443423768308200,27.05330810546875,-4.489959716796875,-18.659805297851562,-39.81791687011719
1776443423793324300,27.07832421875,-3.445648193359375,-18.4296875,-39.56440734863281
1776443423818340000,27.103340087890626,-1.90374755859375,-17.9522705078125,-39.70475769042969
1776443423843356200,27.128356201171876,-1.72357177734375,-17.931747436523438,-39.82769775390625
1776443423868372200,27.153372314453126,-0.440155029296875,-17.400192260742188,-40.07087707519531
1776443423893388000,27.178387939453124,-0.033538818359375,-17.384429931640625,-40.07438659667969
1776443423918404000,27.203404052734374,0.280670166015625,-17.469955444335938,-40.330963134765625
1776443423943420200,27.228420166015624,0.4573974609375,-17.282516479492188,-40.14945983886719
1776443423968436200,27.253436279296874,0.381317138671875,-17.006744384765625,-40.41410827636719
1776443423993452000,27.2784521484375,0.63116455078125,-17.053390502929688,-40.42877197265625
1776443424018468000,27.303468017578126,1.177978515625,-17.180404663085938,-40.13578796386719
1776443424043484200,27.328484130859376,1.52935791015625,-17.102874755859375,-40.19554138183594
1776443424068501000,27.3535009765625,1.362762451171875,-17.226333618164062,-40.141754150390625
1776443424093516000,27.37851611328125,1.9427490234375,-17.22357177734375,-40.17291259765625
1776443424118531800,27.40353173828125,2.921600341796875,-17.234390258789062,-40.02299499511719
1776443424143548000,27.4285478515625,3.348907470703125,-17.380447387695312,-39.58599853515625
1776443424168564000,27.45356396484375,4.83612060546875,-17.330581665039062,-39.4637451171875
1776443424193580000,27.478580078125,5.227630615234375,-17.319534301757812,-39.367034912109375
1776443424218596000,27.50359619140625,6.435791015625,-17.413726806640625,-39.1768798828125
1776443424243612200,27.528612060546877,7.329681396484375,-16.896957397460938,-39.39927673339844
1776443424268628200,27.553628173828123,8.558349609375,-17.1728515625,-39.393768310546875
1776443424293644000,27.57864404296875,8.959869384765625,-16.57354736328125,-39.377471923828125
1776443424318660000,27.60366015625,9.744110107421875,-16.354598999023438,-39.17060852050781
1776443424343676200,27.62867626953125,10.2301025390625,-16.079208374023438,-38.92498779296875
1776443424368692000,27.65369189453125,10.89727783203125,-15.904296875,-38.9666748046875
1776443424393708000,27.6787080078125,11.055755615234375,-16.0343017578125,-38.798980712890625
1776443424418724000,27.70372412109375,11.655181884765625,-16.11419677734375,-38.636810302734375
1776443424443740200,27.728740234375,11.656036376953125,-16.079071044921875,-38.54478454589844
1776443424468756000,27.753755859375,12.266876220703125,-16.135528564453125,-38.432525634765625
1776443424493772000,27.77877197265625,12.501983642578125,-16.007675170898438,-38.43072509765625
1776443424518788000,27.8037880859375,12.295806884765625,-16.110870361328125,-38.13661193847656
1776443424543804000,27.828803955078126,12.77294921875,-15.889419555664062,-38.227874755859375
1776443424568819000,27.85381884765625,13.275970458984375,-16.088531494140625,-38.048675537109375
1776443424593835000,27.8788349609375,13.781341552734375,-16.357452392578125,-37.94752502441406
1776443424618851000,27.90385107421875,14.222747802734375,-16.184310913085938,-37.924835205078125
1776443424643867100,27.9288671875,14.618194580078125,-15.969512939453125,-37.58531188964844
1776443424668883200,27.95388330078125,15.605255126953125,-15.866806030273438,-37.38087463378906
1776443424693899000,27.97889892578125,16.224456787109375,-15.675430297851562,-37.23283386230469
1776443424718915000,28.0039150390625,16.631561279296875,-15.1851806640625,-37.273406982421875
1776443424743931100,28.02893115234375,16.542144775390625,-14.934371948242188,-37.15928649902344
1776443424768947200,28.053947265625,16.81134033203125,-14.542633056640625,-37.25840759277344
1776443424793963000,28.078962890625,17.15972900390625,-14.14971923828125,-37.26847839355469
1776443424818979000,28.10397900390625,17.395416259765625,-13.697311401367188,-37.23155212402344
1776443424843995100,28.1289951171875,17.37615966796875,-13.506240844726562,-37.55769348144531
1776443424869011000,28.154010986328124,17.773468017578125,-12.414749145507812,-37.39137268066406
1776443424894027000,28.179027099609375,17.799102783203125,-11.93060302734375,-37.79029846191406
1776443424919043000,28.20404296875,17.793731689453125,-11.237945556640625,-37.87480163574219
1776443424944059100,28.22905908203125,18.181304931640625,-10.5880126953125,-37.939697265625
1776443424969075000,28.254074951171877,18.537384033203125,-10.06646728515625,-38.19468688964844
1776443424994091000,28.279091064453127,19.41790771484375,-9.241363525390625,-38.08253479003906
1776443425019105800,28.304105712890625,19.521820068359375,-8.3677978515625,-38.00727844238281
1776443425044121900,28.329121826171875,20.139801025390625,-7.6016998291015625,-38.02552795410156
1776443425069137400,28.354137451171876,20.320526123046875,-7.086090087890625,-38.05671691894531
1776443425094153500,28.379153564453127,20.514251708984375,-5.88177490234375,-38.03260803222656
1776443425119169500,28.40416943359375,20.84832763671875,-5.246124267578125,-37.909149169921875
1776443425144185300,28.429185302734375,20.75201416015625,-3.743743896484375,-38.12675476074219
1776443425169201400,28.454201416015625,21.035736083984375,-3.0712890625,-38.0994873046875
1776443425194217500,28.479217529296875,21.43731689453125,-1.9194488525390625,-38.22650146484375
1776443425219233500,28.504233642578125,21.094635009765625,-1.2179412841796875,-38.315460205078125
1776443425244249300,28.529249267578123,21.535247802734375,-0.2130279541015625,-38.03736877441406
1776443425269265400,28.554265380859373,21.652252197265625,0.4203643798828125,-37.96498107910156
1776443425294281500,28.579281494140623,21.1942138671875,1.5233917236328125,-37.92723083496094
1776443425319297300,28.60429736328125,21.214874267578125,1.98858642578125,-38.14311218261719
1776443425344313300,28.629313232421875,20.74786376953125,2.5344696044921875,-38.48631286621094
1776443425369328400,28.654328369140625,20.31573486328125,3.4364013671875,-38.55279541015625
1776443425394344400,28.679344482421875,19.82012939453125,3.926910400390625,-38.71113586425781
1776443425419360500,28.704360595703125,19.8541259765625,4.4946136474609375,-38.75187683105469
1776443425444376600,28.72937646484375,19.133575439453125,5.0196990966796875,-38.93885803222656
1776443425469392400,28.754392333984374,18.9246826171875,5.4708404541015625,-39.008697509765625
1776443425494408400,28.779408447265624,18.637237548828125,5.36651611328125,-39.02886962890625
1776443425519424500,28.804424560546874,18.459625244140625,5.253326416015625,-39.22308349609375
1776443425544440600,28.829440673828124,18.349853515625,5.3248291015625,-39.47550964355469
1776443425569456400,28.854456298828126,18.572845458984375,4.873870849609375,-39.045166015625
1776443425594472400,28.879472412109376,18.706024169921875,5.40643310546875,-39.25965881347656
1776443425619488500,28.904488525390626,19.259307861328125,5.5160064697265625,-39.353515625
1776443425644504300,28.92950439453125,19.052947998046875,5.622283935546875,-39.14678955078125
1776443425669520400,28.954520263671874,19.878265380859375,5.6738739013671875,-38.847076416015625
1776443425694536400,28.979536376953124,19.815948486328125,5.402587890625,-38.93937683105469
1776443425719552500,29.004552490234374,20.127288818359375,5.0410919189453125,-38.676971435546875
1776443425744568300,29.029568359375,19.541168212890625,5.2861175537109375,-38.77476501464844
1776443425769584400,29.05458447265625,19.9202880859375,5.2083587646484375,-38.88465881347656
1776443425794600400,29.079600341796876,19.267730712890625,5.61126708984375,-39.08641052246094
1776443425819615500,29.104615478515626,18.397186279296875,5.543243408203125,-39.20188903808594
1776443425844631600,29.129631591796876,18.208404541015625,6.003692626953125,-39.62089538574219
1776443425869647600,29.154647705078126,17.866455078125,6.63134765625,-39.564666748046875
1776443425894663400,29.179663330078125,17.55859375,7.3173828125,-39.7728271484375
1776443425919679500,29.204679443359375,16.9124755859375,7.8831329345703125,-40.17768859863281
1776443425944695600,29.229695556640625,16.117095947265625,8.400405883789062,-40.05302429199219
1776443425969711400,29.25471142578125,16.016876220703125,9.046340942382812,-40.268341064453125
1776443425994727400,29.2797275390625,15.928955078125,9.624465942382812,-40.18037414550781
1776443426019743500,29.304743408203127,15.821685791015625,10.445541381835938,-40.184478759765625
1776443426044759600,29.329759521484377,15.4591064453125,10.919357299804688,-40.244781494140625
1776443426069775400,29.354775390625,15.288299560546875,11.580001831054688,-40.13371276855469
1776443426094791400,29.37979150390625,15.258087158203125,11.838043212890625,-40.137969970703125
1776443426119807500,29.404807373046875,14.9283447265625,12.11944580078125,-40.143890380859375
1776443426144823600,29.429823486328125,14.7115478515625,12.00146484375,-39.951019287109375
1776443426169839400,29.45483935546875,14.68658447265625,11.874237060546875,-40.166748046875
1776443426194855400,29.47985546875,14.540191650390625,12.219635009765625,-40.16529846191406
1776443426219871500,29.50487158203125,14.493072509765625,12.207855224609375,-40.22944641113281
1776443426244887300,29.52988720703125,14.46490478515625,12.512252807617188,-40.39750671386719
1776443426269903400,29.5549033203125,13.89642333984375,12.867813110351562,-40.380584716796875
1776443426294918700,29.579918701171874,13.894500732421875,12.820709228515625,-40.278076171875
1776443426319934500,29.6049345703125,13.344879150390625,12.568038940429688,-40.46330261230469
1776443426344950500,29.629950439453125,12.996185302734375,12.868438720703125,-40.6298828125
1776443426369966600,29.654966552734376,12.66107177734375,13.328109741210938,-40.48826599121094
1776443426394982400,29.679982421875,11.8865966796875,13.431716918945312,-40.68898010253906
1776443426419998500,29.70499853515625,11.444091796875,13.649688720703125,-40.750457763671875
1776443426445014500,29.7300146484375,10.97918701171875,14.186508178710938,-40.759979248046875
1776443426470030600,29.755030517578124,10.837799072265625,14.5074462890625,-41.069793701171875
1776443426495046400,29.78004638671875,9.37188720703125,14.791397094726562,-41.01393127441406
1776443426520062500,29.8050625,8.53955078125,15.19671630859375,-40.90289306640625
1776443426545078500,29.83007861328125,6.75054931640625,16.189559936523438,-41.32200622558594
1776443426570094300,29.85509423828125,5.71856689453125,16.724884033203125,-41.26823425292969
1776443426595110400,29.8801103515625,4.686431884765625,17.81512451171875,-40.84205627441406
1776443426620126500,29.90512646484375,4.1220703125,18.360671997070312,-40.76679992675781
1776443426645142500,29.930142578125,3.74969482421875,19.057144165039062,-40.306793212890625
1776443426670158300,29.955158447265624,2.9058837890625,19.519973754882812,-40.28492736816406
1776443426695174400,29.98017431640625,2.552764892578125,19.6778564453125,-40.37384033203125
1776443426720190500,30.0051904296875,2.64337158203125,19.655532836914062,-40.359405517578125
1776443426745206300,30.030206298828126,1.552764892578125,19.358016967773438,-40.492889404296875
1776443426770222300,30.055222412109377,1.2376708984375,19.186019897460938,-40.205841064453125
1776443426795237600,30.080237548828126,0.19189453125,19.826141357421875,-40.091827392578125
1776443426820253400,30.10525341796875,-0.38372802734375,19.658248901367188,-39.92210388183594
1776443426845269500,30.13026953125,-0.84173583984375,19.941818237304688,-40.17567443847656
1776443426870285600,30.15528564453125,-1.011199951171875,19.820938110351562,-39.93305969238281
1776443426895301400,30.18030126953125,-1.849853515625,19.46282958984375,-40.32975769042969
1776443426920317400,30.2053173828125,-1.537506103515625,19.731277465820312,-39.974945068359375
1776443426945333500,30.23033349609375,-1.698638916015625,19.441314697265625,-39.98426818847656
1776443426970349600,30.255349609375,-1.496978759765625,19.260940551757812,-40.41078186035156
1776443426995365400,30.280365478515623,-1.360595703125,18.767776489257812,-40.567779541015625
1776443427020381400,30.30538134765625,-1.399322509765625,18.3568115234375,-40.376983642578125
1776443427045397500,30.3303974609375,-1.07781982421875,18.244110107421875,-40.56719970703125
1776443427070412500,30.35541259765625,-0.7530517578125,18.40887451171875,-40.41474914550781
1776443427095428600,30.3804287109375,-1.530364990234375,18.7630615234375,-40.363067626953125
1776443427120444700,30.405444580078125,-1.819305419921875,19.240203857421875,-40.045379638671875
1776443427145460500,30.43046044921875,-1.92401123046875,19.736419677734375,-39.679931640625
1776443427170476800,30.455476806640625,-1.8553466796875,19.836456298828125,-39.406036376953125
1776443427195492900,30.480492919921875,-1.713623046875,19.616226196289062,-39.759033203125
1776443427220508700,30.5055087890625,-1.9000244140625,19.43243408203125,-39.48248291015625
1776443427245524700,30.530524658203124,-1.43463134765625,19.09844970703125,-39.79640197753906
1776443427270540800,30.555540771484374,-1.202545166015625,18.924285888671875,-39.64533996582031
1776443427295555600,30.5805556640625,-2.273681640625,18.392333984375,-40.304229736328125
1776443427320571600,30.605571533203126,-2.088653564453125,18.337799072265625,-40.00947570800781
1776443427345587700,30.630587646484376,-3.231109619140625,18.145187377929688,-40.18565368652344
1776443427370603800,30.655603759765626,-3.860565185546875,18.547103881835938,-39.989166259765625
1776443427395619600,30.68061962890625,-5.399749755859375,18.596267700195312,-39.86395263671875
1776443427420635600,30.7056357421875,-6.53753662109375,18.12615966796875,-39.97938537597656
1776443427445651700,30.730651611328124,-6.857177734375,18.019195556640625,-40.0697021484375
1776443427470667500,30.75566748046875,-7.4300537109375,17.473968505859375,-39.96958923339844
1776443427495683600,30.78068359375,-8.6790771484375,16.935745239257812,-40.01847839355469
1776443427520699600,30.80569970703125,-9.560150146484375,17.055328369140625,-39.50360107421875
1776443427545715700,30.8307158203125,-11.571929931640625,16.42486572265625,-39.357025146484375
1776443427570731500,30.8557314453125,-12.589324951171875,16.698577880859375,-38.88951110839844
1776443427595747600,30.88074755859375,-13.93023681640625,16.68524169921875,-38.396636962890625
1776443427620764000,30.905763916015626,-14.927886962890625,16.77020263671875,-37.833404541015625
1776443427645779700,30.93077978515625,-15.453399658203125,16.391586303710938,-37.913970947265625
1776443427670795800,30.955795654296875,-15.4366455078125,15.873794555664062,-38.36848449707031
1776443427695811800,30.980811767578125,-14.867584228515625,14.996795654296875,-38.92518615722656
1776443427720827600,31.00582763671875,-14.701141357421875,14.61517333984375,-39.15168762207031
1776443427745843700,31.03084375,-14.47894287109375,13.9696044921875,-39.23622131347656
1776443427770858800,31.055858642578126,-15.04486083984375,13.572418212890625,-39.54393005371094
1776443427795874600,31.08087451171875,-15.02288818359375,12.699417114257812,-39.95799255371094
1776443427820890600,31.105890625,-15.010650634765625,12.287582397460938,-39.73558044433594
1776443427845906700,31.13090673828125,-14.8734130859375,11.54034423828125,-40.51499938964844
1776443427870922800,31.1559228515625,-15.21917724609375,11.425201416015625,-40.29222106933594
1776443427895938600,31.1809384765625,-15.38330078125,10.5023193359375,-40.387786865234375
1776443427920954600,31.20595458984375,-15.720947265625,9.919357299804688,-40.386871337890625
1776443427945970700,31.230970703125,-16.33026123046875,9.334381103515625,-40.34626770019531
1776443427970986500,31.255986572265623,-16.803375244140625,8.741607666015625,-40.20530700683594
1776443427996002600,31.28100244140625,-16.886383056640625,7.9850921630859375,-39.94842529296875
1776443428021018600,31.3060185546875,-17.6033935546875,7.048248291015625,-40.05340576171875
1776443428046034700,31.33103466796875,-17.91033935546875,6.296844482421875,-39.857879638671875
1776443428071051800,31.3560517578125,-18.550201416015625,5.825103759765625,-39.95594787597656
1776443428096067600,31.381067626953126,-18.655670166015625,5.18792724609375,-39.76885986328125
1776443428121083600,31.406083740234376,-19.12060546875,4.8063507080078125,-39.70501708984375
1776443428146099700,31.431099609375,-19.196929931640625,4.7955474853515625,-39.535888671875
1776443428171115800,31.45611572265625,-19.489166259765625,4.4688262939453125,-39.18806457519531
1776443428196131600,31.481131591796874,-19.7486572265625,4.2734527587890625,-39.15599060058594
1776443428221147600,31.506147705078124,-19.674652099609375,3.9106292724609375,-39.020843505859375
1776443428246164000,31.5311640625,-19.40850830078125,3.8850860595703125,-39.45350646972656
1776443428271179800,31.5561796875,-19.41461181640625,3.252044677734375,-39.22418212890625
1776443428296194800,31.58119482421875,-19.63360595703125,3.2410125732421875,-39.32258605957031
1776443428321211000,31.6062109375,-20.26129150390625,3.0336761474609375,-39.08343505859375
1776443428346226700,31.631226806640626,-20.09661865234375,3.2491302490234375,-39.03790283203125
1776443428371242800,31.65624267578125,-20.52734375,3.1420135498046875,-38.77513122558594
1776443428396258800,31.6812587890625,-20.81829833984375,3.033416748046875,-38.64299011230469
1776443428421274600,31.706274658203125,-21.467864990234375,2.823699951171875,-38.31846618652344
1776443428446290700,31.731290771484375,-21.488372802734375,2.9035491943359375,-38.294891357421875
1776443428471306800,31.756306640625,-21.879913330078125,2.61810302734375,-38.00115966796875
1776443428496322800,31.78132275390625,-22.179412841796875,2.4566650390625,-37.93646240234375
1776443428521338600,31.806338623046877,-22.55218505859375,2.4782257080078125,-37.58912658691406
1776443428546354700,31.831354736328127,-22.842071533203125,2.6585845947265625,-37.96586608886719
1776443428571370800,31.856370849609377,-22.413299560546875,1.9113922119140625,-38.12580871582031
1776443428596386600,31.881386474609375,-21.731109619140625,1.683746337890625,-38.67247009277344
1776443428621402600,31.906402587890625,-20.631256103515625,0.4899139404296875,-38.831817626953125
1776443428646418700,31.931418701171875,-20.30267333984375,0.104156494140625,-39.48858642578125
