time,seconds_elapsed,z,y,x
1776443396791190000,0.07618994140625,-0.9839019775390625,0.015106201171875,-0.1266632080078125
1776443396816205000,0.101205078125,-1.032073974609375,-0.0142669677734375,-0.119842529296875
1776443396841220900,0.126220947265625,-1.05426025390625,-0.0307159423828125,-0.2270965576171875
1776443396866237000,0.15123681640625,-1.0616912841796875,0.0367584228515625,-0.12969970703125
1776443396891253000,0.1762529296875,-1.0081939697265625,0.048309326171875,-0.0303802490234375
1776443396916267800,0.201267822265625,-1.039764404296875,-0.0653533935546875,-0.06195068359375
1776443396941283800,0.226283935546875,-1.0146942138671875,-0.148773193359375,-0.2523193359375
1776443396966300000,0.2512998046875,-0.97735595703125,-0.0500640869140625,-0.1844329833984375
1776443396991315000,0.27631494140625,-0.86700439453125,-0.058319091796875,-0.060943603515625
1776443397016331000,0.3013310546875,-0.953155517578125,-0.0138397216796875,0.010284423828125
1776443397041351000,0.326350830078125,-0.9150848388671875,-0.0283355712890625,0.123748779296875
1776443397066367000,0.351366943359375,-0.9073638916015625,-0.0819549560546875,-0.147674560546875
1776443397091381800,0.3763818359375,-0.983917236328125,-0.0918121337890625,-0.1335906982421875
1776443397116397800,0.401397705078125,-0.908966064453125,-0.0336456298828125,-0.0626068115234375
1776443397141414000,0.426413818359375,-0.9912109375,-0.0916595458984375,-0.082855224609375
1776443397166430000,0.451429931640625,-0.9239654541015625,-0.102264404296875,-0.1939239501953125
1776443397191445000,0.476445068359375,-1.0592498779296875,-0.1403045654296875,-0.2925262451171875
1776443397216461000,0.5014609375,-0.9695587158203125,-0.0438079833984375,-0.0622406005859375
1776443397241477000,0.52647705078125,-1.027069091796875,0.0335540771484375,0.0729217529296875
1776443397266492000,0.551491943359375,-0.9780426025390625,0.0257568359375,0.1387786865234375
1776443397291508000,0.576508056640625,-1.0373382568359375,-0.0166168212890625,-0.0051422119140625
1776443397316523800,0.601523681640625,-1.009368896484375,-0.001068115234375,0.0219879150390625
1776443397341539800,0.626539794921875,-1.0283660888671875,-0.0516510009765625,0.0049896240234375
1776443397366555000,0.651554931640625,-0.98077392578125,-0.0828399658203125,-0.09295654296875
1776443397391570700,0.67657080078125,-0.9518890380859375,-0.095184326171875,-0.081573486328125
1776443397416586800,0.701586669921875,-0.902984619140625,-0.1360626220703125,-0.057098388671875
1776443397441603000,0.72660302734375,-1.0393829345703125,-0.1003875732421875,-0.1193695068359375
1776443397466617900,0.751617919921875,-0.9731292724609375,-0.06170654296875,-0.07513427734375
1776443397491634000,0.776634033203125,-0.9898529052734375,-0.18682861328125,-0.16412353515625
1776443397516650000,0.80164990234375,-0.97216796875,-0.1403045654296875,-0.206787109375
1776443397541664800,0.826664794921875,-0.9178619384765625,-0.0896148681640625,-0.189361572265625
1776443397566680800,0.851680908203125,-0.9471282958984375,-0.1618194580078125,-0.297607421875
1776443397591697000,0.87669677734375,-0.8949432373046875,-0.284393310546875,-0.601104736328125
1776443397616712700,0.901712646484375,-1.00274658203125,-0.053924560546875,-0.1091156005859375
1776443397641728000,0.92672802734375,-0.8747711181640625,0.0001220703125,-0.3184051513671875
1776443397666744000,0.951744140625,-1.0004730224609375,-0.04119873046875,-0.1724090576171875
1776443397691759900,0.976759765625,-1.08697509765625,-0.1160125732421875,-0.353668212890625
1776443397716776000,1.00177587890625,-0.94232177734375,-0.0790863037109375,-0.1376953125
1776443397741791000,1.026791015625,-0.9456939697265625,-0.1354522705078125,-0.3215484619140625
1776443397766806800,1.051806884765625,-0.9243316650390625,-0.0951995849609375,-0.282867431640625
1776443397791822800,1.07682275390625,-1.07489013671875,-0.0743255615234375,-0.228179931640625
1776443397816839000,1.1018388671875,-0.99700927734375,-0.0491943359375,-0.223968505859375
1776443397841854000,1.12685400390625,-0.8898468017578125,-0.0702972412109375,-0.24493408203125
1776443397866870000,1.1518701171875,-0.929656982421875,-0.1390380859375,-0.2915802001953125
1776443397891886000,1.176885986328125,-0.933502197265625,-0.102569580078125,-0.2834320068359375
1776443397916900900,1.20190087890625,-0.9989776611328125,-0.0886688232421875,-0.2047271728515625
1776443397941917000,1.2269169921875,-0.9772491455078125,-0.1470184326171875,-0.1755828857421875
1776443397966933000,1.25193310546875,-1.0618438720703125,-0.1371307373046875,-0.342437744140625
1776443397991948800,1.27694873046875,-1.072906494140625,-0.161773681640625,-0.359039306640625
1776443398016963800,1.3019638671875,-0.9118804931640625,-0.178253173828125,-0.2381134033203125
1776443398041976600,1.3269765625,-0.8560333251953125,-0.2339935302734375,-0.25048828125
1776443398066992600,1.35199267578125,-0.6374053955078125,-0.3685302734375,-0.143096923828125
1776443398092008700,1.3770087890625,-1.0074005126953125,-0.417694091796875,-0.5330352783203125
1776443398117023700,1.402023681640625,-0.851470947265625,-0.103668212890625,-0.38702392578125
1776443398142039800,1.427039794921875,-1.0821533203125,0.0089874267578125,0.107147216796875
1776443398167055600,1.4520556640625,-0.9632415771484375,0.125885009765625,-0.1291046142578125
1776443398192071700,1.47707177734375,-0.9674224853515625,-0.1074371337890625,-0.2384490966796875
1776443398217086700,1.502086669921875,-0.75982666015625,0.015655517578125,-0.119171142578125
1776443398242102500,1.5271025390625,-1.2688751220703125,0.0337982177734375,-0.233551025390625
1776443398267118600,1.55211865234375,-1.029571533203125,-0.3865966796875,-0.1328582763671875
1776443398292134700,1.577134765625,-1.0296630859375,-0.1536865234375,-0.4744110107421875
1776443398317149700,1.602149658203125,-0.89239501953125,0.0236053466796875,-0.1634368896484375
1776443398342165800,1.627165771484375,-1.031219482421875,0.1453857421875,-0.1442718505859375
1776443398367181800,1.652181884765625,-1.0012969970703125,0.036865234375,0.0450897216796875
1776443398392197600,1.67719775390625,-1.1042327880859375,-0.1823577880859375,-0.3276519775390625
1776443398417212700,1.702212646484375,-1.0249786376953125,-0.2317352294921875,-0.3859100341796875
1776443398442228700,1.727228759765625,-0.8996124267578125,-0.1846160888671875,-0.411102294921875
1776443398467244500,1.75224462890625,-0.937896728515625,0.174407958984375,-0.185150146484375
1776443398492260600,1.777260498046875,-1.0445556640625,0.3001556396484375,-0.026580810546875
1776443398517276000,1.80227587890625,-1.0361785888671875,0.0931854248046875,-0.366912841796875
1776443398542291700,1.827291748046875,-0.9214630126953125,-0.1454315185546875,-0.5838470458984375
1776443398567307800,1.852307861328125,-0.63531494140625,0.175567626953125,-0.2799530029296875
1776443398592323800,1.87732373046875,-1.0084686279296875,0.3595733642578125,-0.0131378173828125
1776443398617338600,1.902338623046875,-0.9761505126953125,0.15692138671875,-0.4651031494140625
1776443398642354700,1.927354736328125,-0.81201171875,-0.03509521484375,-0.5900421142578125
1776443398667370800,1.952370849609375,-0.7887725830078125,-0.050750732421875,-0.43414306640625
1776443398692386600,1.977386474609375,-1.0115509033203125,0.20318603515625,-0.1177520751953125
1776443398717401900,2.00240185546875,-1.1980438232421875,0.08441162109375,-0.267852783203125
1776443398742417700,2.027417724609375,-0.773193359375,0.02496337890625,-0.50164794921875
1776443398767433700,2.052433837890625,-0.8777313232421875,-0.0421295166015625,-0.4922332763671875
1776443398792449800,2.07744970703125,-0.87017822265625,-0.1671295166015625,-0.464111328125
1776443398817464600,2.102464599609375,-0.936431884765625,0.2109832763671875,-0.21710205078125
1776443398842480600,2.127480712890625,-0.9051666259765625,0.2551116943359375,-0.215972900390625
1776443398867496700,2.15249658203125,-1.0096282958984375,0.2033233642578125,-0.437896728515625
1776443398892512800,2.1775126953125,-0.987091064453125,0.0841064453125,-0.316314697265625
1776443398917527600,2.202527587890625,-0.7603607177734375,0.218994140625,-0.4085693359375
1776443398942544000,2.2275439453125,-0.8907928466796875,0.001800537109375,-0.49652099609375
1776443398967559700,2.2525595703125,-1.0057525634765625,-0.01483154296875,-0.2896881103515625
1776443398992575700,2.27757568359375,-0.970001220703125,0.091094970703125,-0.186492919921875
1776443399017591800,2.302591796875,-0.977508544921875,0.144012451171875,-0.1865386962890625
1776443399042606300,2.3276064453125,-0.9448699951171875,0.07086181640625,-0.2256011962890625
1776443399067622100,2.3526220703125,-1.03125,0.0473480224609375,-0.3372039794921875
1776443399092638200,2.37763818359375,-0.944610595703125,0.059661865234375,-0.280242919921875
1776443399117654300,2.402654296875,-0.900726318359375,0.1790618896484375,-0.171173095703125
1776443399142669300,2.42766943359375,-0.9637603759765625,0.097259521484375,-0.2642822265625
1776443399167685400,2.452685302734375,-1.029541015625,0.0174407958984375,-0.361785888671875
1776443399192701400,2.477701416015625,-0.8585357666015625,0.0656890869140625,-0.3775177001953125
1776443399217717200,2.50271728515625,-0.98944091796875,0.1164398193359375,-0.322174072265625
1776443399242732300,2.527732177734375,-0.925323486328125,-0.0102691650390625,-0.3682708740234375
1776443399267748400,2.552748291015625,-0.923126220703125,0.062469482421875,-0.4269561767578125
1776443399292764200,2.57776416015625,-0.92919921875,-0.0253143310546875,-0.3990631103515625
1776443399317780200,2.6027802734375,-0.8990325927734375,-0.03662109375,-0.340423583984375
1776443399342796300,2.62779638671875,-0.8595428466796875,0.062957763671875,-0.2779083251953125
1776443399367811300,2.652811279296875,-0.912109375,0.038787841796875,-0.2601165771484375
1776443399392827400,2.677827392578125,-0.9489593505859375,-0.0027618408203125,-0.2695770263671875
1776443399417843500,2.702843505859375,-0.9311065673828125,-0.0169830322265625,-0.24200439453125
1776443399442859300,2.727859375,-0.9514007568359375,0.258026123046875,-0.290985107421875
1776443399467874300,2.752874267578125,-1.121185302734375,0.1549072265625,-0.155731201171875
1776443399492890400,2.777890380859375,-0.9969940185546875,-0.0084381103515625,-0.132293701171875
1776443399517906200,2.80290625,-0.9562835693359375,-0.0208282470703125,-0.2270660400390625
1776443399542922200,2.827922119140625,-1.0722198486328125,0.052276611328125,-0.2274627685546875
1776443399567937300,2.852937255859375,-1.0513153076171875,-0.009429931640625,-0.0652313232421875
1776443399592953000,2.877953125,-1.12493896484375,-0.121063232421875,-0.13909912109375
1776443399617969200,2.90296923828125,-0.9191741943359375,-0.1446990966796875,-0.219512939453125
1776443399642985200,2.927985107421875,-0.9557647705078125,-0.17633056640625,-0.2130889892578125
1776443399668001300,2.953001220703125,-0.992462158203125,-0.1222686767578125,-0.171875
1776443399693016300,2.978016357421875,-1.0872344970703125,-0.1310882568359375,-0.1353759765625
1776443399718032400,3.003032470703125,-0.979888916015625,-0.257568359375,-0.1352691650390625
1776443399743048200,3.028048095703125,-0.8896331787109375,-0.15374755859375,-0.2636871337890625
1776443399768064300,3.053064208984375,-0.9654541015625,0.1601409912109375,-0.1292724609375
1776443399793079300,3.078079345703125,-0.806121826171875,-0.291259765625,-0.0767974853515625
1776443399818095000,3.10309521484375,-1.0043792724609375,-0.1675262451171875,-0.1450042724609375
1776443399843111200,3.128111083984375,-1.062530517578125,-0.14141845703125,-0.11541748046875
1776443399868127200,3.153127197265625,-0.869415283203125,-0.184478759765625,-0.2326812744140625
1776443399893143300,3.178143310546875,-0.8621063232421875,-0.142181396484375,-0.1769256591796875
1776443399918158300,3.203158447265625,-0.9614105224609375,-0.1180877685546875,-0.2602386474609375
1776443399943174400,3.22817431640625,-0.8886260986328125,-0.0617218017578125,-0.1369476318359375
1776443399968190200,3.253190185546875,-0.9763336181640625,-0.0260467529296875,-0.2143402099609375
1776443399993206300,3.278206298828125,-1.029327392578125,-0.009918212890625,-0.1007232666015625
1776443400018222300,3.303222412109375,-1.110748291015625,-0.0004425048828125,-0.045867919921875
1776443400043236900,3.32823681640625,-1.077392578125,-0.0605621337890625,-0.0378570556640625
1776443400068253000,3.3532529296875,-1.008575439453125,-0.0433349609375,-0.1268310546875
1776443400093269000,3.37826904296875,-1.0238189697265625,-0.0267791748046875,-0.431610107421875
1776443400118285000,3.40328515625,-0.97967529296875,-0.1316986083984375,-0.538360595703125
1776443400143301000,3.428301025390625,-0.7511444091796875,-0.12823486328125,-0.31939697265625
1776443400168316000,3.45331591796875,-0.9040679931640625,-0.0303192138671875,-0.1456756591796875
1776443400193332000,3.47833203125,-0.791229248046875,-0.1068878173828125,0.068328857421875
1776443400218348000,3.50334814453125,-1.10906982421875,-0.0277252197265625,0.052764892578125
1776443400243363800,3.52836376953125,-0.998931884765625,-0.0956573486328125,-0.07843017578125
1776443400268380000,3.5533798828125,-1.027801513671875,-0.073028564453125,-0.0823974609375
1776443400293395000,3.57839501953125,-1.0631866455078125,-0.03558349609375,0.07598876953125
1776443400318410800,3.60341064453125,-1.061126708984375,-0.0295562744140625,0.1440582275390625
1776443400343426800,3.6284267578125,-0.98760986328125,-0.06317138671875,0.1627349853515625
1776443400368443100,3.653443115234375,-1.065643310546875,-0.0188446044921875,0.1251678466796875
1776443400393458000,3.6784580078125,-1.0265655517578125,0.0025177001953125,0.1164093017578125
1776443400418474000,3.703473876953125,-0.9711761474609375,0.033294677734375,0.144378662109375
1776443400443490000,3.728489990234375,-1.0227203369140625,-0.013031005859375,0.1703948974609375
1776443400468505900,3.753505859375,-0.9861907958984375,-0.039520263671875,0.2071685791015625
1776443400493522000,3.77852197265625,-0.95867919921875,-0.10247802734375,-0.0076446533203125
1776443400518537000,3.803536865234375,-1.0346832275390625,-0.086761474609375,-0.24951171875
1776443400543552800,3.828552734375,-1.0539398193359375,-0.1528472900390625,-0.144989013671875
1776443400568568800,3.85356884765625,-1.01092529296875,-0.0279388427734375,-0.1844940185546875
1776443400593585000,3.8785849609375,-0.99072265625,0.0354156494140625,-0.1219482421875
1776443400618601000,3.90360107421875,-0.9600830078125,-0.0730743408203125,-0.085174560546875
1776443400643617000,3.928616943359375,-0.9739837646484375,-0.01849365234375,-0.22918701171875
1776443400668632000,3.953632080078125,-0.977935791015625,-0.123931884765625,-0.233734130859375
1776443400693648000,3.97864794921875,-0.890380859375,-0.150543212890625,-0.3329010009765625
1776443400718664000,4.003663818359375,-0.9103546142578125,-0.235382080078125,-0.2838592529296875
1776443400743680000,4.028679931640625,-0.9397430419921875,-0.1911468505859375,-0.1724090576171875
1776443400768694800,4.05369482421875,-1.015045166015625,-0.0877227783203125,-0.0030059814453125
1776443400793710800,4.0787109375,-1.0225982666015625,-0.1821441650390625,-0.0808868408203125
1776443400818727000,4.103726806640625,-1.0146636962890625,-0.2043914794921875,-0.0098114013671875
1776443400843742700,4.12874267578125,-1.02569580078125,-0.1646270751953125,-0.0267181396484375
1776443400868759000,4.153759033203125,-1.1038970947265625,-0.187408447265625,-0.0680694580078125
1776443400893775000,4.178775146484375,-1.0234375,-0.25299072265625,-0.054290771484375
1776443400918790000,4.203789794921875,-1.05633544921875,-0.0914306640625,-0.140655517578125
1776443400943806000,4.228805908203125,-1.0505218505859375,-0.099578857421875,-0.059234619140625
1776443400968822000,4.253822021484375,-1.0354156494140625,-0.0971832275390625,-0.047332763671875
1776443400993837800,4.278837890625,-0.98944091796875,-0.10272216796875,-0.07843017578125
1776443401018854000,4.30385400390625,-1.0157012939453125,-0.06103515625,-0.0481719970703125
1776443401043868700,4.32886865234375,-1.0271759033203125,-0.0680999755859375,-0.0405120849609375
1776443401068884700,4.353884765625,-0.9932708740234375,-0.097381591796875,-0.1693267822265625
1776443401093900800,4.37890087890625,-0.967437744140625,-0.0708160400390625,-0.2011871337890625
1776443401118916900,4.403916748046875,-1.01788330078125,-0.06195068359375,-0.1035614013671875
1776443401143932700,4.4289326171875,-1.067657470703125,-0.056182861328125,-0.0467071533203125
1776443401168947700,4.45394775390625,-0.968017578125,-0.112274169921875,-0.11309814453125
1776443401193963800,4.4789638671875,-1.0184478759765625,-0.02899169921875,-0.0745849609375
1776443401218979600,4.5039794921875,-1.008270263671875,-0.007232666015625,-0.085693359375
1776443401243995600,4.52899560546875,-0.991943359375,-0.0505218505859375,-0.0931243896484375
1776443401269011700,4.55401171875,-0.97747802734375,0.0063323974609375,-0.0963592529296875
1776443401294026500,4.579026611328125,-1.0110931396484375,0.0035552978515625,-0.1230316162109375
1776443401319042600,4.60404248046875,-0.989410400390625,-0.0112457275390625,-0.2227630615234375
1776443401344059000,4.629058837890625,-0.9618988037109375,-0.0226898193359375,-0.277557373046875
1776443401369074700,4.65407470703125,-0.92828369140625,-0.0099945068359375,-0.255828857421875
1776443401394090800,4.6790908203125,-0.912933349609375,0.0256805419921875,-0.28387451171875
1776443401419106800,4.70410693359375,-0.9150238037109375,0.0905609130859375,-0.2396392822265625
1776443401444121600,4.72912158203125,-0.8845977783203125,0.1065521240234375,-0.27313232421875
1776443401469137700,4.7541376953125,-0.8597564697265625,0.1130828857421875,-0.1513671875
1776443401494153700,4.77915380859375,-0.8972320556640625,0.13006591796875,-0.0570220947265625
1776443401519169800,4.804169677734375,-0.892852783203125,0.0794677734375,-0.0518798828125
1776443401544185600,4.829185546875,-0.8470458984375,0.0353240966796875,-0.13397216796875
1776443401569200600,4.85420068359375,-0.9585418701171875,-0.02923583984375,-0.1278533935546875
1776443401594216700,4.879216796875,-0.876220703125,-0.038787841796875,0.0763397216796875
1776443401619232800,4.904232666015625,-0.9820098876953125,-0.0623626708984375,0.0959320068359375
1776443401644248800,4.929248779296875,-1.0265960693359375,-0.0614013671875,-0.0402679443359375
1776443401669265000,4.954264892578125,-1.004730224609375,-0.081298828125,-0.0406341552734375
1776443401694280700,4.97928076171875,-1.0288543701171875,-0.0288543701171875,0.0059661865234375
1776443401719295700,5.004295654296875,-1.0018310546875,-0.190216064453125,0.0563201904296875
1776443401744311800,5.029311767578125,-1.0019683837890625,-0.3647918701171875,-0.0300750732421875
1776443401769327600,5.05432763671875,-1.1014862060546875,-0.258148193359375,-0.1681060791015625
1776443401794343700,5.07934375,-1.0365142822265625,-0.2291412353515625,-0.1319427490234375
1776443401819359700,5.10435986328125,-1.1526641845703125,-0.13214111328125,-0.1305694580078125
1776443401844374800,5.129374755859375,-1.0035858154296875,-0.140716552734375,-0.1890869140625
1776443401869390800,5.154390869140625,-1.012939453125,-0.181793212890625,-0.2454986572265625
1776443401894407000,5.179406982421875,-1.08154296875,-0.226043701171875,-0.3721923828125
1776443401919422700,5.204422607421875,-0.98907470703125,-0.181060791015625,-0.390167236328125
1776443401944438800,5.229438720703125,-1.061798095703125,-0.1101226806640625,-0.337371826171875
1776443401969454800,5.254454833984375,-0.98895263671875,-0.0908355712890625,-0.3511505126953125
1776443401994469600,5.2794697265625,-0.9430084228515625,-0.134613037109375,-0.287689208984375
1776443402019485700,5.304485595703125,-0.968719482421875,-0.0061798095703125,-0.2626953125
1776443402044501800,5.329501708984375,-0.9253387451171875,0.02655029296875,-0.344482421875
1776443402069517800,5.354517822265625,-0.8908843994140625,0.0170440673828125,-0.366668701171875
1776443402094533600,5.37953369140625,-0.8863525390625,0.032501220703125,-0.323883056640625
1776443402119548700,5.404548583984375,-0.865936279296875,0.056793212890625,-0.3174896240234375
1776443402144565000,5.42956494140625,-0.89263916015625,0.068634033203125,-0.27838134765625
1776443402169580800,5.454580810546875,-0.906982421875,0.055450439453125,-0.2940521240234375
1776443402194596900,5.479596923828125,-0.908935546875,0.032257080078125,-0.3620147705078125
1776443402219613000,5.504613037109375,-0.9327545166015625,-0.04791259765625,-0.3749542236328125
1776443402244628700,5.529628662109375,-0.9308319091796875,0.0338134765625,-0.3507843017578125
1776443402269643800,5.554643798828125,-0.9278717041015625,-0.040008544921875,-0.3932952880859375
1776443402294659800,5.579659912109375,-0.9719696044921875,-0.061798095703125,-0.366302490234375
1776443402319675600,5.604675537109375,-1.005828857421875,-0.034332275390625,-0.3233642578125
1776443402344691700,5.629691650390625,-0.998809814453125,-0.0714111328125,-0.342803955078125
1776443402369707800,5.654707763671875,-0.99871826171875,-0.07403564453125,-0.34136962890625
1776443402394723800,5.679723876953125,-1.019378662109375,-0.047760009765625,-0.30181884765625
1776443402419739000,5.70473876953125,-0.990325927734375,-0.036529541015625,-0.262359619140625
1776443402444755000,5.7297548828125,-0.9794158935546875,-0.02435302734375,-0.1626129150390625
1776443402469770800,5.754770751953125,-0.991485595703125,0.0704803466796875,0.0936431884765625
1776443402494786800,5.779786865234375,-0.839569091796875,-0.0288238525390625,-0.265533447265625
1776443402519803000,5.804802978515625,-0.857025146484375,-0.015533447265625,-0.3034820556640625
1776443402544819000,5.82981884765625,-0.9070281982421875,-0.01910400390625,-0.2219085693359375
1776443402569833700,5.854833740234375,-1.0008392333984375,-0.00958251953125,-0.240020751953125
1776443402594849800,5.879849853515625,-0.9633636474609375,-0.006256103515625,-0.26019287109375
1776443402619865600,5.904865478515625,-0.941680908203125,0.004241943359375,-0.2706146240234375
1776443402644881700,5.929881591796875,-0.9505157470703125,0.0494537353515625,-0.21649169921875
1776443402669897700,5.954897705078125,-0.8850250244140625,0.0621795654296875,-0.1716461181640625
1776443402694913800,5.979913818359375,-0.9076995849609375,0.0002288818359375,-0.21221923828125
1776443402719928800,6.0049287109375,-1.046630859375,-0.0426788330078125,-0.3162078857421875
1776443402744945000,6.02994482421875,-0.9380035400390625,-0.0625152587890625,-0.3355560302734375
1776443402769961000,6.0549609375,-0.8475341796875,-0.0868988037109375,-0.3071136474609375
1776443402794976800,6.079976806640625,-0.971710205078125,-0.12139892578125,-0.278839111328125
1776443402819992800,6.104992919921875,-0.974578857421875,-0.1129608154296875,-0.2336883544921875
1776443402845009000,6.1300087890625,-0.97796630859375,-0.1406402587890625,-0.237945556640625
1776443402870023700,6.155023681640625,-0.9229278564453125,-0.104217529296875,-0.2989349365234375
1776443402895039700,6.180039794921875,-0.94549560546875,-0.093597412109375,-0.33203125
1776443402920055800,6.205055908203125,-0.9445648193359375,-0.06121826171875,-0.2888641357421875
1776443402945071600,6.230071533203125,-0.99407958984375,-0.1001739501953125,-0.266326904296875
1776443402970087700,6.255087646484375,-0.9619903564453125,-0.1019744873046875,-0.2717742919921875
1776443402995103700,6.280103759765625,-1.010833740234375,-0.1399078369140625,-0.2894744873046875
1776443403020118800,6.305118896484375,-0.9315032958984375,-0.1255645751953125,-0.2510833740234375
1776443403045136000,6.330135986328125,-0.97314453125,-0.1106109619140625,-0.2363128662109375
1776443403070151700,6.355151611328125,-0.948089599609375,-0.069091796875,-0.272186279296875
1776443403095168000,6.38016796875,-0.9605255126953125,-0.0694732666015625,-0.2870330810546875
1776443403120184000,6.40518408203125,-0.90704345703125,-0.0808868408203125,-0.2836456298828125
1776443403145200000,6.4302001953125,-0.931121826171875,-0.1285400390625,-0.3010711669921875
1776443403170215000,6.45521484375,-0.8991241455078125,-0.09246826171875,-0.350250244140625
1776443403195231000,6.48023095703125,-0.9185791015625,-0.1153106689453125,-0.3301544189453125
1776443403220246800,6.505246826171875,-0.92791748046875,-0.0748748779296875,-0.34429931640625
1776443403245262800,6.530262939453125,-0.903106689453125,-0.012481689453125,-0.39178466796875
1776443403270279000,6.55527880859375,-0.953704833984375,-0.000244140625,-0.3674774169921875
1776443403295295000,6.580294921875,-0.98492431640625,-0.054168701171875,-0.315032958984375
1776443403320309800,6.605309814453125,-0.991180419921875,-0.0068206787109375,-0.3283538818359375
1776443403345325800,6.630325927734375,-0.999755859375,0.00616455078125,-0.31329345703125
1776443403370342100,6.655342041015625,-0.9990386962890625,0.0363616943359375,-0.3186187744140625
1776443403395358000,6.68035791015625,-1.00262451171875,0.076446533203125,-0.3623809814453125
1776443403420374000,6.7053740234375,-0.9784393310546875,0.0352935791015625,-0.32159423828125
1776443403445390000,6.73039013671875,-1.00946044921875,-0.036346435546875,-0.2914886474609375
1776443403470404900,6.75540478515625,-0.988006591796875,-0.043670654296875,-0.2978668212890625
1776443403495421000,6.7804208984375,-1.017364501953125,-0.015472412109375,-0.3222808837890625
1776443403520437000,6.80543701171875,-0.978790283203125,-0.07080078125,-0.147918701171875
1776443403545452800,6.830452880859375,-0.9311676025390625,-0.0198516845703125,-0.2438507080078125
1776443403570468900,6.85546875,-0.8981475830078125,-0.0876007080078125,-0.331451416015625
1776443403595485000,6.88048486328125,-0.95050048828125,-0.005645751953125,-0.23602294921875
1776443403620500000,6.9055,-0.9900054931640625,-0.041351318359375,-0.346160888671875
1776443403645516000,6.93051611328125,-0.900634765625,-0.1138153076171875,-0.34893798828125
1776443403670532000,6.955531982421875,-0.9624786376953125,0.002655029296875,-0.364349365234375
1776443403695548000,6.9805478515625,-1.0276336669921875,-0.1280364990234375,-0.100616455078125
1776443403720564000,7.00556396484375,-1.0551910400390625,-0.095733642578125,-0.0290679931640625
1776443403745580000,7.030580078125,-1.027862548828125,-0.046844482421875,-0.0893096923828125
1776443403770595800,7.055595947265625,-0.94989013671875,0.0193939208984375,-0.1378021240234375
1776443403795611000,7.08061083984375,-0.9595794677734375,-0.123565673828125,-0.1648101806640625
1776443403820627000,7.105626953125,-0.9111175537109375,-0.152984619140625,-0.22369384765625
1776443403845642800,7.130642822265625,-0.9438018798828125,-0.12451171875,-0.1475982666015625
1776443403870658800,7.155658935546875,-0.99188232421875,-0.0963134765625,-0.0702972412109375
1776443403895675000,7.1806748046875,-0.93658447265625,-0.1134185791015625,-0.2010040283203125
1776443403920691000,7.20569091796875,-0.9600982666015625,-0.0860748291015625,-0.1772918701171875
1776443403945706000,7.2307060546875,-0.9895782470703125,-0.0814208984375,-0.0424041748046875
1776443403970722000,7.25572216796875,-1.0008697509765625,-0.0924530029296875,-0.060577392578125
1776443403995737900,7.28073779296875,-1.046539306640625,-0.00067138671875,-0.1308746337890625
1776443404020754000,7.30575390625,-0.9766387939453125,0.032562255859375,-0.150360107421875
1776443404045769200,7.330769287109375,-1.0487213134765625,-0.022186279296875,-0.052398681640625
1776443404070785300,7.355785400390625,-1.030914306640625,0.017974853515625,-0.0865936279296875
1776443404095800000,7.380800048828125,-1.03662109375,0.09197998046875,-0.1244964599609375
1776443404120816000,7.405816162109375,-1.0130767822265625,0.013946533203125,-0.0596160888671875
1776443404145832200,7.430832275390625,-1.0705108642578125,-0.0315093994140625,0.0046539306640625
1776443404170848300,7.45584814453125,-0.9886932373046875,-0.020660400390625,-0.1431427001953125
1776443404195864300,7.4808642578125,-0.9645843505859375,-0.028472900390625,-0.194488525390625
1776443404220880400,7.50588037109375,-0.9916839599609375,-0.022735595703125,-0.2028961181640625
1776443404245895200,7.530895263671875,-0.971343994140625,-0.0526885986328125,-0.23565673828125
1776443404270911200,7.5559111328125,-0.9987640380859375,-0.056640625,-0.1658782958984375
1776443404295927300,7.58092724609375,-1.057098388671875,-0.10479736328125,-0.1563262939453125
1776443404320943000,7.605943115234375,-0.8692474365234375,0.014251708984375,-0.0665283203125
1776443404345959200,7.630959228515625,-1.0669708251953125,-0.050384521484375,-0.09686279296875
1776443404370975200,7.655975341796875,-0.9359893798828125,-0.05487060546875,-0.091461181640625
1776443404395991000,7.680990966796875,-1.0269012451171875,-0.0778350830078125,-0.1308746337890625
1776443404421006000,7.706006103515625,-0.9882965087890625,-0.0701751708984375,-0.130035400390625
1776443404446022400,7.7310224609375,-0.9608154296875,-0.1038818359375,-0.1382904052734375
1776443404471038200,7.7560380859375,-1.0157012939453125,-0.1398162841796875,-0.0785369873046875
1776443404496054300,7.78105419921875,-0.9442138671875,-0.039337158203125,-0.0993499755859375
1776443404521070300,7.8060703125,-0.8824005126953125,-0.1329345703125,-0.098785400390625
1776443404546086100,7.831086181640625,-1.0329437255859375,-0.1952667236328125,-0.044464111328125
1776443404571101200,7.85610107421875,-0.8831634521484375,-0.138702392578125,-0.030120849609375
1776443404596117200,7.8811171875,-1.0509796142578125,-0.1799468994140625,-0.0001373291015625
1776443404621133000,7.906133056640625,-1.055938720703125,-0.1557159423828125,0.0308074951171875
1776443404646149000,7.931149169921875,-0.78240966796875,-0.028778076171875,0.0948944091796875
1776443404671165200,7.956165283203125,-1.070770263671875,-0.107757568359375,0.03997802734375
1776443404696181200,7.98118115234375,-1.0637664794921875,-0.01776123046875,0.0373077392578125
1776443404721196300,8.0061962890625,-1.0247955322265625,0.0991058349609375,-0.02276611328125
1776443404746212400,8.03121240234375,-1.0657806396484375,0.001708984375,-0.155364990234375
1776443404771228200,8.056228271484375,-1.0810089111328125,-0.0639190673828125,-0.1483917236328125
1776443404796244200,8.081244140625,-1.0095062255859375,-0.0196685791015625,-0.2277679443359375
1776443404821260300,8.10626025390625,-0.913482666015625,0.02783203125,-0.24560546875
1776443404846276400,8.1312763671875,-0.910003662109375,0.0970001220703125,-0.200347900390625
1776443404871292200,8.156292236328126,-0.983978271484375,0.1369171142578125,-0.161224365234375
1776443404896307200,8.18130712890625,-1.0942840576171875,0.127471923828125,-0.1277618408203125
1776443404921323300,8.2063232421875,-1.081085205078125,0.046173095703125,-0.06597900390625
1776443404946339000,8.231339111328126,-1.05609130859375,-0.0644378662109375,0.00341796875
1776443404971355100,8.256355224609376,-1.031768798828125,-0.035186767578125,0.1557464599609375
1776443404996371200,8.28137109375,-0.9976959228515625,-0.0924072265625,-0.006561279296875
1776443405021387000,8.306386962890626,-0.957916259765625,-0.1312408447265625,-0.0103759765625
1776443405046401800,8.33140185546875,-0.952911376953125,-0.1157989501953125,-0.09588623046875
1776443405071417900,8.35641796875,-0.9028167724609375,-0.056793212890625,-0.084625244140625
1776443405096433700,8.38143359375,-0.9943389892578125,-0.0868988037109375,0.03570556640625
1776443405121449700,8.40644970703125,-0.95599365234375,-0.1091156005859375,0.0535736083984375
1776443405146465800,8.4314658203125,-1.01031494140625,-0.1598358154296875,-0.1655731201171875
1776443405171481600,8.456481689453126,-0.96380615234375,0.002410888671875,-0.1707000732421875
1776443405196497700,8.48149755859375,-0.87078857421875,0.0012054443359375,-0.099884033203125
1776443405221512700,8.5065126953125,-1.0386962890625,-0.00701904296875,-0.16998291015625
1776443405246528500,8.531528564453126,-0.947052001953125,0.10247802734375,-0.1971893310546875
1776443405271544600,8.556544677734376,-1.0468597412109375,-0.079833984375,-0.340789794921875
1776443405296560600,8.581560546875,-1.09393310546875,-0.025909423828125,-0.177154541015625
1776443405321576700,8.60657666015625,-1.079315185546875,-0.0751495361328125,-0.0538787841796875
1776443405346592800,8.6315927734375,-1.0353240966796875,-0.0056304931640625,0.0853424072265625
1776443405371608800,8.65660888671875,-0.996337890625,-0.0654754638671875,0.157623291015625
1776443405396623600,8.68162353515625,-0.9957122802734375,-0.130615234375,0.02740478515625
1776443405421639700,8.7066396484375,-0.9773712158203125,-0.198883056640625,-0.0569000244140625
1776443405446655700,8.73165576171875,-0.9163818359375,-0.2501678466796875,-0.094940185546875
1776443405471671600,8.756671630859374,-0.9379730224609375,-0.1427764892578125,-0.06427001953125
1776443405496687600,8.7816875,-0.967529296875,-0.024627685546875,-0.015838623046875
1776443405521703700,8.80670361328125,-0.982666015625,-0.0871734619140625,0.0071563720703125
1776443405546719700,8.8317197265625,-1.0223388671875,-0.0402984619140625,0.0129241943359375
1776443405571734800,8.85673486328125,-1.0554656982421875,-0.0389862060546875,0.0289154052734375
1776443405596750800,8.881750732421875,-1.0265045166015625,-0.05145263671875,0.0202484130859375
1776443405621767000,8.906766845703125,-0.9693756103515625,-0.057098388671875,-0.02459716796875
1776443405646782700,8.93178271484375,-0.9690399169921875,0.0076904296875,-0.07525634765625
1776443405671798800,8.956798828125,-0.972686767578125,-0.0147247314453125,-0.1336669921875
1776443405696814800,8.98181494140625,-0.938629150390625,-0.003936767578125,-0.1663818359375
1776443405721830700,9.00683056640625,-0.969207763671875,0.038604736328125,-0.184112548828125
1776443405746845700,9.031845703125,-0.9670867919921875,0.0770111083984375,-0.207183837890625
1776443405771861800,9.05686181640625,-1.02923583984375,0.0834197998046875,-0.23004150390625
1776443405796877600,9.081877685546875,-1.01605224609375,0.0973968505859375,-0.2084197998046875
1776443405821893600,9.1068935546875,-1.022918701171875,0.096710205078125,-0.1956939697265625
1776443405846909700,9.13190966796875,-1.0438079833984375,0.0662994384765625,-0.1784210205078125
1776443405871925500,9.156925537109375,-1.0113525390625,0.0364227294921875,-0.1623992919921875
1776443405896941600,9.181941650390625,-1.007354736328125,0.038330078125,-0.1021728515625
1776443405921956900,9.206956787109375,-0.95904541015625,0.0150604248046875,-0.267608642578125
1776443405946972700,9.23197265625,-0.9102935791015625,0.0888519287109375,-0.0965728759765625
1776443405971988700,9.25698876953125,-0.98370361328125,-0.034912109375,-0.1426544189453125
1776443405997004800,9.2820048828125,-0.929473876953125,-0.0315399169921875,-0.20306396484375
1776443406022020600,9.3070205078125,-1.006927490234375,0.1180572509765625,-0.1131134033203125
1776443406047037700,9.33203759765625,-1.0117950439453125,0.0609588623046875,-0.21514892578125
1776443406072052700,9.357052734375,-0.99774169921875,0.0710296630859375,-0.0993499755859375
1776443406097068500,9.382068603515625,-1.0799560546875,0.0303497314453125,-0.1362152099609375
1776443406122084600,9.407084716796875,-0.9285430908203125,0.00634765625,-0.123321533203125
1776443406147100700,9.4321005859375,-0.9920196533203125,0.0466766357421875,-0.178131103515625
1776443406172116700,9.45711669921875,-0.9613494873046875,0.049285888671875,-0.1795654296875
1776443406197132500,9.482132568359376,-0.9668121337890625,0.0238189697265625,-0.13232421875
1776443406222148600,9.507148681640626,-1.0504150390625,0.05828857421875,-0.0071563720703125
1776443406247163600,9.53216357421875,-0.99957275390625,0.050201416015625,-0.1135101318359375
1776443406272179700,9.5571796875,-1.024139404296875,0.0468902587890625,-0.1793365478515625
1776443406297195800,9.58219580078125,-0.8969879150390625,0.1014862060546875,-0.0791168212890625
1776443406322211800,9.6072119140625,-0.94769287109375,0.1098785400390625,-0.142669677734375
1776443406347227600,9.6322275390625,-0.9234161376953125,0.1457061767578125,-0.16766357421875
1776443406372243700,9.65724365234375,-0.940521240234375,0.1089324951171875,-0.1642913818359375
1776443406397259800,9.682259765625,-0.851776123046875,0.1297607421875,-0.1304931640625
1776443406422275600,9.707275634765624,-0.917572021484375,0.128692626953125,-0.140167236328125
1776443406447290600,9.73229052734375,-0.967559814453125,0.05078125,-0.0741729736328125
1776443406472306700,9.757306640625,-0.9612274169921875,0.0611114501953125,-0.1341400146484375
1776443406497322500,9.782322509765624,-0.9580078125,0.0902099609375,-0.095428466796875
1776443406522338600,9.807338623046874,-1.0048675537109375,0.0824432373046875,-0.02783203125
1776443406547354600,9.832354736328124,-1.107879638671875,0.0797576904296875,-0.069488525390625
1776443406572370700,9.85737060546875,-1.01873779296875,0.0988311767578125,-0.13275146484375
1776443406597385700,9.8823857421875,-1.0411224365234375,0.1367340087890625,-0.070587158203125
1776443406622401800,9.90740185546875,-1.0979156494140625,0.0945281982421875,0.096588134765625
1776443406647417600,9.93241748046875,-1.11175537109375,0.088134765625,0.029205322265625
1776443406672433700,9.95743359375,-1.06256103515625,0.116851806640625,-0.0545501708984375
1776443406697449700,9.98244970703125,-1.033111572265625,0.1324310302734375,0.031280517578125
1776443406722465800,10.0074658203125,-1.03857421875,0.1265869140625,0.082427978515625
1776443406747481600,10.032481689453125,-1.0486297607421875,0.1031646728515625,-0.009185791015625
1776443406772497700,10.05749755859375,-1.0452880859375,0.0872955322265625,0.01031494140625
1776443406797512400,10.082512451171874,-1.03948974609375,0.0724334716796875,0.0345458984375
1776443406822528500,10.107528564453125,-1.0033111572265625,0.0756988525390625,0.0078125
1776443406847544600,10.132544677734375,-0.972930908203125,0.1027984619140625,-0.0673980712890625
1776443406872560600,10.157560546875,-0.9506378173828125,0.091094970703125,-0.065826416015625
1776443406897576400,10.182576416015625,-1.02386474609375,0.025543212890625,-0.1127166748046875
1776443406922592500,10.207592529296875,-1.0189666748046875,-0.03643798828125,-0.3455963134765625
1776443406947608800,10.23260888671875,-0.9579925537109375,-0.0218353271484375,-0.2267608642578125
1776443406972623600,10.25762353515625,-0.994049072265625,-0.00823974609375,-0.1311798095703125
1776443406997639700,10.2826396484375,-0.930877685546875,0.133026123046875,-0.07733154296875
1776443407022655700,10.30765576171875,-0.9734039306640625,0.1568450927734375,-0.03179931640625
1776443407047671300,10.33267138671875,-1.0153045654296875,0.1295928955078125,-0.03326416015625
1776443407072687400,10.357687255859375,-1.0694427490234375,0.0330047607421875,-0.2648468017578125
1776443407097703200,10.382703125,-0.8816375732421875,0.05035400390625,-0.1745147705078125
1776443407122719200,10.40771923828125,-0.949005126953125,0.100982666015625,0.0252685546875
1776443407147734500,10.432734619140625,-1.0195465087890625,0.0892333984375,-0.0260009765625
1776443407172750300,10.457750244140625,-0.9079742431640625,0.054412841796875,-0.157623291015625
1776443407197766400,10.482766357421875,-0.913909912109375,0.0558319091796875,-0.13043212890625
1776443407222782500,10.507782470703125,-0.923431396484375,0.06591796875,-0.0819854736328125
1776443407247798300,10.53279833984375,-0.95867919921875,-0.028289794921875,-0.2323150634765625
1776443407272814300,10.557814453125,-1.0066070556640625,-0.018951416015625,-0.1055908203125
1776443407297830400,10.582830322265625,-1.0308990478515625,-0.0589752197265625,-0.040374755859375
1776443407322846500,10.607846435546875,-0.98394775390625,-0.049957275390625,-0.1086273193359375
1776443407347861200,10.632861328125,-1.0091705322265625,-0.01312255859375,-0.2120819091796875
1776443407372877300,10.657877197265625,-1.0540924072265625,-0.032257080078125,-0.2109375
1776443407397893400,10.682893310546875,-1.0143280029296875,-0.0743255615234375,-0.2232208251953125
1776443407422909200,10.7079091796875,-0.9799041748046875,-0.0303802490234375,-0.225341796875
1776443407447925200,10.73292529296875,-1.010406494140625,-0.065673828125,-0.346527099609375
1776443407472941300,10.75794140625,-0.9257659912109375,-0.17864990234375,-0.350738525390625
1776443407497957000,10.78295703125,-1.065093994140625,-0.146514892578125,-0.1958160400390625
1776443407522972400,10.807972412109375,-1.01678466796875,-0.104644775390625,-0.077392578125
1776443407547988500,10.832988525390626,-1.00238037109375,-0.0727996826171875,-0.1197509765625
1776443407573004300,10.85800439453125,-0.962371826171875,-0.057525634765625,-0.14263916015625
1776443407598020400,10.883020263671876,-0.963348388671875,0.0670928955078125,-0.1649017333984375
1776443407623036400,10.908036376953126,-1.0222320556640625,-0.016265869140625,-0.152008056640625
1776443407648052200,10.93305224609375,-0.9827117919921875,-0.0350341796875,-0.1663818359375
1776443407673068300,10.958068359375,-1.018310546875,0.0192413330078125,-0.1740570068359375
1776443407698084400,10.98308447265625,-0.9362030029296875,0.028411865234375,-0.1867218017578125
1776443407723099100,11.00809912109375,-0.992706298828125,0.0029449462890625,-0.189483642578125
1776443407748115200,11.033115234375,-0.93731689453125,-0.0137176513671875,-0.1784210205078125
1776443407773131300,11.05813134765625,-1.07958984375,-0.0972137451171875,-0.118194580078125
1776443407798147300,11.083147216796876,-0.997955322265625,-0.04107666015625,-0.0950469970703125
1776443407823163400,11.108163330078124,-1.04412841796875,-0.0326080322265625,-0.16351318359375
1776443407848179500,11.133179443359374,-0.93548583984375,-0.041351318359375,-0.0891876220703125
1776443407873195500,11.158195556640624,-1.0234375,0.0115966796875,-0.024993896484375
1776443407898211300,11.18321142578125,-1.0174102783203125,0.000732421875,-0.0710906982421875
1776443407923226400,11.208226318359374,-0.9410400390625,-0.100311279296875,-0.0908966064453125
1776443407948242400,11.233242431640624,-1.0028228759765625,0.0186614990234375,-0.139801025390625
1776443407973258200,11.25825830078125,-0.9693145751953125,-0.0063934326171875,-0.149505615234375
1776443407998274300,11.2832744140625,-0.9118499755859375,-0.006500244140625,-0.1103668212890625
1776443408023290400,11.308290283203124,-0.984161376953125,0.0811767578125,-0.1017913818359375
1776443408048306200,11.33330615234375,-0.9589385986328125,0.1025238037109375,-0.0946044921875
1776443408073322200,11.358322265625,-0.931365966796875,-0.0467529296875,-0.102020263671875
1776443408098337500,11.383337646484375,-1.0086212158203125,-0.0969696044921875,-0.103118896484375
1776443408123353300,11.408353271484375,-1.031951904296875,-0.108978271484375,-0.051513671875
1776443408148369400,11.433369384765625,-0.9877166748046875,-0.08758544921875,-0.0321197509765625
1776443408173385500,11.458385498046875,-1.0080413818359375,-0.079803466796875,-0.045135498046875
1776443408198401300,11.4834013671875,-1.0160064697265625,-0.160552978515625,-0.0345611572265625
1776443408223417300,11.508417236328125,-1.0437469482421875,-0.1318359375,-0.1129913330078125
1776443408248433400,11.533433349609375,-1.03131103515625,-0.1265411376953125,-0.1062164306640625
1776443408273449500,11.558449462890625,-0.9790191650390625,-0.157867431640625,-0.02362060546875
1776443408298464300,11.58346435546875,-1.0400238037109375,0.0220947265625,-0.0196685791015625
1776443408323480300,11.608480224609375,-0.9671630859375,-0.081756591796875,-0.0815582275390625
1776443408348496100,11.63349609375,-1.0234527587890625,-0.2599334716796875,-0.2130126953125
1776443408373512200,11.65851220703125,-1.04443359375,-0.1852569580078125,-0.2556304931640625
1776443408398528300,11.6835283203125,-1.0279541015625,-0.04644775390625,-0.278656005859375
1776443408423544300,11.70854443359375,-1.0316925048828125,-0.0059967041015625,-0.296356201171875
1776443408448560000,11.73356005859375,-0.9703521728515625,-0.0149993896484375,-0.2581329345703125
1776443408473576200,11.758576171875,-1.005767822265625,-0.115631103515625,-0.2104339599609375
1776443408498591500,11.783591552734375,-1.023345947265625,-0.0633392333984375,-0.3125762939453125
1776443408523607300,11.808607177734375,-1.0168304443359375,-0.1007232666015625,-0.39666748046875
1776443408548623400,11.833623291015625,-1.046966552734375,-0.089111328125,-0.1780853271484375
1776443408573639400,11.858639404296875,-1.0906219482421875,0.0257110595703125,-0.0693817138671875
1776443408598655200,11.8836552734375,-0.9457855224609375,-0.0308837890625,-0.0771942138671875
1776443408623671300,11.90867138671875,-1.0194854736328125,0.045013427734375,-0.0487823486328125
1776443408648687400,11.933687255859375,-0.94842529296875,0.14227294921875,-0.070220947265625
1776443408673703400,11.958703369140625,-0.9540252685546875,0.081695556640625,-0.1974334716796875
1776443408698718200,11.98371826171875,-0.9554443359375,0.0741119384765625,-0.2201385498046875
1776443408723734300,12.008734375,-0.9494476318359375,0.0032958984375,-0.2540130615234375
1776443408748750300,12.033750244140625,-0.946746826171875,0.01446533203125,-0.1961822509765625
1776443408773766400,12.058766357421876,-1.017578125,0.172454833984375,0.078125
1776443408798782500,12.083782470703126,-0.95355224609375,0.0574188232421875,0.05078125
1776443408823798500,12.108798583984376,-0.90936279296875,0.11749267578125,0.0783843994140625
1776443408848814300,12.133814453125,-0.9666900634765625,0.0420379638671875,-0.1600799560546875
1776443408873830400,12.158830322265626,-0.9782562255859375,0.0481719970703125,-0.16510009765625
1776443408898845400,12.183845458984376,-0.98028564453125,0.0246124267578125,-0.181640625
1776443408923861200,12.208861328125,-0.9429473876953125,-0.027984619140625,-0.2385101318359375
1776443408948877300,12.233877197265626,-0.999237060546875,0.0291900634765625,-0.2747039794921875
1776443408973893400,12.258893310546876,-0.9402923583984375,0.0676727294921875,-0.2969818115234375
1776443408998909200,12.2839091796875,-0.9102783203125,0.01434326171875,-0.2652130126953125
1776443409023925200,12.30892529296875,-0.9605560302734375,0.0865631103515625,-0.215911865234375
1776443409048940500,12.3339404296875,-0.976806640625,0.1116943359375,-0.208831787109375
1776443409073956600,12.35895654296875,-0.9274749755859375,0.1029815673828125,-0.1859283447265625
1776443409098972000,12.383971923828126,-0.94952392578125,0.1458892822265625,-0.1587982177734375
1776443409123987700,12.40898779296875,-0.941864013671875,0.0994110107421875,-0.1768341064453125
1776443409149003800,12.434003662109374,-0.9449615478515625,0.0987548828125,-0.0795135498046875
1776443409174019800,12.459019775390624,-1.10394287109375,-0.0113067626953125,0.006256103515625
1776443409199036000,12.484035888671874,-0.9984588623046875,-0.0264129638671875,-0.0889434814453125
1776443409224051700,12.5090517578125,-0.988128662109375,0.0308990478515625,-0.113983154296875
1776443409249067800,12.53406787109375,-0.9217529296875,0.103607177734375,-0.159942626953125
1776443409274083800,12.559083740234374,-0.9553985595703125,-0.04888916015625,-0.1458892822265625
1776443409299098600,12.5840986328125,-1.026275634765625,-0.006988525390625,-0.130615234375
1776443409324114700,12.60911474609375,-0.964691162109375,0.06549072265625,-0.1148681640625
1776443409349130800,12.634130859375,-1.048126220703125,0.000030517578125,0.00836181640625
1776443409374146800,12.659146728515625,-1.10009765625,-0.045623779296875,-0.0651092529296875
1776443409399163000,12.684162841796875,-0.99615478515625,-0.0448760986328125,-0.0498046875
1776443409424179000,12.709178955078125,-0.946533203125,0.008331298828125,-0.0662384033203125
1776443409449194800,12.73419482421875,-1.0329437255859375,-0.0532379150390625,-0.16351318359375
1776443409474210800,12.7592109375,-1.0404815673828125,-0.0411376953125,-0.226654052734375
1776443409499227000,12.784226806640625,-0.90386962890625,0.05352783203125,-0.312652587890625
1776443409524241700,12.80924169921875,-0.853790283203125,-0.0098114013671875,-0.3600921630859375
1776443409549257700,12.8342578125,-0.899993896484375,-0.0062103271484375,-0.3929290771484375
1776443409574273800,12.859273681640625,-0.97662353515625,0.0409698486328125,-0.3419952392578125
1776443409599289600,12.88428955078125,-0.8961944580078125,0.03277587890625,-0.2811279296875
1776443409624305700,12.9093056640625,-0.9353179931640625,-0.064910888671875,-0.2996063232421875
1776443409649321700,12.93432177734375,-0.957489013671875,-0.007110595703125,-0.277618408203125
1776443409674337800,12.959337890625,-1.022705078125,0.0180511474609375,-0.22296142578125
1776443409699353600,12.984353515625,-1.0977935791015625,-0.0713043212890625,-0.1278228759765625
1776443409724369000,13.009368896484375,-0.9636688232421875,-0.0511016845703125,-0.1305084228515625
1776443409749385000,13.034385009765625,-1.00323486328125,-0.0632171630859375,-0.1873016357421875
1776443409774400800,13.05940087890625,-0.9394683837890625,-0.0181732177734375,-0.2418060302734375
1776443409799416800,13.084416748046875,-1.00927734375,-0.067962646484375,-0.1666107177734375
1776443409824433000,13.109432861328125,-1.01849365234375,-0.140380859375,-0.0854949951171875
1776443409849448700,13.13444873046875,-0.95440673828125,-0.0811767578125,-0.1670379638671875
1776443409874464800,13.15946484375,-1.013824462890625,-0.06988525390625,-0.234588623046875
1776443409899480800,13.184480712890625,-0.96319580078125,-0.101318359375,-0.203887939453125
1776443409924497000,13.209496826171875,-0.98553466796875,-0.1355133056640625,-0.20611572265625
1776443409949511700,13.23451171875,-0.9823455810546875,-0.155059814453125,-0.2595977783203125
1776443409974527700,13.25952783203125,-0.9285125732421875,-0.15533447265625,-0.299957275390625
1776443409999543600,13.28454345703125,-0.9793548583984375,-0.1699676513671875,-0.273162841796875
1776443410024559600,13.3095595703125,-0.9246673583984375,-0.2398529052734375,-0.2418060302734375
1776443410049576700,13.33457666015625,-0.9758148193359375,-0.2626953125,-0.285858154296875
1776443410074592500,13.359592529296876,-0.9235687255859375,-0.2873382568359375,-0.285400390625
1776443410099608600,13.384608642578126,-0.9406585693359375,-0.232269287109375,-0.308074951171875
1776443410124624600,13.409624755859374,-0.88006591796875,-0.2846221923828125,-0.300872802734375
1776443410149640400,13.434640380859374,-0.90167236328125,-0.306671142578125,-0.3148345947265625
1776443410174655700,13.45965576171875,-0.8634796142578125,-0.31976318359375,-0.3150177001953125
1776443410199671800,13.484671875,-0.888946533203125,-0.307708740234375,-0.30584716796875
1776443410224687600,13.5096875,-0.84814453125,-0.29693603515625,-0.304656982421875
1776443410249703700,13.53470361328125,-0.8386077880859375,-0.2908172607421875,-0.3353271484375
1776443410274719700,13.5597197265625,-0.8638458251953125,-0.2775421142578125,-0.329864501953125
1776443410299735600,13.584735595703124,-0.863372802734375,-0.2485504150390625,-0.3220062255859375
1776443410324751600,13.609751708984374,-0.8620147705078125,-0.1941986083984375,-0.33868408203125
1776443410349767700,13.634767578125,-0.8863983154296875,-0.123779296875,-0.34832763671875
1776443410374783700,13.65978369140625,-0.938323974609375,-0.1146392822265625,-0.3329620361328125
1776443410399798500,13.684798583984374,-0.9664459228515625,-0.1047210693359375,-0.303314208984375
1776443410424814600,13.709814697265625,-0.990570068359375,-0.104339599609375,-0.2212371826171875
1776443410449830700,13.73483056640625,-1.0479583740234375,-0.0689544677734375,-0.1368255615234375
1776443410474846700,13.7598466796875,-1.0404052734375,-0.054412841796875,-0.0786285400390625
1776443410499862800,13.78486279296875,-1.017425537109375,-0.062591552734375,-0.0705108642578125
1776443410524878800,13.80987890625,-1.010345458984375,-0.055419921875,-0.100067138671875
1776443410549894700,13.834894775390625,-1.019439697265625,-0.0042877197265625,-0.145050048828125
1776443410574910700,13.85991064453125,-0.9783172607421875,-0.0093841552734375,-0.1501312255859375
1776443410599926800,13.8849267578125,-0.96002197265625,-0.0465087890625,-0.1337127685546875
1776443410624941600,13.909941650390625,-0.9807891845703125,-0.0533905029296875,-0.150299072265625
1776443410649957600,13.93495751953125,-0.9988861083984375,-0.07183837890625,-0.1801605224609375
1776443410674973700,13.9599736328125,-1.00616455078125,-0.078521728515625,-0.2033538818359375
1776443410699989500,13.984989501953125,-1.008087158203125,-0.0695648193359375,-0.2336273193359375
1776443410725005600,14.010005615234375,-1.013916015625,-0.07757568359375,-0.2050018310546875
1776443410750021600,14.035021728515625,-1.0536346435546875,-0.144989013671875,-0.133056640625
1776443410775037700,14.06003759765625,-1.0041046142578125,0.028961181640625,-0.108001708984375
1776443410800053500,14.085053466796875,-0.95855712890625,0.003082275390625,-0.1171417236328125
1776443410825069600,14.110069580078125,-1.00701904296875,-0.084442138671875,-0.1181488037109375
1776443410850084600,14.135084716796875,-1.051025390625,-0.05810546875,-0.1060791015625
1776443410875100700,14.1601005859375,-1.0019683837890625,-0.021484375,-0.1384429931640625
1776443410900116700,14.18511669921875,-0.9296417236328125,-0.0505523681640625,-0.1760101318359375
1776443410925132800,14.2101328125,-0.9697723388671875,-0.124114990234375,-0.1990203857421875
1776443410950148600,14.235148681640625,-0.933349609375,-0.1716156005859375,-0.2194671630859375
1776443410975164700,14.26016455078125,-0.899383544921875,-0.1483612060546875,-0.203521728515625
1776443411000180700,14.2851806640625,-0.9559173583984375,-0.1558074951171875,-0.1873931884765625
1776443411025196500,14.310196533203126,-0.9518585205078125,-0.1097412109375,-0.225830078125
1776443411050212400,14.33521240234375,-0.9172515869140625,-0.0201416015625,-0.160064697265625
1776443411075227400,14.360227294921875,-1.0114288330078125,-0.0057220458984375,-0.0253753662109375
1776443411100243500,14.385243408203126,-1.0255584716796875,0.0185394287109375,-0.0347137451171875
1776443411125259500,14.410259521484376,-1.0465545654296875,0.0911865234375,0.03759765625
1776443411150275600,14.435275634765626,-1.013763427734375,0.0862579345703125,0.0750274658203125
1776443411175291600,14.460291748046876,-1.06036376953125,0.0677490234375,-0.04815673828125
1776443411200307500,14.485307373046876,-1.0045318603515625,0.0933685302734375,-0.042816162109375
1776443411225323500,14.510323486328126,-0.9979400634765625,0.0243682861328125,0.0087432861328125
1776443411250339600,14.535339599609374,-1.1105804443359375,0.0015716552734375,-0.0439453125
1776443411275355400,14.56035546875,-0.9620361328125,0.0472869873046875,-0.11981201171875
1776443411300370400,14.585370361328126,-1.015380859375,0.024688720703125,-0.12353515625
1776443411325386500,14.610386474609374,-1.011474609375,0.0088653564453125,-0.1342926025390625
1776443411350402300,14.63540234375,-1.0257415771484375,0.055816650390625,-0.16412353515625
1776443411375418400,14.66041845703125,-0.9549560546875,0.059722900390625,-0.159271240234375
1776443411400434400,14.685434326171874,-0.968017578125,0.0277862548828125,-0.18621826171875
1776443411425450200,14.7104501953125,-0.95361328125,0.0502471923828125,-0.223846435546875
1776443411450466300,14.73546630859375,-0.9709625244140625,0.03350830078125,-0.141754150390625
1776443411475482400,14.760482421875,-0.991912841796875,0.00750732421875,-0.0503387451171875
1776443411500498400,14.78549853515625,-1.0399627685546875,-0.0191802978515625,-0.1088409423828125
1776443411525514200,14.81051416015625,-0.96630859375,0.02581787109375,-0.19134521484375
1776443411550529500,14.835529541015624,-0.967010498046875,0.047821044921875,-0.1216278076171875
1776443411575545600,14.860545654296875,-0.9759521484375,0.037933349609375,-0.164398193359375
1776443411600561400,14.8855615234375,-0.9392242431640625,0.09912109375,-0.24530029296875
1776443411625577500,14.910577392578125,-0.9401397705078125,0.131927490234375,-0.2445068359375
1776443411650593500,14.935593505859375,-0.9106292724609375,0.1425933837890625,-0.2862091064453125
1776443411675609300,14.960609375,-0.978912353515625,0.14337158203125,-0.327850341796875
1776443411700625400,14.98562548828125,-0.9499359130859375,0.143707275390625,-0.267913818359375
1776443411725641500,15.010641357421875,-0.9882659912109375,0.1279144287109375,-0.2608489990234375
1776443411750657500,15.035657470703125,-0.9371795654296875,0.1714019775390625,-0.3452301025390625
1776443411775672300,15.06067236328125,-0.9933624267578125,0.147125244140625,-0.3818511962890625
1776443411800688400,15.0856884765625,-0.96026611328125,0.110382080078125,-0.34381103515625
1776443411825704400,15.110704345703125,-1.013336181640625,0.1577911376953125,-0.291351318359375
1776443411850720500,15.135720458984375,-1.0183868408203125,0.079254150390625,-0.243011474609375
1776443411875736600,15.160736572265625,-1.0653076171875,0.0770721435546875,-0.056427001953125
1776443411900752600,15.185752685546875,-0.9872283935546875,0.0067596435546875,-0.0457763671875
1776443411925768400,15.2107685546875,-1.0094146728515625,-0.0458831787109375,-0.064971923828125
1776443411950784500,15.235784423828125,-0.9916534423828125,-0.031494140625,-0.12554931640625
1776443411975800600,15.260800537109375,-0.914794921875,-0.02386474609375,-0.087554931640625
1776443412000816400,15.28581640625,-0.9512786865234375,-0.0713653564453125,-0.1075592041015625
1776443412025831400,15.31083154296875,-0.92254638671875,-0.128570556640625,-0.137420654296875
1776443412050847000,15.335846923828125,-0.97540283203125,-0.1405181884765625,-0.105194091796875
1776443412075863000,15.360863037109375,-0.9796295166015625,-0.0661773681640625,-0.179046630859375
1776443412100879000,15.385879150390625,-0.9941558837890625,0.0192108154296875,-0.2247772216796875
1776443412125895200,15.410895263671875,-0.9892425537109375,0.0175323486328125,-0.26171875
1776443412150911000,15.435910888671875,-0.92626953125,0.057342529296875,-0.2431640625
1776443412175927000,15.460927001953126,-0.9705657958984375,0.0133056640625,-0.04083251953125
1776443412200943000,15.485943115234376,-1.0517425537109375,0.02728271484375,0.029937744140625
1776443412225959200,15.510959228515626,-1.0195465087890625,0.000244140625,0.026123046875
1776443412250975200,15.535975341796876,-0.9712677001953125,-0.042755126953125,-0.0193023681640625
1776443412275990300,15.560990234375,-1.0014495849609375,-0.1411590576171875,-0.0090179443359375
1776443412301006000,15.586006103515626,-1.0115814208984375,-0.121551513671875,0.0297698974609375
1776443412326022100,15.611022216796876,-1.041412353515625,-0.058380126953125,0.0226593017578125
1776443412351038200,15.6360380859375,-0.9954071044921875,-0.01361083984375,0.04052734375
1776443412376054000,15.661053955078126,-0.99713134765625,-0.072296142578125,0.06085205078125
1776443412401070000,15.686070068359374,-1.02667236328125,-0.0040283203125,0.001007080078125
1776443412426086100,15.711086181640624,-0.9782562255859375,-0.0613861083984375,-0.0687408447265625
1776443412451102200,15.736102294921874,-0.978790283203125,-0.0980072021484375,-0.097259521484375
1776443412476118000,15.761117919921874,-1.0377349853515625,-0.0634765625,-0.074859619140625
1776443412501134000,15.786134033203124,-1.065277099609375,-0.0174560546875,-0.070648193359375
1776443412526149000,15.811149169921874,-1.0798797607421875,-0.027618408203125,-0.0119476318359375
1776443412551165200,15.836165283203124,-1.0626983642578125,0.044219970703125,-0.0313873291015625
1776443412576181200,15.86118115234375,-1.066253662109375,0.14752197265625,0.015625
1776443412601197300,15.886197265625,-0.97369384765625,-0.021270751953125,0.006317138671875
1776443412626213000,15.911213134765624,-0.9057159423828125,-0.0933685302734375,0.111297607421875
1776443412651229200,15.936229248046875,-0.97125244140625,-0.1037445068359375,0.055572509765625
1776443412676245200,15.961245361328125,-0.9513397216796875,-0.150909423828125,0.0077362060546875
1776443412701261000,15.986260986328125,-0.981536865234375,-0.17669677734375,0.08197021484375
1776443412726277000,16.011277099609377,-0.974578857421875,-0.13397216796875,0.1770172119140625
1776443412751292200,16.036292236328126,-1.0995941162109375,-0.047607421875,0.3069915771484375
1776443412776308000,16.061307861328125,-0.97296142578125,-0.165130615234375,0.1898193359375
1776443412801324000,16.086323974609375,-0.970306396484375,-0.225311279296875,0.1388702392578125
1776443412826340000,16.111340087890625,-0.939727783203125,-0.158966064453125,0.0526580810546875
1776443412851356200,16.136356201171875,-1.088134765625,0.1279449462890625,0.037689208984375
1776443412876372200,16.161372314453125,-1.108489990234375,-0.0382232666015625,0.0592041015625
1776443412901388300,16.18638818359375,-0.8438262939453125,-0.162384033203125,0.0523834228515625
1776443412926404400,16.211404296875,-1.0408172607421875,-0.1398468017578125,-0.0218048095703125
1776443412951420200,16.236420166015623,-1.0239715576171875,-0.0478668212890625,0.0255889892578125
1776443412976436200,16.261436279296873,-0.9340972900390625,-0.08990478515625,0.0613555908203125
1776443413001451300,16.286451171875,-0.96575927734375,-0.0754241943359375,0.0725250244140625
1776443413026467000,16.311467041015625,-0.9966278076171875,-0.0623016357421875,0.0038909912109375
1776443413051483600,16.336483642578123,-0.947052001953125,-0.04150390625,0.0101776123046875
1776443413076499500,16.36149951171875,-0.99151611328125,-0.06793212890625,-0.036224365234375
1776443413101515500,16.386515625,-0.9739532470703125,-0.0248870849609375,-0.0799713134765625
1776443413126531600,16.411531494140625,-0.93218994140625,0.03155517578125,-0.0361785888671875
1776443413151547600,16.436547607421875,-0.9008026123046875,-0.0032196044921875,-0.092376708984375
1776443413176563500,16.4615634765625,-0.9968719482421875,-0.0565643310546875,-0.082489013671875
1776443413201579500,16.48657958984375,-0.9979705810546875,-0.001922607421875,-0.0109100341796875
1776443413226595600,16.511595703125,-0.91937255859375,-0.0219573974609375,0.050445556640625
1776443413251610600,16.536610595703124,-1.019989013671875,-0.0074462890625,0.0154266357421875
1776443413276626700,16.561626708984374,-1.0164337158203125,-0.085235595703125,0.0079803466796875
1776443413301642800,16.586642822265624,-1.07110595703125,-0.06597900390625,-0.02783203125
1776443413326658600,16.611658447265626,-1.054962158203125,-0.0133514404296875,-0.02459716796875
1776443413351674600,16.636674560546876,-1.0396575927734375,-0.0159759521484375,-0.0289459228515625
1776443413376690700,16.661690673828126,-1.0051422119140625,-0.01971435546875,-0.0058746337890625
1776443413401706500,16.68670654296875,-0.9936370849609375,0.03009033203125,-0.041107177734375
1776443413426722600,16.71172265625,-1.0100555419921875,0.041168212890625,0.0011444091796875
1776443413451738600,16.736738525390624,-1.0074920654296875,0.039093017578125,0.0238189697265625
1776443413476754700,16.761754638671874,-0.9773712158203125,0.0015869140625,0.05889892578125
1776443413501770500,16.7867705078125,-1.0295562744140625,0.008209228515625,0.046783447265625
1776443413526785500,16.81178564453125,-1.005645751953125,0.0238800048828125,0.010772705078125
1776443413551801600,16.836801513671876,-0.997772216796875,0.0154266357421875,0.021148681640625
1776443413576817400,16.8618173828125,-1.0099334716796875,-0.0668487548828125,0.060882568359375
1776443413601833500,16.88683349609375,-0.9871978759765625,-0.0833740234375,0.0362396240234375
1776443413626849500,16.911849609375,-0.998779296875,-0.034637451171875,0.045440673828125
1776443413651865600,16.936865478515625,-0.9984588623046875,0.02374267578125,0.1068878173828125
1776443413676881700,16.961881591796875,-0.9985198974609375,0.0745391845703125,0.1393280029296875
1776443413701897700,16.986897705078125,-1.0232696533203125,0.051055908203125,-0.173583984375
1776443413726913500,17.01191357421875,-1.0450439453125,-0.025634765625,-0.14678955078125
1776443413751929600,17.0369296875,-1.0037384033203125,0.03106689453125,-0.03533935546875
1776443413776944600,17.061944580078126,-0.9322967529296875,0.083343505859375,0.0319061279296875
1776443413801960400,17.08696044921875,-1.0595245361328125,0.1680755615234375,-0.042694091796875
1776443413826976500,17.1119765625,-0.9078521728515625,0.1169891357421875,-0.23419189453125
1776443413851992600,17.13699267578125,-1.02508544921875,0.0515289306640625,-0.207183837890625
1776443413877008600,17.162008544921875,-0.9792938232421875,-0.0396881103515625,-0.16717529296875
1776443413902024400,17.1870244140625,-0.940826416015625,-0.0699005126953125,-0.2621917724609375
1776443413927040500,17.21204052734375,-0.98236083984375,-0.1535186767578125,-0.2332305908203125
1776443413952056600,17.237056640625,-1.134185791015625,-0.1448211669921875,-0.0311279296875
1776443413977072400,17.262072265625,-1.0728302001953125,-0.11016845703125,-0.01544189453125
1776443414002088400,17.28708837890625,-0.9981842041015625,0.015533447265625,-0.1125335693359375
1776443414027103700,17.312103759765623,-0.98150634765625,-0.00830078125,-0.153900146484375
1776443414052122400,17.337122314453126,-1.0072021484375,-0.065277099609375,-0.17669677734375
1776443414077138400,17.362138427734376,-0.99298095703125,-0.0917205810546875,-0.2696380615234375
1776443414102154500,17.387154541015626,-1.00421142578125,-0.084686279296875,-0.19110107421875
1776443414127170300,17.41217041015625,-0.9391326904296875,-0.0730438232421875,-0.2256622314453125
1776443414152186400,17.437186279296874,-0.9089813232421875,-0.0343475341796875,-0.227783203125
1776443414177202400,17.462202392578124,-0.9097747802734375,-0.0222930908203125,-0.2003326416015625
1776443414202218200,17.48721826171875,-1.0100860595703125,-0.0094451904296875,-0.1142425537109375
1776443414227234300,17.512234375,-0.9997100830078125,-0.002685546875,-0.0427398681640625
1776443414252250400,17.53725048828125,-0.9588623046875,-0.035247802734375,-0.1020660400390625
1776443414277266400,17.562266357421876,-0.963287353515625,-0.1197509765625,-0.1373443603515625
1776443414302281500,17.587281494140626,-0.9828948974609375,-0.0718536376953125,-0.1248779296875
1776443414327297500,17.612297607421876,-0.9919586181640625,-0.06890869140625,-0.1579437255859375
1776443414352313600,17.637313720703126,-0.9345855712890625,-0.0915374755859375,-0.15557861328125
1776443414377329400,17.662329345703125,-0.9803466796875,0.0144500732421875,-0.0389862060546875
1776443414402345500,17.687345458984375,-1.02691650390625,0.0013275146484375,-0.0051116943359375
1776443414427361500,17.712361572265625,-0.931732177734375,-0.042816162109375,0.0689697265625
1776443414452377300,17.73737744140625,-1.0743408203125,-0.0363616943359375,0.053070068359375
1776443414477393400,17.762393310546877,-1.1038970947265625,-0.09429931640625,0.0611572265625
1776443414502409500,17.787409423828127,-0.9845123291015625,-0.1326751708984375,0.060760498046875
1776443414527425300,17.81242529296875,-1.13909912109375,-0.1228485107421875,0.05731201171875
1776443414552440300,17.8374404296875,-0.92535400390625,-0.1469573974609375,0.0714569091796875
1776443414577456400,17.862456298828125,-1.0904693603515625,-0.156982421875,0.0108489990234375
1776443414602472200,17.88747216796875,-1.1009521484375,-0.1145782470703125,-0.0864410400390625
1776443414627488300,17.91248828125,-0.88226318359375,-0.1126251220703125,-0.189422607421875
1776443414652504300,17.93750439453125,-1.0095672607421875,-0.0627899169921875,-0.167633056640625
1776443414677520600,17.962520751953125,-0.991455078125,-0.082275390625,-0.1216278076171875
1776443414702536400,17.987536376953123,-0.93096923828125,-0.155181884765625,-0.0910186767578125
1776443414727552500,18.012552490234373,-1.0134124755859375,-0.11322021484375,-0.1548309326171875
1776443414752568600,18.037568603515624,-0.9975433349609375,-0.021209716796875,-0.1274871826171875
1776443414777584400,18.06258447265625,-0.9779052734375,0.1153564453125,-0.0068511962890625
1776443414802600400,18.087600341796875,-0.971893310546875,-0.051177978515625,0.103485107421875
1776443414827615500,18.112615478515625,-1.0659332275390625,-0.0917510986328125,0.0098114013671875
1776443414852631300,18.13763134765625,-0.929718017578125,-0.1718292236328125,-0.044219970703125
1776443414877647400,18.1626474609375,-0.973358154296875,-0.2050628662109375,-0.081451416015625
1776443414902663400,18.187663330078124,-0.9924774169921875,-0.096038818359375,-0.116973876953125
1776443414927679200,18.21267919921875,-1.0204620361328125,-0.05914306640625,-0.1374053955078125
1776443414952695300,18.2376953125,-1.038360595703125,-0.0869903564453125,-0.2359771728515625
1776443414977711400,18.26271142578125,-1.032562255859375,-0.238006591796875,-0.414276123046875
1776443415002727400,18.2877275390625,-0.9988250732421875,-0.250335693359375,-0.4550628662109375
1776443415027743200,18.3127431640625,-1.0506744384765625,-0.106109619140625,-0.2456207275390625
1776443415052755700,18.337755615234375,-0.982513427734375,-0.1337432861328125,-0.2747955322265625
1776443415077771800,18.362771728515625,-0.9602508544921875,0.0152587890625,-0.2855987548828125
1776443415102786600,18.38778662109375,-0.9788665771484375,-0.0412750244140625,-0.2583770751953125
1776443415127802600,18.412802734375,-0.9461669921875,-0.02435302734375,-0.2921142578125
1776443415152818700,18.437818603515623,-0.88177490234375,0.00506591796875,-0.3804473876953125
1776443415177834800,18.462834716796873,-0.8421478271484375,-0.013458251953125,-0.5466461181640625
1776443415202850600,18.4878505859375,-0.8726348876953125,-0.06439208984375,-0.5064239501953125
1776443415227866600,18.51286669921875,-0.8792266845703125,-0.0228271484375,-0.4112701416015625
1776443415252882700,18.537882568359375,-0.9374847412109375,0.153656005859375,-0.242919921875
1776443415277898500,18.5628984375,-0.91082763671875,0.2644195556640625,-0.2673797607421875
1776443415302914600,18.58791455078125,-0.8605194091796875,0.1576995849609375,-0.456451416015625
1776443415327930600,18.6129306640625,-0.9137725830078125,0.062835693359375,-0.4133453369140625
1776443415352946700,18.63794677734375,-0.9582977294921875,0.017913818359375,-0.2462158203125
1776443415377961700,18.662961669921874,-1.0386962890625,-0.0114288330078125,-0.2795257568359375
1776443415402977800,18.687977783203124,-0.9551544189453125,-0.11407470703125,-0.220611572265625
1776443415427993600,18.71299365234375,-0.9264678955078125,-0.021728515625,-0.072509765625
1776443415453009700,18.738009765625,-0.99566650390625,-0.0285797119140625,-0.1332244873046875
1776443415478025700,18.763025634765626,-0.9676513671875,-0.0830535888671875,-0.2545623779296875
1776443415503041800,18.788041748046876,-0.89654541015625,-0.2245025634765625,-0.363037109375
1776443415528057600,18.8130576171875,-1.0190887451171875,0.0482330322265625,-0.07464599609375
1776443415553073700,18.83807373046875,-1.0298004150390625,0.27001953125,-0.014556884765625
1776443415578089700,18.86308984375,-0.8592681884765625,0.104400634765625,-0.1520538330078125
1776443415603105500,18.88810546875,-0.94451904296875,0.0459747314453125,-0.003875732421875
1776443415628121600,18.91312158203125,-0.97088623046875,-0.2248382568359375,-0.1629638671875
1776443415653136600,18.93813671875,-0.9894866943359375,-0.037078857421875,-0.19097900390625
1776443415678152400,18.96315234375,-0.92047119140625,0.0859222412109375,-0.207061767578125
1776443415703168500,18.98816845703125,-0.9304046630859375,0.116363525390625,-0.0853729248046875
1776443415728184600,19.0131845703125,-0.969482421875,-0.1155853271484375,-0.2099609375
1776443415753200600,19.03820068359375,-1.046875,-0.166351318359375,-0.1680450439453125
1776443415778216700,19.063216796875,-1.08905029296875,-0.1409454345703125,-0.0578155517578125
1776443415803232800,19.088232666015625,-1.07135009765625,-0.0177764892578125,-0.130706787109375
1776443415828248800,19.113248779296875,-1.0013275146484375,-0.005035400390625,-0.0372467041015625
1776443415853264600,19.1382646484375,-1.1964874267578125,-0.102691650390625,-0.031463623046875
1776443415878280700,19.16328076171875,-0.954833984375,-0.0891571044921875,-0.1513519287109375
1776443415903296800,19.188296875,-0.78070068359375,-0.0469207763671875,-0.1611175537109375
1776443415928312600,19.2133125,-0.863861083984375,0.0801239013671875,-0.15185546875
1776443415953327600,19.23832763671875,-0.93707275390625,0.178192138671875,-0.2410888671875
1776443415978343700,19.26334375,-0.873016357421875,0.140228271484375,-0.2284088134765625
1776443416003359500,19.288359375,-0.8983917236328125,0.0793914794921875,-0.117584228515625
1776443416028375600,19.31337548828125,-1.0645751953125,0.0767669677734375,-0.0234832763671875
1776443416053392400,19.338392333984373,-1.1038970947265625,0.052032470703125,0.0604248046875
1776443416078408400,19.363408447265623,-1.0578460693359375,0.0219573974609375,0.015777587890625
1776443416103424500,19.388424560546873,-1.0412445068359375,-0.011627197265625,0.0346832275390625
1776443416128440600,19.413440673828124,-0.9682159423828125,-0.0309906005859375,-0.1230316162109375
1776443416153456400,19.438456298828125,-0.970672607421875,-0.018157958984375,-0.21435546875
1776443416178472400,19.463472412109375,-0.9584503173828125,-0.021209716796875,-0.203460693359375
1776443416203488500,19.488488525390625,-0.86431884765625,-0.049835205078125,-0.200714111328125
1776443416228504300,19.51350439453125,-0.982269287109375,-0.02423095703125,-0.2320709228515625
1776443416253519600,19.53851953125,-0.98297119140625,0.053924560546875,-0.2068328857421875
1776443416278535700,19.56353564453125,-1.10272216796875,-0.000274658203125,-0.1644134521484375
1776443416303551500,19.588551513671874,-1.012542724609375,0.006591796875,-0.1597747802734375
1776443416328567600,19.613567626953124,-1.02764892578125,-0.042633056640625,-0.239990234375
1776443416353583600,19.63858349609375,-0.9932708740234375,-0.0528411865234375,-0.2497100830078125
1776443416378599700,19.663599609375,-1.0305633544921875,-0.06585693359375,-0.1908416748046875
1776443416403615500,19.688615478515626,-0.9842071533203125,-0.041473388671875,-0.1868896484375
1776443416428631600,19.713631591796876,-0.95263671875,0.012451171875,-0.220428466796875
1776443416453647600,19.738647705078126,-0.9487762451171875,0.0573577880859375,-0.137359619140625
1776443416478663400,19.763663330078124,-0.993682861328125,0.0824127197265625,-0.10260009765625
1776443416503679500,19.788679443359374,-0.991790771484375,0.0633544921875,-0.098175048828125
1776443416528695600,19.813695556640624,-0.9623565673828125,0.060211181640625,-0.1441650390625
1776443416553711400,19.83871142578125,-0.958648681640625,0.0688629150390625,-0.207244873046875
1776443416578726700,19.8637265625,-1.0209808349609375,0.0833587646484375,-0.1381072998046875
1776443416603742700,19.88874267578125,-1.0452423095703125,0.107635498046875,-0.0449676513671875
1776443416628758500,19.913758544921876,-0.9783172607421875,0.083984375,-0.0842132568359375
1776443416653774600,19.938774658203126,-1.0173492431640625,-0.006195068359375,-0.099578857421875
1776443416678790700,19.963790771484376,-1.0446929931640625,0.1107635498046875,0.0073394775390625
1776443416703806700,19.988806640625,-0.995086669921875,0.1269378662109375,-0.04266357421875
1776443416728822500,20.013822509765625,-1.009521484375,0.08331298828125,-0.05560302734375
1776443416753838600,20.038838623046875,-1.1172332763671875,0.0694427490234375,-0.060546875
1776443416778854700,20.063854736328125,-1.008026123046875,0.08038330078125,-0.017181396484375
1776443416803870500,20.088870361328127,-1.066802978515625,0.035980224609375,-0.0688934326171875
1776443416828886500,20.113886474609377,-1.036163330078125,0.046600341796875,-0.1456298828125
1776443416853902600,20.138902587890627,-0.968414306640625,0.0394134521484375,-0.11968994140625
1776443416878918400,20.16391845703125,-0.9861297607421875,0.0710296630859375,-0.1226806640625
1776443416903933400,20.188933349609375,-0.9766998291015625,0.0616302490234375,-0.240631103515625
1776443416928949500,20.213949462890625,-0.920867919921875,0.0205841064453125,-0.21942138671875
1776443416953965300,20.23896533203125,-1.00677490234375,0.0426788330078125,-0.0968475341796875
1776443416978981400,20.2639814453125,-1.0610198974609375,0.02435302734375,-0.122161865234375
1776443417003997400,20.28899755859375,-0.931304931640625,0.0508880615234375,-0.1515655517578125
1776443417029013800,20.314013671875,-0.9877777099609375,0.035430908203125,-0.0295257568359375
1776443417054029800,20.33902978515625,-0.98394775390625,-0.0135650634765625,-0.0339508056640625
1776443417079045600,20.364045654296874,-0.9830169677734375,0.047637939453125,-0.1259002685546875
1776443417104061700,20.389061767578124,-0.9501190185546875,0.0693817138671875,-0.1631622314453125
1776443417129077800,20.414077880859374,-1.0425872802734375,-0.042327880859375,-0.2618865966796875
1776443417154093800,20.43909375,-0.9656524658203125,-0.0989532470703125,-0.3309173583984375
1776443417179109600,20.464109619140626,-0.99542236328125,0.0564727783203125,-0.1809844970703125
1776443417204125700,20.489125732421876,-0.9157867431640625,0.089263916015625,-0.0568389892578125
1776443417229141800,20.514141845703126,-1.03173828125,0.046142578125,-0.0831756591796875
1776443417254156500,20.539156494140624,-0.96148681640625,0.1174163818359375,-0.1349029541015625
1776443417279172600,20.564172607421874,-1.0540771484375,0.153839111328125,-0.166748046875
1776443417304188700,20.589188720703124,-0.9688720703125,0.2835540771484375,-0.139556884765625
1776443417329204500,20.61420458984375,-0.969970703125,0.2174530029296875,-0.0080718994140625
1776443417354220500,20.639220458984376,-1.13226318359375,0.1796722412109375,0.0433807373046875
1776443417379236600,20.664236572265626,-1.05950927734375,0.179290771484375,0.012359619140625
1776443417404252700,20.689252685546876,-1.0714263916015625,0.150665283203125,-0.0081787109375
1776443417429268500,20.7142685546875,-1.111663818359375,0.04376220703125,0.0821990966796875
1776443417454284500,20.739284423828124,-1.0318603515625,-0.0116729736328125,0.0645904541015625
1776443417479300900,20.76430078125,-1.0517578125,-0.008453369140625,-0.028167724609375
1776443417504316700,20.789316650390624,-0.9465789794921875,-0.013702392578125,-0.027252197265625
1776443417529332700,20.814332763671874,-0.9995574951171875,-0.029449462890625,-0.074462890625
1776443417554348800,20.839348876953125,-0.95947265625,-0.0756072998046875,-0.080108642578125
1776443417579363600,20.864363525390626,-0.994171142578125,-0.10772705078125,-0.0555572509765625
1776443417604379600,20.889379638671876,-0.9866943359375,-0.089752197265625,-0.03021240234375
1776443417629395700,20.914395751953126,-0.9030914306640625,-0.07513427734375,-0.083160400390625
1776443417654411500,20.93941162109375,-0.9422454833984375,-0.1201934814453125,-0.1019744873046875
1776443417679427600,20.964427490234375,-0.94189453125,-0.1741180419921875,0.0587158203125
1776443417704443600,20.989443603515625,-0.91619873046875,-0.1385498046875,0.0675811767578125
1776443417729459700,21.014459716796875,-0.892730712890625,-0.0811309814453125,-0.0167236328125
1776443417754475500,21.0394755859375,-0.94415283203125,-0.1003265380859375,-0.1055908203125
1776443417779491600,21.06449169921875,-0.9720458984375,-0.1704254150390625,-0.21588134765625
1776443417804507600,21.089507568359377,-0.9853363037109375,-0.138671875,-0.3175506591796875
1776443417829523500,21.1145234375,-0.9670562744140625,-0.0176239013671875,-0.15460205078125
1776443417854539500,21.13953955078125,-0.940521240234375,-0.0155181884765625,0.0565338134765625
1776443417879555600,21.1645556640625,-1.0054473876953125,-0.04278564453125,0.1197357177734375
1776443417904571600,21.189571533203125,-1.0190582275390625,-0.1115875244140625,0.1674652099609375
1776443417929586700,21.214586669921875,-1.0531463623046875,-0.1037750244140625,0.2217254638671875
1776443417954602800,21.239602783203125,-1.0127410888671875,-0.2262420654296875,0.2678375244140625
1776443417979618600,21.26461865234375,-0.9451141357421875,-0.2557220458984375,0.20086669921875
1776443418004634600,21.289634521484373,-1.1037139892578125,-0.0825653076171875,0.29833984375
1776443418029650700,21.314650634765623,-1.041839599609375,-0.0777587890625,0.316497802734375
1776443418054670300,21.33967041015625,-0.9583587646484375,-0.1423187255859375,0.262451171875
1776443418079686100,21.36468603515625,-0.9984893798828125,-0.137054443359375,0.136871337890625
1776443418104702200,21.3897021484375,-0.9757537841796875,-0.1038818359375,0.1228485107421875
1776443418129718300,21.41471826171875,-1.0318450927734375,-0.063934326171875,0.0890045166015625
1776443418154734300,21.439734375,-0.9737396240234375,-0.0631866455078125,0.0025634765625
1776443418179750100,21.464750244140625,-0.99420166015625,-0.0333709716796875,-0.021209716796875
1776443418204766200,21.48976611328125,-0.99365234375,0.01470947265625,-0.0137786865234375
1776443418229782300,21.5147822265625,-0.9803619384765625,-0.005767822265625,-0.023681640625
1776443418254798000,21.539798095703127,-0.9771270751953125,0.014373779296875,-0.0169677734375
1776443418279813400,21.5648134765625,-1.008514404296875,0.028839111328125,0.021575927734375
1776443418304829400,21.589829345703127,-1.01165771484375,-0.0034027099609375,0.0203094482421875
1776443418329845200,21.61484521484375,-0.996826171875,-0.04150390625,0.0110321044921875
1776443418354861300,21.639861328125,-1.0204315185546875,-0.0472412109375,0.0000457763671875
1776443418379877400,21.66487744140625,-0.99163818359375,0.0093231201171875,-0.140716552734375
1776443418404893200,21.68989306640625,-0.983062744140625,0.110565185546875,-0.0808563232421875
1776443418429909200,21.7149091796875,-0.9833221435546875,0.154571533203125,-0.1051025390625
1776443418454925300,21.73992529296875,-0.975433349609375,0.035797119140625,-0.0670013427734375
1776443418479941400,21.76494140625,-0.8856658935546875,-0.12591552734375,0.009246826171875
1776443418504957200,21.789957275390623,-0.8711395263671875,-0.0459442138671875,-0.059661865234375
1776443418529973200,21.81497314453125,-1.0491485595703125,0.0460205078125,-0.06640625
1776443418554989300,21.8399892578125,-0.965423583984375,-0.0438385009765625,-0.120147705078125
1776443418580005000,21.865005126953125,-0.9841156005859375,-0.081451416015625,-0.052215576171875
1776443418605021200,21.890021240234375,-1.0542755126953125,-0.0221405029296875,0.0983123779296875
1776443418630036500,21.915036376953125,-0.98681640625,-0.0108489990234375,0.1153106689453125
1776443418655052300,21.94005224609375,-0.9901580810546875,0.018768310546875,-0.0141143798828125
1776443418680068400,21.965068359375,-0.9696197509765625,-0.019683837890625,-0.057525634765625
1776443418705084400,21.99008447265625,-1.000152587890625,-0.07867431640625,-0.0947113037109375
1776443418730100500,22.0151005859375,-1.0547027587890625,-0.1368865966796875,-0.072906494140625
1776443418755116300,22.0401162109375,-1.008636474609375,-0.1143035888671875,-0.0828857421875
1776443418780132400,22.06513232421875,-0.9599761962890625,-0.026275634765625,-0.143707275390625
1776443418805148400,22.0901484375,-0.94970703125,0.00921630859375,-0.044647216796875
1776443418830164200,22.115164306640626,-1.02301025390625,-0.017913818359375,-0.0039520263671875
1776443418855180300,22.14018017578125,-0.9882965087890625,0.0518798828125,0.0726470947265625
1776443418880196400,22.1651962890625,-0.9654388427734375,0.0457611083984375,0.1396484375
1776443418905212200,22.190212158203124,-0.9204864501953125,0.055419921875,0.129119873046875
1776443418930228200,22.215228271484374,-0.9492340087890625,0.0079193115234375,0.170135498046875
1776443418955244300,22.240244384765624,-0.98095703125,0.0454559326171875,0.1422119140625
1776443418980260400,22.26526025390625,-0.987060546875,-0.0020294189453125,0.196319580078125
1776443419005275100,22.290275146484376,-1.037322998046875,-0.05572509765625,0.2241363525390625
1776443419030291200,22.315291259765626,-1.0279693603515625,-0.0172271728515625,0.1080474853515625
1776443419055303000,22.340302978515624,-1.00897216796875,-0.0336151123046875,0.04730224609375
1776443419080318700,22.365318603515625,-1.007965087890625,-0.05950927734375,0.06646728515625
1776443419105334800,22.390334716796875,-1.003631591796875,-0.047332763671875,0.0899505615234375
1776443419130350800,22.415350830078125,-0.993377685546875,-0.053070068359375,0.0760040283203125
1776443419155366700,22.44036669921875,-0.9886322021484375,-0.0351715087890625,0.0771942138671875
1776443419180382700,22.4653828125,-0.989776611328125,-0.1006317138671875,0.09051513671875
1776443419205398800,22.490398681640624,-1.0218353271484375,-0.0716552734375,-0.183685302734375
1776443419230414800,22.515414794921874,-0.977325439453125,-0.0989837646484375,-0.2582550048828125
1776443419255430700,22.5404306640625,-1.0154571533203125,-0.0592803955078125,-0.17449951171875
1776443419280446700,22.56544677734375,-1.01556396484375,-0.0790252685546875,-0.046356201171875
1776443419305462800,22.590462890625,-1.020233154296875,-0.0928192138671875,-0.0628814697265625
1776443419330478600,22.615478515625,-1.05523681640625,-0.037933349609375,-0.116424560546875
1776443419355494700,22.64049462890625,-1.025146484375,-0.145477294921875,-0.1710052490234375
1776443419380510700,22.6655107421875,-1.030792236328125,-0.238189697265625,-0.197357177734375
1776443419405525800,22.69052587890625,-1.024566650390625,-0.164306640625,-0.28302001953125
1776443419430541800,22.715541748046874,-1.013763427734375,-0.063568115234375,-0.261993408203125
1776443419455558000,22.740557861328124,-0.9711151123046875,-0.051605224609375,-0.2753143310546875
1776443419480574000,22.765573974609374,-0.939361572265625,-0.102081298828125,-0.208892822265625
1776443419505589800,22.79058984375,-1.0027008056640625,-0.0243988037109375,-0.188995361328125
1776443419530605800,22.815605712890626,-0.97100830078125,-0.0510711669921875,-0.1568603515625
1776443419555622000,22.840621826171876,-0.9072113037109375,-0.1246185302734375,-0.192230224609375
1776443419580637700,22.8656376953125,-0.9633636474609375,-0.18658447265625,-0.2071075439453125
1776443419605653800,22.89065380859375,-0.974090576171875,-0.191131591796875,-0.1767578125
1776443419630669800,22.915669921875,-0.9822540283203125,-0.1682586669921875,-0.1616058349609375
1776443419655685600,22.940685546875,-0.9716339111328125,-0.0986328125,-0.1378631591796875
1776443419680701700,22.96570166015625,-0.9662628173828125,-0.139495849609375,-0.11810302734375
1776443419705717800,22.9907177734375,-0.987701416015625,-0.087432861328125,-0.185089111328125
1776443419730733800,23.01573388671875,-0.97113037109375,-0.1451873779296875,-0.3161163330078125
1776443419755749600,23.04074951171875,-1.039031982421875,-0.2064666748046875,-0.30816650390625
1776443419780765700,23.065765625,-1.022979736328125,-0.2011260986328125,-0.2783355712890625
1776443419805781800,23.09078173828125,-0.975433349609375,-0.2259063720703125,-0.3072052001953125
1776443419830797600,23.115797607421875,-1.043701171875,-0.1930694580078125,-0.4050445556640625
1776443419855812900,23.140812744140625,-0.9250030517578125,-0.151763916015625,-0.352813720703125
1776443419880829000,23.165828857421875,-1.04638671875,-0.111724853515625,-0.2213287353515625
1776443419905844700,23.1908447265625,-0.9958038330078125,-0.1305999755859375,-0.2166900634765625
1776443419930860800,23.21586083984375,-0.9006500244140625,-0.0789337158203125,-0.2396392822265625
1776443419955876900,23.240876953125,-1.0205535888671875,-0.003509521484375,-0.1981964111328125
1776443419980892700,23.265892578125,-1.0375518798828125,-0.05316162109375,-0.128753662109375
1776443420005908700,23.29090869140625,-0.959228515625,-0.007110595703125,0.0025177001953125
1776443420030924800,23.3159248046875,-0.874603271484375,-0.1356201171875,0.061767578125
1776443420055942000,23.34094189453125,-0.9583587646484375,-0.0782318115234375,-0.0362396240234375
1776443420080958000,23.3659580078125,-0.8933868408203125,-0.0124664306640625,-0.0606231689453125
1776443420105974000,23.39097412109375,-0.946685791015625,-0.282318115234375,-0.0302734375
1776443420130989800,23.41598974609375,-0.9393463134765625,-0.1494598388671875,0.0915374755859375
1776443420156006000,23.441005859375,-0.83319091796875,0.0415496826171875,0.1498260498046875
1776443420181022000,23.46602197265625,-1.0255126953125,0.12408447265625,0.1663055419921875
1776443420206038000,23.4910380859375,-0.804168701171875,-0.108123779296875,-0.042083740234375
1776443420231053800,23.5160537109375,-0.89166259765625,-0.176849365234375,-0.2670135498046875
1776443420256070000,23.54106982421875,-0.7650299072265625,-0.144012451171875,-0.36834716796875
1776443420281086000,23.5660859375,-0.749053955078125,-0.1981048583984375,-0.488677978515625
1776443420306100700,23.591100830078126,-0.8448333740234375,-0.2306671142578125,-0.4423828125
1776443420331116800,23.61611669921875,-0.8482818603515625,-0.181396484375,-0.379730224609375
1776443420356132900,23.6411328125,-0.8733062744140625,-0.2337799072265625,-0.4385223388671875
1776443420381149000,23.66614892578125,-0.9500732421875,-0.2354888916015625,-0.3241424560546875
1776443420406165000,23.6911650390625,-0.9575347900390625,-0.3324737548828125,-0.363525390625
1776443420431181000,23.71618115234375,-0.96527099609375,-0.345611572265625,-0.431396484375
1776443420456196900,23.74119677734375,-1.017608642578125,-0.36920166015625,-0.323516845703125
1776443420481213000,23.766212890625,-0.964630126953125,-0.41326904296875,-0.31634521484375
1776443420506229000,23.79122900390625,-0.94219970703125,-0.4014434814453125,-0.4579010009765625
1776443420531245000,23.8162451171875,-0.8651275634765625,-0.5203704833984375,-0.5489501953125
1776443420556260900,23.8412607421875,-1.038330078125,-0.3912353515625,-0.245574951171875
1776443420581277000,23.86627685546875,-0.96539306640625,-0.3582763671875,-0.257965087890625
1776443420606293000,23.89129296875,-0.9496307373046875,-0.427947998046875,-0.39080810546875
1776443420631308800,23.916308837890625,-0.8851776123046875,-0.4474639892578125,-0.429779052734375
1776443420656324900,23.941324951171875,-0.8641510009765625,-0.3794403076171875,-0.41632080078125
1776443420681341000,23.9663408203125,-0.85302734375,-0.3082733154296875,-0.452972412109375
1776443420706357000,23.99135693359375,-0.7568359375,-0.2769927978515625,-0.4705352783203125
1776443420731372800,24.016372802734374,-0.81036376953125,-0.247802734375,-0.44927978515625
1776443420756388900,24.041388916015624,-0.74786376953125,-0.2179718017578125,-0.467987060546875
1776443420781405000,24.066405029296874,-0.7236175537109375,-0.1721343994140625,-0.46246337890625
1776443420806420700,24.091420654296876,-0.6954193115234375,-0.262176513671875,-0.4831085205078125
1776443420831436800,24.116436767578126,-0.707550048828125,-0.395721435546875,-0.514617919921875
1776443420856452900,24.141452880859376,-0.7519989013671875,-0.3367767333984375,-0.5662384033203125
1776443420881469000,24.166468994140626,-0.619964599609375,-0.213104248046875,-0.7505950927734375
1776443420906484700,24.191484619140624,-0.6370849609375,-0.1566314697265625,-0.7435150146484375
1776443420931500800,24.216500732421874,-0.5054168701171875,-0.157440185546875,-0.758636474609375
1776443420956516900,24.241516845703124,-0.5023651123046875,-0.25970458984375,-0.7389984130859375
1776443420981533000,24.266532958984374,-0.805389404296875,-0.4273529052734375,-0.4502716064453125
1776443421006549000,24.291549072265624,-0.5960235595703125,-0.265380859375,-0.6761016845703125
1776443421031564000,24.31656396484375,-0.6223602294921875,-0.2402191162109375,-0.7965850830078125
1776443421056578600,24.34157861328125,-0.6286468505859375,-0.21636962890625,-0.699615478515625
1776443421081594400,24.366594482421874,-0.4304046630859375,-0.19873046875,-0.6438751220703125
1776443421106610400,24.3916103515625,-0.457366943359375,-0.2144622802734375,-0.74920654296875
1776443421131626500,24.41662646484375,-0.256866455078125,-0.239532470703125,-0.9390411376953125
1776443421156642600,24.441642578125,-0.228759765625,-0.270538330078125,-0.902374267578125
1776443421181658600,24.46665869140625,-0.22308349609375,-0.196502685546875,-0.92254638671875
1776443421206674700,24.4916748046875,-0.2504425048828125,-0.1873779296875,-1.0622100830078125
1776443421231690800,24.516690673828126,-0.1951751708984375,-0.2275390625,-1.0756683349609375
1776443421256706600,24.54170654296875,-0.1880340576171875,-0.2516937255859375,-1.0649871826171875
1776443421281722600,24.56672265625,-0.0631866455078125,-0.2136383056640625,-1.18206787109375
1776443421306738700,24.59173876953125,0.0141143798828125,-0.1931610107421875,-1.3035430908203125
1776443421331754800,24.616754638671875,-0.0224761962890625,-0.217498779296875,-1.20794677734375
1776443421356770600,24.6417705078125,-0.03216552734375,-0.233856201171875,-1.0847015380859375
1776443421381786600,24.66678662109375,-0.0638427734375,-0.2676849365234375,-1.009613037109375
1776443421406802700,24.691802734375,-0.124755859375,-0.20721435546875,-0.9743194580078125
1776443421431818500,24.716818603515627,-0.0749359130859375,-0.1731719970703125,-0.9313201904296875
1776443421456834600,24.74183447265625,-0.11065673828125,-0.1476287841796875,-0.9411468505859375
1776443421481849600,24.766849609375,-0.1588897705078125,-0.0797576904296875,-0.9594268798828125
1776443421506865400,24.791865478515625,-0.1979522705078125,-0.0765838623046875,-0.9883575439453125
1776443421531881500,24.816881591796875,-0.169189453125,-0.0482177734375,-0.966705322265625
1776443421556897500,24.8418974609375,-0.1389617919921875,-0.0179901123046875,-0.9542694091796875
1776443421581913300,24.866913330078123,-0.163482666015625,-0.01220703125,-0.9760589599609375
1776443421606929700,24.8919296875,-0.1916961669921875,0.0282745361328125,-0.96875
1776443421631945700,24.91694580078125,-0.167694091796875,0.0064544677734375,-0.998138427734375
1776443421656961800,24.9419619140625,-0.185028076171875,-0.0009765625,-1.0069122314453125
1776443421681977600,24.9669775390625,-0.116607666015625,-0.0248565673828125,-0.986083984375
1776443421706993700,24.99199365234375,-0.080780029296875,-0.027099609375,-1.00579833984375
1776443421732009700,25.017009765625,-0.1070404052734375,-0.021453857421875,-1.0419158935546875
1776443421757025500,25.042025634765626,-0.029449462890625,-0.035247802734375,-1.0326690673828125
1776443421782041600,25.06704150390625,-0.027557373046875,0.0124053955078125,-1.037506103515625
1776443421807057700,25.0920576171875,0.045654296875,0.0101776123046875,-1.08184814453125
1776443421832073500,25.117073486328124,-0.0938568115234375,0.0053863525390625,-1.07293701171875
1776443421857089500,25.142089599609374,-0.1147003173828125,-0.034332275390625,-1.0286102294921875
1776443421882105600,25.167105712890624,-0.1386871337890625,-0.0577239990234375,-1.02227783203125
1776443421907121700,25.19212158203125,-0.0116424560546875,-0.0745849609375,-0.9791107177734375
1776443421932137500,25.217137451171876,0.042816162109375,-0.14892578125,-0.9825592041015625
1776443421957153500,25.242153564453126,0.0453948974609375,-0.198699951171875,-0.935882568359375
1776443421982168600,25.26716845703125,0.043121337890625,-0.1686553955078125,-0.9949798583984375
1776443422007184400,25.292184326171874,-0.091461181640625,-0.1187744140625,-1.0684967041015625
1776443422032200400,25.317200439453124,-0.2275543212890625,-0.11956787109375,-1.01446533203125
1776443422057217500,25.342217529296875,-0.115997314453125,-0.1625823974609375,-0.943450927734375
1776443422082233600,25.367233642578125,-0.04058837890625,-0.2107696533203125,-0.8962554931640625
1776443422107249400,25.39224951171875,0.102813720703125,-0.116363525390625,-0.880035400390625
1776443422132265500,25.417265380859376,0.063201904296875,-0.0631866455078125,-0.9681549072265625
1776443422157281500,25.442281494140627,0.0777740478515625,-0.0672607421875,-1.0627288818359375
1776443422182297300,25.46729736328125,-0.015289306640625,-0.1085052490234375,-1.1192779541015625
1776443422207313700,25.492313720703127,-0.08843994140625,-0.1715545654296875,-1.0589447021484375
1776443422232329700,25.517329833984373,-0.048980712890625,-0.118194580078125,-1.048492431640625
1776443422257345800,25.542345703125,-0.0972747802734375,-0.2536468505859375,-1.0451507568359375
1776443422282361600,25.567361572265625,-0.0098876953125,-0.1411285400390625,-0.986175537109375
1776443422307377700,25.592377685546875,-0.1085205078125,-0.222412109375,-0.885589599609375
1776443422332393700,25.617393798828125,-0.094329833984375,-0.2665557861328125,-0.9387664794921875
1776443422357409500,25.642409423828123,-0.0308990478515625,-0.095855712890625,-0.9719085693359375
1776443422382425600,25.667425537109374,-0.042816162109375,-0.12451171875,-1.0468292236328125
1776443422407441700,25.692441650390624,0.0176849365234375,-0.00775146484375,-1.0091705322265625
1776443422432457500,25.71745751953125,-0.0600738525390625,-0.0472564697265625,-1.0225982666015625
1776443422457472500,25.742472412109375,-0.0754852294921875,-0.0206756591796875,-0.999176025390625
1776443422482488600,25.767488525390625,-0.0213623046875,0.103729248046875,-1.02899169921875
1776443422507504400,25.79250439453125,-0.044342041015625,0.1023712158203125,-0.9752349853515625
1776443422532520400,25.8175205078125,-0.147369384765625,-0.1255950927734375,-0.96978759765625
1776443422557536500,25.84253662109375,-0.1241607666015625,-0.08514404296875,-0.9925994873046875
1776443422582552600,25.867552490234374,-0.154296875,-0.0724029541015625,-0.9369659423828125
1776443422607568400,25.892568359375,-0.2816162109375,-0.219390869140625,-0.985443115234375
1776443422632584400,25.91758447265625,-0.1041412353515625,0.0011444091796875,-0.9980010986328125
1776443422657600800,25.942600830078124,-0.1111297607421875,0.0595703125,-0.94927978515625
1776443422682616600,25.967616455078126,-0.152587890625,-0.17279052734375,-1.00390625
1776443422707632600,25.992632568359376,-0.1280364990234375,-0.174163818359375,-1.074432373046875
1776443422732648700,26.017648681640626,-0.04071044921875,0.001373291015625,-0.98736572265625
1776443422757664800,26.042664794921876,-0.043304443359375,-0.0747222900390625,-0.998291015625
1776443422782680600,26.0676806640625,-0.050018310546875,-0.131805419921875,-1.0044403076171875
1776443422807696600,26.092696533203124,0.0429840087890625,-0.044036865234375,-0.997283935546875
1776443422832712700,26.117712646484375,0.0050811767578125,-0.0643310546875,-1.0089569091796875
1776443422857728500,26.142728515625,0.0364227294921875,-0.156097412109375,-1.0581207275390625
1776443422882744600,26.16774462890625,0.0469818115234375,-0.18707275390625,-1.0612945556640625
1776443422907760600,26.1927607421875,0.0544281005859375,-0.081024169921875,-1.011993408203125
1776443422932776400,26.2177763671875,0.08343505859375,-0.0954742431640625,-1.048065185546875
1776443422957791500,26.24279150390625,0.1026153564453125,-0.096954345703125,-1.0426025390625
1776443422982807600,26.2678076171875,0.009552001953125,-0.0245819091796875,-1.012176513671875
1776443423007823400,26.2928232421875,0.03411865234375,-0.0845489501953125,-1.0261993408203125
1776443423032839400,26.31783935546875,0.0406951904296875,-0.1450653076171875,-1.0511016845703125
1776443423057855500,26.34285546875,0.040435791015625,-0.05841064453125,-0.948333740234375
1776443423082871300,26.367871337890627,-0.040008544921875,-0.1108551025390625,-0.983734130859375
1776443423107887400,26.392887451171877,-0.0294952392578125,-0.0740509033203125,-1.020050048828125
1776443423132903200,26.417903076171875,0.0872802734375,0.0450439453125,-0.8845062255859375
1776443423157919200,26.442919189453125,-0.0209808349609375,-0.0715179443359375,-0.858367919921875
1776443423182935300,26.467935302734375,-0.0303802490234375,-0.044219970703125,-0.8884735107421875
1776443423207951000,26.492951171875,-0.0545196533203125,-0.0458221435546875,-0.969085693359375
1776443423232967200,26.51796728515625,-0.1097564697265625,0.003204345703125,-1.03466796875
1776443423257983200,26.542983154296873,-0.040985107421875,-0.0485687255859375,-1.078521728515625
1776443423282999000,26.5679990234375,-0.0102081298828125,-0.018768310546875,-1.0883636474609375
1776443423308015000,26.59301513671875,-0.065399169921875,0.06988525390625,-0.9985809326171875
1776443423333031200,26.61803125,-0.114898681640625,0.0879669189453125,-0.912322998046875
1776443423358047200,26.643047119140626,-0.11712646484375,0.065582275390625,-0.851806640625
1776443423383063000,26.66806298828125,-0.130523681640625,0.0867156982421875,-0.7890472412109375
1776443423408079000,26.6930791015625,-0.0663604736328125,0.0504913330078125,-0.819580078125
1776443423433094100,26.71809423828125,-0.059173583984375,0.0359344482421875,-0.80255126953125
1776443423458110200,26.743110107421874,0.0209808349609375,0.01446533203125,-0.8824310302734375
1776443423483126300,26.768126220703124,0.026275634765625,0.05010986328125,-0.8955230712890625
1776443423508142300,26.793142333984374,0.08026123046875,-0.02947998046875,-1.045928955078125
1776443423533158100,26.818158203125,0.145538330078125,-0.05755615234375,-1.1479949951171875
1776443423558174200,26.84317431640625,0.171875,-0.1491851806640625,-1.164154052734375
1776443423583190300,26.868190185546876,0.1566162109375,-0.1566314697265625,-1.1548309326171875
1776443423608206000,26.8932060546875,0.1518402099609375,-0.1175079345703125,-1.089385986328125
1776443423633222100,26.91822216796875,0.132080078125,-0.0457000732421875,-1.0366668701171875
1776443423658238200,26.94323828125,0.1763916015625,0.0241241455078125,-1.0291900634765625
1776443423683254300,26.968254150390624,0.146881103515625,0.0534820556640625,-1.018890380859375
1776443423708270000,26.99327001953125,0.1514129638671875,0.0532989501953125,-1.04852294921875
1776443423733286100,27.0182861328125,0.1512451171875,-0.0026092529296875,-1.0711669921875
1776443423758302200,27.04330224609375,0.1630096435546875,-0.050750732421875,-1.066925048828125
1776443423783318000,27.068318115234376,0.118377685546875,-0.0653839111328125,-1.0514373779296875
1776443423808334000,27.093333984375,0.0792236328125,-0.0700836181640625,-1.054229736328125
1776443423833350100,27.11835009765625,0.085968017578125,-0.023529052734375,-1.059600830078125
1776443423858366200,27.1433662109375,0.052032470703125,0.0113983154296875,-1.08099365234375
1776443423883381200,27.16838134765625,0.052703857421875,-0.025238037109375,-1.0493316650390625
1776443423908397300,27.193397216796875,0.039520263671875,-0.0356903076171875,-1.0345916748046875
1776443423933413400,27.218413330078125,0.040496826171875,-0.039337158203125,-0.994537353515625
1776443423958429200,27.24342919921875,0.0376739501953125,-0.0205535888671875,-0.9390716552734375
1776443423983445200,27.2684453125,-0.047271728515625,-0.0360260009765625,-0.9127960205078125
1776443424008461300,27.29346142578125,0.0084991455078125,-0.0516815185546875,-0.9669342041015625
1776443424033477000,27.31847705078125,-0.0149078369140625,-0.1351776123046875,-0.9323883056640625
1776443424058493200,27.3434931640625,0.0290679931640625,-0.1240234375,-0.882598876953125
1776443424083510000,27.368510009765625,-0.0052337646484375,0.0063323974609375,-0.912139892578125
1776443424108526000,27.393526123046875,0.061309814453125,-0.15045166015625,-0.9262237548828125
1776443424133542100,27.418542236328125,0.025482177734375,-0.0863494873046875,-0.9437408447265625
1776443424158558200,27.44355810546875,0.0273590087890625,-0.0867767333984375,-0.9496917724609375
1776443424183574000,27.468573974609374,0.1390533447265625,-0.110504150390625,-1.020965576171875
1776443424208590000,27.493590087890624,0.0372161865234375,-0.0525970458984375,-1.03375244140625
1776443424233606100,27.518606201171874,0.0460968017578125,-0.032073974609375,-1.021392822265625
1776443424258622000,27.5436220703125,0.0201873779296875,-0.00836181640625,-1.0323944091796875
1776443424283638000,27.568637939453126,0.099945068359375,0.022918701171875,-1.0615234375
1776443424308654000,27.593654052734376,0.086273193359375,-0.027099609375,-1.0413055419921875
1776443424333670100,27.618670166015626,0.1404266357421875,-0.0653839111328125,-1.0669403076171875
1776443424358686000,27.64368603515625,0.1950531005859375,0.07122802734375,-0.9394989013671875
1776443424383701000,27.668700927734374,0.1466064453125,0.0094146728515625,-0.9226837158203125
1776443424408716800,27.693716796875,0.0796966552734375,0.0566253662109375,-0.8989105224609375
1776443424433732900,27.71873291015625,0.1381988525390625,0.0777587890625,-0.9827423095703125
1776443424458749000,27.7437490234375,0.1634979248046875,0.03662109375,-0.945037841796875
1776443424483765200,27.76876513671875,0.21337890625,0.0280914306640625,-0.9866485595703125
1776443424508781000,27.793781005859376,0.16400146484375,0.09613037109375,-1.0487823486328125
1776443424533797000,27.818797119140626,0.249237060546875,0.1310272216796875,-0.996337890625
1776443424558813200,27.843813232421876,0.141448974609375,0.1268310546875,-1.0171356201171875
1776443424583829000,27.8688291015625,0.1649322509765625,0.1202239990234375,-0.98138427734375
1776443424608845000,27.893844970703125,0.1963653564453125,0.1052398681640625,-0.987152099609375
1776443424633861000,27.918861083984375,0.2003021240234375,0.1117401123046875,-1.008758544921875
1776443424658877200,27.943877197265625,0.261505126953125,0.047454833984375,-0.9708099365234375
1776443424683893000,27.96889306640625,0.3052215576171875,0.0436248779296875,-0.9463043212890625
1776443424708909000,27.993908935546877,0.27587890625,-0.044952392578125,-1.0172119140625
1776443424733925000,28.018925048828127,0.2684478759765625,-0.07232666015625,-1.01678466796875
1776443424758941000,28.04394091796875,0.2596435546875,-0.0750732421875,-1.018524169921875
1776443424783957000,28.06895703125,0.25823974609375,-0.0661468505859375,-0.9934844970703125
1776443424808973000,28.09397314453125,0.3607025146484375,0.0100860595703125,-1.0020904541015625
1776443424833987800,28.11898779296875,0.30584716796875,-0.0537872314453125,-1.1077423095703125
1776443424859004000,28.14400390625,0.28167724609375,-0.0763092041015625,-1.1560516357421875
1776443424884020000,28.16902001953125,0.3190155029296875,0.019805908203125,-1.068817138671875
1776443424909036000,28.1940361328125,0.28173828125,0.0680389404296875,-1.000030517578125
1776443424934052000,28.219052001953123,0.23504638671875,0.0567779541015625,-1.006072998046875
1776443424959068200,28.244068115234374,0.208892822265625,0.008697509765625,-1.008392333984375
1776443424984084200,28.269084228515624,0.2030181884765625,0.0338287353515625,-1.0072479248046875
1776443425009100000,28.29410009765625,0.2790679931640625,0.0198211669921875,-1.053192138671875
1776443425034116000,28.3191162109375,0.3175506591796875,0.00579833984375,-1.0551605224609375
1776443425059132200,28.344132080078126,0.1790618896484375,-0.0279998779296875,-1.06793212890625
1776443425084147500,28.3691474609375,0.1941375732421875,0.020599365234375,-1.0141448974609375
1776443425109163300,28.394163330078126,0.2849273681640625,0.0564117431640625,-0.9814910888671875
1776443425134179300,28.419179443359376,0.2074737548828125,0.0121002197265625,-0.9901275634765625
1776443425159195400,28.4441953125,0.0732269287109375,-0.0019378662109375,-0.942138671875
1776443425184211500,28.46921142578125,0.178070068359375,0.042236328125,-0.91064453125
1776443425209227300,28.494227294921874,0.1763153076171875,0.0622406005859375,-0.90142822265625
1776443425234243300,28.519243408203124,0.164886474609375,0.04156494140625,-0.9478912353515625
1776443425259259400,28.54425927734375,0.1211700439453125,-0.0775909423828125,-0.9633026123046875
1776443425284275200,28.569275146484376,0.129302978515625,0.001007080078125,-0.91485595703125
1776443425309291300,28.594291259765626,0.148834228515625,0.019500732421875,-0.963348388671875
1776443425334306600,28.619306640625,0.0399932861328125,-0.052947998046875,-1.0080718994140625
1776443425359322400,28.644322265625,-0.0081024169921875,-0.0202484130859375,-0.9190216064453125
1776443425384338400,28.66933837890625,0.0567169189453125,0.0149993896484375,-0.9218902587890625
1776443425409354500,28.6943544921875,-0.023529052734375,-0.06268310546875,-0.99517822265625
1776443425434370600,28.71937060546875,-0.0292510986328125,-0.0010528564453125,-0.9166107177734375
1776443425459386400,28.744386474609374,-0.009796142578125,0.035308837890625,-0.8807525634765625
1776443425484402400,28.76940234375,0.0001068115234375,0.019134521484375,-0.9711151123046875
1776443425509418500,28.79441845703125,-0.02301025390625,-0.0397186279296875,-0.9457550048828125
1776443425534434300,28.819434326171876,-0.014984130859375,0.0063018798828125,-0.8558197021484375
1776443425559450400,28.844450439453126,0.044097900390625,0.0108642578125,-0.9352264404296875
1776443425584466400,28.869466552734377,-0.0063629150390625,-0.07781982421875,-0.91845703125
1776443425609481200,28.894481201171875,0.0206451416015625,-0.0316619873046875,-1.049102783203125
1776443425634497300,28.919497314453125,0.0840606689453125,0.042510986328125,-0.8080291748046875
1776443425659513600,28.944513671875,0.09515380859375,-0.0479583740234375,-0.859954833984375
1776443425684529400,28.969529296875,0.0705718994140625,0.0022430419921875,-0.9963531494140625
1776443425709545500,28.99454541015625,0.00689697265625,-0.0305023193359375,-1.098175048828125
1776443425734561500,29.0195615234375,0.149566650390625,-0.0859375,-1.0750732421875
1776443425759577600,29.04457763671875,0.1162872314453125,-0.0873260498046875,-1.0652008056640625
1776443425784593400,29.069593505859373,0.1054534912109375,-0.1145172119140625,-1.1011505126953125
1776443425809609500,29.094609375,0.0933837890625,-0.078826904296875,-1.0079498291015625
1776443425834625500,29.11962548828125,0.02752685546875,-0.079376220703125,-1.0277252197265625
1776443425859641300,29.144641357421875,0.0019683837890625,-0.0808868408203125,-1.0096893310546875
1776443425884657400,29.169657470703125,0.0387420654296875,-0.015655517578125,-0.9801788330078125
1776443425909673500,29.194673583984375,0.1069488525390625,0.0191802978515625,-0.9767913818359375
1776443425934689300,29.219689208984374,-0.03192138671875,-0.0141448974609375,-1.0757598876953125
1776443425959705300,29.244705322265624,0.051971435546875,0.0253753662109375,-0.9901275634765625
1776443425984721400,29.269721435546874,-0.0291748046875,-0.0001983642578125,-0.9442596435546875
1776443426009737500,29.294737548828124,0.04058837890625,-0.03021240234375,-1.002197265625
1776443426034753300,29.319753173828126,0.0936126708984375,-0.011871337890625,-1.0118255615234375
1776443426059769300,29.344769287109376,0.0844573974609375,-0.0011444091796875,-1.0054931640625
1776443426084785400,29.369785400390626,0.1273651123046875,0.003692626953125,-1.019866943359375
1776443426109800400,29.394800537109376,0.1275177001953125,-0.0592041015625,-1.0334320068359375
1776443426134816500,29.41981640625,0.069549560546875,-0.094970703125,-1.0168914794921875
1776443426159832600,29.44483251953125,0.1335601806640625,-0.0542144775390625,-0.9710235595703125
1776443426184848600,29.4698486328125,0.1822357177734375,-0.0796966552734375,-0.971588134765625
1776443426209864400,29.494864501953124,0.142181396484375,-0.1218414306640625,-1.0031890869140625
1776443426234880500,29.519880615234374,0.183837890625,-0.12457275390625,-0.998992919921875
1776443426259896600,29.544896484375,0.266754150390625,-0.3332977294921875,-0.9292449951171875
1776443426284912400,29.569912353515626,0.2402801513671875,-0.1703643798828125,-0.9841461181640625
1776443426309928400,29.594928466796876,0.2459564208984375,-0.04656982421875,-1.050384521484375
1776443426334944500,29.619944580078126,0.2374114990234375,-0.0536651611328125,-1.01519775390625
1776443426359960600,29.644960693359376,0.0759735107421875,-0.14349365234375,-1.051361083984375
1776443426384976400,29.669976318359375,0.10858154296875,-0.1262054443359375,-1.0528411865234375
1776443426409992400,29.694992431640625,0.1197509765625,-0.13922119140625,-1.0213470458984375
1776443426435008500,29.720008544921875,0.17681884765625,-0.0801544189453125,-0.99786376953125
1776443426460024300,29.7450244140625,0.15350341796875,-0.0371551513671875,-1.0141448974609375
1776443426485040400,29.770040283203127,0.22357177734375,-0.025970458984375,-1.009429931640625
1776443426510056400,29.795056396484377,0.138214111328125,-0.029327392578125,-0.9922943115234375
1776443426535072300,29.820072265625,0.1261138916015625,-0.02301025390625,-0.955596923828125
1776443426560088300,29.84508837890625,0.1031646728515625,-0.0599212646484375,-0.938323974609375
1776443426585103600,29.870103515625,0.100799560546875,0.01580810546875,-0.9304351806640625
1776443426610119400,29.895119384765625,0.0904998779296875,-0.0103759765625,-0.8996429443359375
1776443426635135500,29.920135498046875,0.006744384765625,0.027191162109375,-0.8717803955078125
1776443426660151600,29.945151611328125,0.0522003173828125,0.1020660400390625,-0.933563232421875
1776443426685167600,29.970167724609375,0.0725250244140625,0.0765838623046875,-0.9557952880859375
1776443426710183400,29.995183349609373,0.0675506591796875,0.070404052734375,-1.0157928466796875
1776443426735199500,30.020199462890623,0.089324951171875,-0.0017852783203125,-1.080352783203125
1776443426760215600,30.045215576171874,0.1031341552734375,0.0021514892578125,-1.0612335205078125
1776443426785231400,30.0702314453125,0.01043701171875,0.0031585693359375,-0.9882659912109375
1776443426810247400,30.095247314453125,0.0519561767578125,0.0073699951171875,-0.9638214111328125
1776443426835263500,30.120263427734375,-0.1047821044921875,-0.0772247314453125,-1.0687408447265625
1776443426860279600,30.145279541015626,-0.0146484375,-0.0005035400390625,-1.0307769775390625
1776443426885295400,30.17029541015625,0.086944580078125,0.0443878173828125,-0.9682464599609375
1776443426910311400,30.1953115234375,0.084320068359375,0.0104827880859375,-0.9784088134765625
1776443426935327500,30.220327392578124,0.0293121337890625,-0.034820556640625,-0.96875
1776443426960343300,30.24534326171875,0.08636474609375,-0.056549072265625,-0.9696502685546875
1776443426985359400,30.270359375,0.0392303466796875,-0.08428955078125,-0.9568023681640625
1776443427010375400,30.29537548828125,0.071319580078125,-0.04522705078125,-0.9852752685546875
1776443427035391200,30.32039111328125,0.06463623046875,0.00567626953125,-1.0791168212890625
1776443427060406800,30.34540673828125,-0.00250244140625,-0.0087432861328125,-1.016845703125
1776443427085421800,30.370421875,-0.11572265625,-0.0489501953125,-1.0239410400390625
1776443427110437600,30.395437744140626,-0.0518798828125,-0.0249176025390625,-1.0023345947265625
1776443427135453700,30.42045361328125,0.1202239990234375,0.0219573974609375,-0.99163818359375
1776443427160469800,30.4454697265625,0.048065185546875,0.0230255126953125,-0.904815673828125
1776443427185485600,30.470485595703124,0.0542449951171875,0.049163818359375,-0.9734649658203125
1776443427210501600,30.495501708984374,0.0319671630859375,0.018646240234375,-1.0792388916015625
1776443427235517700,30.520517578125,0.0421905517578125,0.0024261474609375,-1.07891845703125
1776443427260533800,30.54553369140625,0.0835723876953125,-0.0263824462890625,-1.0396575927734375
1776443427285549600,30.570549560546876,0.20831298828125,0.054290771484375,-1.13128662109375
1776443427310565600,30.595565673828126,0.131622314453125,-0.149993896484375,-1.340057373046875
1776443427335581700,30.620581787109376,0.2009429931640625,-0.0665130615234375,-1.2012939453125
1776443427360597500,30.645597412109375,0.188385009765625,0.1449737548828125,-1.0467529296875
1776443427385613600,30.670613525390625,0.0858612060546875,0.1021728515625,-0.9625396728515625
1776443427410629600,30.695629638671875,-0.085845947265625,0.022735595703125,-0.9306488037109375
1776443427435645700,30.720645751953125,0.1672210693359375,0.133514404296875,-0.883544921875
1776443427460661800,30.745661865234375,-0.14410400390625,0.0419769287109375,-0.9542236328125
1776443427485677800,30.770677734375,-0.213409423828125,-0.0403289794921875,-1.0584564208984375
1776443427510694000,30.79569384765625,0.0924224853515625,0.184844970703125,-0.9823760986328125
1776443427535709700,30.820709716796873,0.0734100341796875,0.17333984375,-0.8946990966796875
1776443427560725800,30.845725830078123,-0.1522216796875,-0.006683349609375,-0.9226531982421875
1776443427585740800,30.87074072265625,-0.2548980712890625,-0.0500335693359375,-0.9091339111328125
1776443427610756600,30.895756591796875,-0.2229461669921875,0.0225677490234375,-0.8433990478515625
1776443427635772700,30.920772705078125,-0.0624237060546875,0.1787109375,-0.6916656494140625
1776443427660788700,30.945788818359375,-0.2000885009765625,0.07232666015625,-0.782196044921875
1776443427685804500,30.970804443359373,-0.2738800048828125,-0.019622802734375,-0.9469146728515625
1776443427710820600,30.995820556640624,-0.102020263671875,0.092864990234375,-0.9920501708984375
1776443427735836700,31.020836669921874,0.051788330078125,0.17486572265625,-0.9868011474609375
1776443427760852500,31.0458525390625,-0.0676422119140625,0.0410308837890625,-1.064056396484375
1776443427785868500,31.07086865234375,-0.0622100830078125,0.0317535400390625,-1.017822265625
1776443427810884600,31.095884521484376,-0.0511932373046875,0.0207061767578125,-0.9797210693359375
1776443427835900700,31.120900634765626,0.0152740478515625,0.0265960693359375,-1.0370025634765625
1776443427860916700,31.145916748046876,0.05438232421875,0.031768798828125,-1.1078643798828125
1776443427885932800,31.170932861328126,0.029296875,0.04803466796875,-1.062164306640625
1776443427910948900,31.195948974609376,0.0149078369140625,0.0228729248046875,-1.0713653564453125
1776443427935964700,31.220964599609374,0.1789398193359375,0.0717926025390625,-1.0518341064453125
1776443427960980700,31.245980712890624,0.11981201171875,-0.0056610107421875,-1.074066162109375
1776443427985996800,31.270996826171874,0.008453369140625,-0.0487213134765625,-1.1047210693359375
1776443428011012900,31.296012939453124,0.1376800537109375,-0.0178680419921875,-1.08306884765625
1776443428036028700,31.321028564453126,0.0845794677734375,-0.031280517578125,-1.042510986328125
1776443428061045800,31.346045654296876,0.0810394287109375,-0.0645599365234375,-1.0449981689453125
1776443428086060800,31.371060791015626,0.0731048583984375,-0.0463104248046875,-0.9675750732421875
1776443428111076900,31.396076904296876,0.058746337890625,-0.07928466796875,-0.9743499755859375
1776443428136092700,31.4210927734375,-0.00311279296875,-0.134368896484375,-0.9965057373046875
1776443428161108700,31.446108642578125,0.1502685546875,-0.022735595703125,-0.9172821044921875
1776443428186124800,31.471124755859375,0.0471038818359375,0.0062408447265625,-0.8901214599609375
1776443428211140900,31.496140869140625,0.0893707275390625,0.00921630859375,-0.9311370849609375
1776443428236156700,31.52115673828125,-0.0918426513671875,-0.078125,-0.9826812744140625
1776443428261172700,31.5461728515625,0.077392578125,-0.03076171875,-1.1037750244140625
1776443428286188800,31.571188720703127,0.1126251220703125,-0.0532379150390625,-1.0869293212890625
1776443428311204600,31.59620458984375,-0.00555419921875,-0.122222900390625,-1.0572052001953125
1776443428336220700,31.621220703125,0.095672607421875,-0.0722503662109375,-1.11248779296875
1776443428361236700,31.64623681640625,-0.0096435546875,-0.002960205078125,-0.988739013671875
1776443428386252800,31.671252685546875,0.0003814697265625,-0.01751708984375,-1.009613037109375
1776443428411268600,31.6962685546875,0.0627288818359375,0.0441436767578125,-1.076263427734375
1776443428436284700,31.72128466796875,0.1639862060546875,0.17974853515625,-0.964691162109375
1776443428461300700,31.74630078125,0.0691986083984375,0.0052032470703125,-0.945343017578125
1776443428486316800,31.77131689453125,0.009918212890625,0.0434722900390625,-0.9312744140625
1776443428511332900,31.796332763671874,-0.1362762451171875,0.133514404296875,-0.804718017578125
1776443428536349000,31.821348876953124,-0.1784515380859375,0.181182861328125,-0.756134033203125
1776443428561365000,31.846364990234374,-0.265655517578125,0.1697998046875,-0.96002197265625
1776443428586380800,31.871380859375,0.0694732666015625,0.2013092041015625,-1.0460662841796875
1776443428611395800,31.896395751953126,0.0831298828125,0.18841552734375,-1.0783233642578125
1776443428636411600,31.92141162109375,0.0521240234375,0.138580322265625,-1.0216217041015625
1776443428661427700,31.946427734375,-0.0184783935546875,0.0900421142578125,-1.055328369140625
1776443428686443800,31.97144384765625,-0.035247802734375,0.065643310546875,-0.994720458984375
