time,seconds_elapsed,z,y,x
1776443396791190000,0.07618994140625,0.384159654378891,0.10148321837186813,0.25838014483451843
1776443396816205000,0.101205078125,0.3681287467479706,0.06607941538095474,0.2665821611881256
1776443396841220900,0.126220947265625,0.5142127275466919,0.15663355588912964,0.30945611000061035
1776443396866237000,0.15123681640625,0.5943397879600525,0.1688191145658493,0.40547052025794983
1776443396891253000,0.1762529296875,0.5348692536354065,0.13788916170597076,0.4517197906970978
1776443396916267800,0.201267822265625,0.5779906511306763,-0.005804625805467367,0.3423866331577301
1776443396941283800,0.226283935546875,0.7855328917503357,0.13687263429164886,0.2057265341281891
1776443396966300000,0.2512998046875,0.9624916911125183,0.13827025890350342,0.14015790820121765
1776443396991315000,0.27631494140625,0.8446061015129089,0.3362855911254883,0.11549064517021179
1776443397016331000,0.3013310546875,0.8456231355667114,0.351548969745636,0.11924037337303162
1776443397041351000,0.326350830078125,1.0004441738128662,0.14421948790550232,0.047084420919418335
1776443397066367000,0.351366943359375,1.2975975275039673,0.18687960505485535,-0.012999421916902065
1776443397091381800,0.3763818359375,1.2268234491348267,0.25313666462898254,-0.11217767000198364
1776443397116397800,0.401397705078125,1.2389416694641113,0.34591028094291687,-0.12890444695949554
1776443397141414000,0.426413818359375,1.3102227449417114,0.1573968082666397,-0.07504361867904663
1776443397166430000,0.451429931640625,1.3391984701156616,0.5047580003738403,-0.027653731405735016
1776443397191445000,0.476445068359375,0.9225051403045654,0.5575301051139832,-0.17486661672592163
1776443397216461000,0.5014609375,0.5625946521759033,0.5397718548774719,-0.19905798137187958
1776443397241477000,0.52647705078125,0.5865029096603394,0.3371545970439911,0.014156298711895943
1776443397266492000,0.551491943359375,0.6751547455787659,-0.08727232366800308,0.17438645660877228
1776443397291508000,0.576508056640625,0.5733575224876404,-0.27887582778930664,0.3175654411315918
1776443397316523800,0.601523681640625,0.39648714661598206,-0.4577321410179138,0.36410126090049744
1776443397341539800,0.626539794921875,0.30871841311454773,-0.7150619626045227,0.406953901052475
1776443397366555000,0.651554931640625,0.2204223871231079,-0.839830756187439,0.48714354634284973
1776443397391570700,0.67657080078125,0.020383834838867188,-1.0511752367019653,0.5430068373680115
1776443397416586800,0.701586669921875,-0.19009217619895935,-1.0793187618255615,0.4201053977012634
1776443397441603000,0.72660302734375,-0.12947170436382294,-1.062558889389038,0.3524177074432373
1776443397466617900,0.751617919921875,0.15942774713039398,-1.0625277757644653,0.3851764500141144
1776443397491634000,0.776634033203125,0.27087196707725525,-0.8508333563804626,0.31511107087135315
1776443397516650000,0.80164990234375,0.37224841117858887,-0.7751196622848511,0.2722395062446594
1776443397541664800,0.826664794921875,0.6975492835044861,-0.5954511165618896,0.270254909992218
1776443397566680800,0.851680908203125,0.37488919496536255,-0.426933228969574,0.04253600910305977
1776443397591697000,0.87669677734375,-0.45488202571868896,0.07201880216598511,-0.18617679178714752
1776443397616712700,0.901712646484375,-0.4122978150844574,-0.06634093821048737,-0.353300005197525
1776443397641728000,0.92672802734375,0.23428121209144592,0.1788903921842575,-0.11218725889921188
1776443397666744000,0.951744140625,0.0759967640042305,0.26528307795524597,-0.043470513075590134
1776443397691759900,0.976759765625,-0.18126939237117767,0.3734867572784424,0.2815456688404083
1776443397716776000,1.00177587890625,-0.25675588846206665,0.21728624403476715,0.16975681483745575
1776443397741791000,1.026791015625,-0.14013873040676117,0.06100929155945778,0.04649639502167702
1776443397766806800,1.051806884765625,-0.07153037935495377,0.03682778775691986,0.12977424263954163
1776443397791822800,1.07682275390625,-0.06649886816740036,-0.03190653398633003,0.15179112553596497
1776443397816839000,1.1018388671875,-0.12835131585597992,0.001130778226070106,0.21492056548595428
1776443397841854000,1.12685400390625,-0.12252724915742874,-0.013483584858477116,0.20659178495407104
1776443397866870000,1.1518701171875,0.1323106288909912,-0.19322484731674194,0.20890368521213531
1776443397891886000,1.176885986328125,0.2402094006538391,-0.2635972797870636,0.3038722574710846
1776443397916900900,1.20190087890625,0.31544050574302673,-0.2953261733055115,0.38228639960289
1776443397941917000,1.2269169921875,0.452380508184433,-0.16117876768112183,0.34211045503616333
1776443397966933000,1.25193310546875,0.6544126868247986,-0.045514754951000214,0.3722041845321655
1776443397991948800,1.27694873046875,0.9396932125091553,0.03196325898170471,0.31134989857673645
1776443398016963800,1.3019638671875,1.084442377090454,0.4313732385635376,0.24178147315979004
1776443398041976600,1.3269765625,0.8275770545005798,0.29691770672798157,0.04987141862511635
1776443398066992600,1.35199267578125,1.2200987339019775,0.672824501991272,-0.23830710351467133
1776443398092008700,1.3770087890625,1.1781220436096191,0.17725467681884766,-0.7458494305610657
1776443398117023700,1.402023681640625,1.8181184530258179,0.6050409078598022,-0.7373283505439758
1776443398142039800,1.427039794921875,1.6370723247528076,0.3091663718223572,-0.7097031474113464
1776443398167055600,1.4520556640625,1.1030887365341187,0.37503352761268616,-0.20673613250255585
1776443398192071700,1.47707177734375,0.8181877732276917,-0.1626693457365036,-0.4044244587421417
1776443398217086700,1.502086669921875,0.3526230454444885,0.7216843962669373,-0.04039030149579048
1776443398242102500,1.5271025390625,0.5654442310333252,0.018028268590569496,0.27541932463645935
1776443398267118600,1.55211865234375,1.0281585454940796,0.07406570762395859,0.2990088164806366
1776443398292134700,1.577134765625,1.223412036895752,0.042243592441082,0.5726038813591003
1776443398317149700,1.602149658203125,1.2788203954696655,-0.0252840518951416,0.37347185611724854
1776443398342165800,1.627165771484375,1.0975960493087769,-0.346092164516449,0.5456423163414001
1776443398367181800,1.652181884765625,0.7768933773040771,-0.5375009775161743,0.4117816984653473
1776443398392197600,1.67719775390625,0.8135805130004883,-0.5867391228675842,0.2673336863517761
1776443398417212700,1.702212646484375,0.8340207934379578,-0.4247851073741913,0.03134008124470711
1776443398442228700,1.727228759765625,1.1438937187194824,-0.4075597822666168,-0.0840834528207779
1776443398467244500,1.75224462890625,1.6469224691390991,-0.5805760622024536,-0.038952458649873734
1776443398492260600,1.777260498046875,1.0228791236877441,-0.9557517766952515,-0.05433354526758194
1776443398517276000,1.80227587890625,0.8551098704338074,-0.8518381714820862,-0.15581782162189484
1776443398542291700,1.827291748046875,1.0857380628585815,-0.9780336618423462,-0.46572455763816833
1776443398567307800,1.852307861328125,1.0718491077423096,-0.025624670088291168,-0.09766876697540283
1776443398592323800,1.87732373046875,0.42841899394989014,-0.27194976806640625,-0.030373085290193558
1776443398617338600,1.902338623046875,0.3194757401943207,-0.07548969984054565,-0.133335679769516
1776443398642354700,1.927354736328125,0.488312691450119,0.3830653727054596,-0.21303397417068481
1776443398667370800,1.952370849609375,0.6905853748321533,0.5036144256591797,-0.16108475625514984
1776443398692386600,1.977386474609375,0.40275996923446655,0.6210275888442993,0.056419335305690765
1776443398717401900,2.00240185546875,0.31577208638191223,-0.4354254901409149,-0.19728563725948334
1776443398742417700,2.027417724609375,0.5101330280303955,0.011775433085858822,-0.058587413281202316
1776443398767433700,2.052433837890625,0.7906104922294617,0.1428210735321045,-0.11269538849592209
1776443398792449800,2.07744970703125,1.3227369785308838,0.3877756893634796,-0.07290297001600266
1776443398817464600,2.102464599609375,1.0730416774749756,0.06359921395778656,0.2382485270500183
1776443398842480600,2.127480712890625,0.7467730045318604,0.031743813306093216,0.2229960709810257
1776443398867496700,2.15249658203125,1.0169429779052734,-0.2209627330303192,0.2884594798088074
1776443398892512800,2.1775126953125,0.8201324343681335,-0.31632548570632935,0.3572814464569092
1776443398917527600,2.202527587890625,0.8886603713035583,0.03741661459207535,0.5944029092788696
1776443398942544000,2.2275439453125,1.2561718225479126,0.10441455245018005,0.6487947702407837
1776443398967559700,2.2525595703125,1.2734562158584595,0.19794291257858276,0.5875087976455688
1776443398992575700,2.27757568359375,0.8642202615737915,0.28050675988197327,0.3828032910823822
1776443399017591800,2.302591796875,0.5946465730667114,0.3569653034210205,0.4676430821418762
1776443399042606300,2.3276064453125,0.5879228711128235,0.12234162539243698,0.5355339646339417
1776443399067622100,2.3526220703125,0.714076578617096,-0.1276884526014328,0.3859303891658783
1776443399092638200,2.37763818359375,0.7405664920806885,-0.15976889431476593,0.2702019214630127
1776443399117654300,2.402654296875,0.5496492981910706,-0.1813117414712906,0.2631831765174866
1776443399142669300,2.42766943359375,0.5639949440956116,-0.05837063118815422,0.3710755407810211
1776443399167685400,2.452685302734375,0.774135410785675,-0.48250165581703186,0.15973827242851257
1776443399192701400,2.477701416015625,0.6613782048225403,-0.14883768558502197,0.3554750084877014
1776443399217717200,2.50271728515625,0.8015363812446594,-0.44245970249176025,0.3837681710720062
1776443399242732300,2.527732177734375,0.784535825252533,-0.13022564351558685,0.4607628285884857
1776443399267748400,2.552748291015625,0.7121391296386719,-0.01727912202477455,0.46074390411376953
1776443399292764200,2.57776416015625,0.6720334887504578,0.24010661244392395,0.41315215826034546
1776443399317780200,2.6027802734375,0.6420084834098816,0.5764683485031128,0.31803709268569946
1776443399342796300,2.62779638671875,0.7177392244338989,0.6204824447631836,0.12754890322685242
1776443399367811300,2.652811279296875,0.8328943252563477,0.7530907988548279,0.11457211524248123
1776443399392827400,2.677827392578125,0.8901557326316833,0.7296057343482971,0.1822078824043274
1776443399417843500,2.702843505859375,0.8230153322219849,0.5529390573501587,0.19967876374721527
1776443399442859300,2.727859375,0.6116111874580383,0.6758503317832947,0.36101704835891724
1776443399467874300,2.752874267578125,0.7727587819099426,0.33446985483169556,0.6169180870056152
1776443399492890400,2.777890380859375,0.9050142765045166,0.22901614010334015,0.7352449893951416
1776443399517906200,2.80290625,0.7998966574668884,0.3390718102455139,0.7490790486335754
1776443399542922200,2.827922119140625,0.7656968832015991,0.41702917218208313,0.9775921106338501
1776443399567937300,2.852937255859375,1.088100552558899,0.45271366834640503,1.1479593515396118
1776443399592953000,2.877953125,1.2503488063812256,0.2664647102355957,1.1456329822540283
1776443399617969200,2.90296923828125,1.1454801559448242,0.4123944938182831,0.9499679207801819
1776443399642985200,2.927985107421875,1.0043339729309082,0.44674739241600037,0.7821597456932068
1776443399668001300,2.953001220703125,1.0223898887634277,0.4245606064796448,0.8179968595504761
1776443399693016300,2.978016357421875,1.0214059352874756,0.33098697662353516,0.9049269556999207
1776443399718032400,3.003032470703125,0.9649753570556641,0.16205334663391113,0.6490405797958374
1776443399743048200,3.028048095703125,0.6711075305938721,0.2179293930530548,0.43178603053092957
1776443399768064300,3.053064208984375,0.3413940668106079,0.17041806876659393,0.30075982213020325
1776443399793079300,3.078079345703125,0.2795794606208801,-0.09801151603460312,-0.41742733120918274
1776443399818095000,3.10309521484375,0.310261994600296,-0.08080882579088211,-0.49548617005348206
1776443399843111200,3.128111083984375,0.3945057690143585,-0.1983623504638672,-0.2773780822753906
1776443399868127200,3.153127197265625,0.48533421754837036,0.030965372920036316,-0.38684651255607605
1776443399893143300,3.178143310546875,0.5709494948387146,0.33812612295150757,-0.4388098418712616
1776443399918158300,3.203158447265625,0.7380860447883606,0.3747669458389282,-0.47442111372947693
1776443399943174400,3.22817431640625,0.7250761985778809,0.5072829127311707,-0.5262105464935303
1776443399968190200,3.253190185546875,0.7464608550071716,0.440463125705719,-0.5103559494018555
1776443399993206300,3.278206298828125,0.565912663936615,0.3606114387512207,-0.31133684515953064
1776443400018222300,3.303222412109375,0.5176172852516174,0.034935347735881805,-0.04764901101589203
1776443400043236900,3.32823681640625,0.5117911100387573,-0.23854146897792816,0.09257493913173676
1776443400068253000,3.3532529296875,0.5640106201171875,-0.23892949521541595,0.2022729367017746
1776443400093269000,3.37826904296875,0.754652202129364,0.009632653556764126,0.22745633125305176
1776443400118285000,3.40328515625,1.150647759437561,0.21457915008068085,0.12762001156806946
1776443400143301000,3.428301025390625,1.4395335912704468,0.6896146535873413,0.2454283982515335
1776443400168316000,3.45331591796875,1.5678907632827759,0.206573948264122,0.1798989325761795
1776443400193332000,3.47833203125,1.4419834613800049,0.596991240978241,0.19932934641838074
1776443400218348000,3.50334814453125,1.0467355251312256,0.3660973012447357,0.1509607583284378
1776443400243363800,3.52836376953125,0.8874337077140808,0.5789725184440613,0.07362228631973267
1776443400268380000,3.5533798828125,0.8711828589439392,0.8159302473068237,0.023257119581103325
1776443400293395000,3.57839501953125,0.8519819974899292,0.7076770067214966,-0.03850558027625084
1776443400318410800,3.60341064453125,0.6444266438484192,0.47143757343292236,0.009137039072811604
1776443400343426800,3.6284267578125,0.38260889053344727,0.36215740442276,-0.030826622620224953
1776443400368443100,3.653443115234375,0.21771927177906036,0.13883671164512634,-0.027542678639292717
1776443400393458000,3.6784580078125,0.2069702297449112,0.05606620013713837,0.011903264559805393
1776443400418474000,3.703473876953125,0.15490037202835083,-0.06015121936798096,0.08689921349287033
1776443400443490000,3.728489990234375,-0.03713911399245262,-0.1639212965965271,0.2106725573539734
1776443400468505900,3.753505859375,-0.20668873190879822,-0.2576856017112732,0.2084008753299713
1776443400493522000,3.77852197265625,-0.07686388492584229,-0.29392775893211365,0.17922595143318176
1776443400518537000,3.803536865234375,0.4593699872493744,-0.49156174063682556,0.2225654274225235
1776443400543552800,3.828552734375,0.5777767896652222,-0.5625032782554626,0.18564602732658386
1776443400568568800,3.85356884765625,0.29136791825294495,-0.3593965172767639,0.16595888137817383
1776443400593585000,3.8785849609375,0.621417760848999,-0.2982753813266754,0.2544914186000824
1776443400618601000,3.90360107421875,1.167001724243164,-0.4914720058441162,0.16201287508010864
1776443400643617000,3.928616943359375,1.3953951597213745,-0.1297377496957779,0.36073315143585205
1776443400668632000,3.953632080078125,1.5125010013580322,-0.03359391167759895,0.38093748688697815
1776443400693648000,3.97864794921875,1.497490406036377,0.24045895040035248,0.2959160804748535
1776443400718664000,4.003663818359375,1.5032066106796265,0.3928958773612976,0.24678608775138855
1776443400743680000,4.028679931640625,1.4091962575912476,0.45614302158355713,0.10820716619491577
1776443400768694800,4.05369482421875,0.6535407900810242,0.7489482760429382,0.21504093706607819
1776443400793710800,4.0787109375,0.9522257447242737,0.5730528831481934,0.11311803013086319
1776443400818727000,4.103726806640625,1.0587012767791748,0.3804245591163635,0.05692719668149948
1776443400843742700,4.12874267578125,1.2324360609054565,0.19618761539459229,0.08982176333665848
1776443400868759000,4.153759033203125,1.5482497215270996,-0.028322717174887657,0.15828125178813934
1776443400893775000,4.178775146484375,1.7341407537460327,-0.1920543909072876,0.019415508955717087
1776443400918790000,4.203789794921875,1.5034239292144775,-0.21186138689517975,-0.03666666895151138
1776443400943806000,4.228805908203125,1.2770155668258667,-0.20055174827575684,-0.01991618424654007
1776443400968822000,4.253822021484375,0.938606321811676,-0.35158172249794006,-0.06538140028715134
1776443400993837800,4.278837890625,0.7722914218902588,-0.2618984580039978,-0.163816899061203
1776443401018854000,4.30385400390625,0.9097030758857727,-0.14976926147937775,-0.13614106178283691
1776443401043868700,4.32886865234375,0.9787471294403076,-0.1529482752084732,-0.14000317454338074
1776443401068884700,4.353884765625,1.038487434387207,-0.13593679666519165,-0.15644153952598572
1776443401093900800,4.37890087890625,1.0233526229858398,0.08552715182304382,-0.09536939859390259
1776443401118916900,4.403916748046875,0.9843000769615173,0.0914928987622261,-0.10268483310937881
1776443401143932700,4.4289326171875,0.9322094321250916,-0.07418634742498398,-0.18832384049892426
1776443401168947700,4.45394775390625,1.0023506879806519,-0.07490327209234238,-0.23310835659503937
1776443401193963800,4.4789638671875,0.8865593671798706,-0.150407075881958,-0.3190267086029053
1776443401218979600,4.5039794921875,0.7909814715385437,-0.22374548017978668,-0.25855937600135803
1776443401243995600,4.52899560546875,0.8380461931228638,-0.37190645933151245,-0.34130859375
1776443401269011700,4.55401171875,0.7945780754089355,-0.2853845953941345,-0.28714361786842346
1776443401294026500,4.579026611328125,0.8311541676521301,-0.3279064893722534,-0.22220750153064728
1776443401319042600,4.60404248046875,0.971779465675354,-0.3896678686141968,0.027481958270072937
1776443401344059000,4.629058837890625,1.2778949737548828,-0.3307294547557831,-0.03586718812584877
1776443401369074700,4.65407470703125,1.268473505973816,0.03947603702545166,0.11696736514568329
1776443401394090800,4.6790908203125,1.4935201406478882,0.24397911131381989,0.24105070531368256
1776443401419106800,4.70410693359375,1.2928802967071533,0.33554258942604065,0.34522131085395813
1776443401444121600,4.72912158203125,1.2907912731170654,0.5956921577453613,0.5734358429908752
1776443401469137700,4.7541376953125,1.3607144355773926,0.4644252061843872,0.5938481688499451
1776443401494153700,4.77915380859375,1.1998411417007446,0.46043843030929565,0.7598709464073181
1776443401519169800,4.804169677734375,0.8627009391784668,0.39350202679634094,0.9062886238098145
1776443401544185600,4.829185546875,0.8207308650016785,0.5320420861244202,0.7583612203598022
1776443401569200600,4.85420068359375,0.747470498085022,0.48803892731666565,0.8504219055175781
1776443401594216700,4.879216796875,0.7469229102134705,0.5395950675010681,0.7902398109436035
1776443401619232800,4.904232666015625,0.5683212280273438,0.32534241676330566,0.851622998714447
1776443401644248800,4.929248779296875,0.6141235828399658,0.07852330058813095,0.7106163501739502
1776443401669265000,4.954264892578125,0.47018080949783325,0.008788431994616985,0.7469199895858765
1776443401694280700,4.97928076171875,0.334290087223053,-0.1326155662536621,0.5287123322486877
1776443401719295700,5.004295654296875,0.2833861708641052,-0.3081541061401367,0.3814171254634857
1776443401744311800,5.029311767578125,0.4502981901168823,-0.34836438298225403,0.22555802762508392
1776443401769327600,5.05432763671875,0.7308920621871948,-0.5452731847763062,0.14831356704235077
1776443401794343700,5.07934375,0.9101092219352722,-0.6190648674964905,-0.02634745091199875
1776443401819359700,5.10435986328125,0.9424242377281189,-0.8834280371665955,-0.0942079946398735
1776443401844374800,5.129374755859375,1.115364909172058,-1.016977310180664,-0.12238849699497223
1776443401869390800,5.154390869140625,1.1950922012329102,-0.8774868249893188,-0.3168298900127411
1776443401894407000,5.179406982421875,1.190390706062317,-0.8503620028495789,-0.3108516037464142
1776443401919422700,5.204422607421875,1.1375048160552979,-0.425743043422699,-0.3569996654987335
1776443401944438800,5.229438720703125,1.1577248573303223,-0.47967231273651123,-0.49358442425727844
1776443401969454800,5.254454833984375,1.2507812976837158,-0.3791483938694,-0.3469531536102295
1776443401994469600,5.2794697265625,1.286704421043396,-0.31666529178619385,-0.2364700585603714
1776443402019485700,5.304485595703125,1.1979050636291504,-0.3651611804962158,-0.12501117587089539
1776443402044501800,5.329501708984375,1.2267358303070068,-0.2669408917427063,-0.02899596467614174
1776443402069517800,5.354517822265625,1.3513758182525635,-0.17948320508003235,0.12000256776809692
1776443402094533600,5.37953369140625,1.4074715375900269,-0.18761463463306427,0.2704189717769623
1776443402119548700,5.404548583984375,1.41814386844635,-0.17533107101917267,0.40098950266838074
1776443402144565000,5.42956494140625,1.264381766319275,-0.1569747030735016,0.485624223947525
1776443402169580800,5.454580810546875,1.0676082372665405,-0.08118646591901779,0.46332958340644836
1776443402194596900,5.479596923828125,0.973038911819458,0.05709923803806305,0.42092326283454895
1776443402219613000,5.504613037109375,0.9172145128250122,0.18564362823963165,0.3887437582015991
1776443402244628700,5.529628662109375,0.8221380710601807,0.25232014060020447,0.3569493293762207
1776443402269643800,5.554643798828125,0.8503382802009583,0.2981717884540558,0.4120384156703949
1776443402294659800,5.579659912109375,0.8831452131271362,0.28979986906051636,0.4751761257648468
1776443402319675600,5.604675537109375,0.8850613832473755,0.22102293372154236,0.4460025131702423
1776443402344691700,5.629691650390625,0.9273025393486023,0.17940092086791992,0.3742910325527191
1776443402369707800,5.654707763671875,0.9915366768836975,0.15777471661567688,0.30542701482772827
1776443402394723800,5.679723876953125,1.0201672315597534,0.09846505522727966,0.2249673306941986
1776443402419739000,5.70473876953125,1.0334370136260986,0.011773035861551762,0.1578681915998459
1776443402444755000,5.7297548828125,0.864552915096283,0.02346191555261612,0.17132754623889923
1776443402469770800,5.754770751953125,0.3100622594356537,0.01624821126461029,0.008075237274169922
1776443402494786800,5.779786865234375,0.26599225401878357,0.2250427007675171,0.06541389226913452
1776443402519803000,5.804802978515625,0.4909263253211975,0.23983682692050934,0.1980893760919571
1776443402544819000,5.82981884765625,0.5916587710380554,0.14544454216957092,0.302753746509552
1776443402569833700,5.854833740234375,0.5848309993743896,-0.015935024246573448,0.25221893191337585
1776443402594849800,5.879849853515625,0.5272355675697327,0.041255559772253036,0.2086504101753235
1776443402619865600,5.904865478515625,0.4954845905303955,0.10514745861291885,0.21400469541549683
1776443402644881700,5.929881591796875,0.4362199306488037,0.0721367746591568,0.22840946912765503
1776443402669897700,5.954897705078125,0.33103039860725403,-0.02081473357975483,0.4082178473472595
1776443402694913800,5.979913818359375,0.27526673674583435,-0.00010839065362233669,0.511070191860199
1776443402719928800,6.0049287109375,0.32668277621269226,-0.16717007756233215,0.4338960647583008
1776443402744945000,6.02994482421875,0.2768174707889557,-0.010103500448167324,0.4831371009349823
1776443402769961000,6.0549609375,0.4083467423915863,0.07066937536001205,0.4966755509376526
1776443402794976800,6.079976806640625,0.48841601610183716,0.060570135712623596,0.5928233861923218
1776443402819992800,6.104992919921875,0.5296958088874817,-0.04464789479970932,0.5924079418182373
1776443402845009000,6.1300087890625,0.6611846089363098,-0.2087462842464447,0.5253772139549255
1776443402870023700,6.155023681640625,0.7488904595375061,-0.1124088317155838,0.4856436550617218
1776443402895039700,6.180039794921875,0.8006455302238464,0.07357541471719742,0.4975253641605377
1776443402920055800,6.205055908203125,0.8344873785972595,0.16858714818954468,0.48931777477264404
1776443402945071600,6.230071533203125,0.8603275418281555,0.10277698189020157,0.3838808238506317
1776443402970087700,6.255087646484375,0.8222496509552002,0.012043879367411137,0.3122503161430359
1776443402995103700,6.280103759765625,0.8978277444839478,0.011060906574130058,0.2115548551082611
1776443403020118800,6.305118896484375,1.0999113321304321,-0.0005893575726076961,0.25247591733932495
1776443403045136000,6.330135986328125,1.2879142761230469,0.08007273077964783,0.29080867767333984
1776443403070151700,6.355151611328125,1.3902851343154907,0.09895800799131393,0.2314784973859787
1776443403095168000,6.38016796875,1.4488708972930908,0.12438027560710907,0.20377390086650848
1776443403120184000,6.40518408203125,1.5393028259277344,0.18273866176605225,0.23207931220531464
1776443403145200000,6.4302001953125,1.6240893602371216,0.14880119264125824,0.16338865458965302
1776443403170215000,6.45521484375,1.5493812561035156,0.26933321356773376,0.08304321765899658
1776443403195231000,6.48023095703125,1.5502899885177612,0.29155436158180237,0.023325029760599136
1776443403220246800,6.505246826171875,1.5080229043960571,0.24963593482971191,-0.022899722680449486
1776443403245262800,6.530262939453125,1.2607351541519165,0.3248097896575928,-0.03455664590001106
1776443403270279000,6.55527880859375,1.0928624868392944,0.3908500373363495,-0.04349128529429436
1776443403295295000,6.580294921875,1.1365327835083008,0.2801426947116852,-0.013173059560358524
1776443403320309800,6.605309814453125,0.9771814346313477,0.21253331005573273,0.03906217962503433
1776443403345325800,6.630325927734375,0.7127130627632141,0.09292967617511749,0.030485738068819046
1776443403370342100,6.655342041015625,0.5009480714797974,-0.06470122933387756,0.061232730746269226
1776443403395358000,6.68035791015625,0.31690311431884766,0.017286311835050583,0.21377938985824585
1776443403420374000,6.7053740234375,0.2766193449497223,0.030111296102404594,0.360177606344223
1776443403445390000,6.73039013671875,0.2992359697818756,-0.021190239116549492,0.43147149682044983
1776443403470404900,6.75540478515625,0.2676311731338501,-0.05277053639292717,0.38717249035835266
1776443403495421000,6.7804208984375,0.1743377149105072,-0.12091097235679626,0.261207640171051
1776443403520437000,6.80543701171875,0.5950223803520203,-0.0699513852596283,0.3845125138759613
1776443403545452800,6.830452880859375,1.0486366748809814,0.17502427101135254,0.47656840085983276
1776443403570468900,6.85546875,0.8918854594230652,0.2355709820985794,0.3429115414619446
1776443403595485000,6.88048486328125,0.397794246673584,0.2783661186695099,0.19581930339336395
1776443403620500000,6.9055,0.795078456401825,0.16166426241397858,0.2106051743030548
1776443403645516000,6.93051611328125,0.9377642869949341,0.5520216226577759,0.45019033551216125
1776443403670532000,6.955531982421875,1.1067396402359009,0.6488885283470154,0.47774526476860046
1776443403695548000,6.9805478515625,1.2715119123458862,0.7401443719863892,0.5289019346237183
1776443403720564000,7.00556396484375,1.4960116147994995,0.4996854364871979,0.4074181020259857
1776443403745580000,7.030580078125,1.415466070175171,0.410797655582428,0.28464797139167786
1776443403770595800,7.055595947265625,1.1510767936706543,0.4672878384590149,0.22414788603782654
1776443403795611000,7.08061083984375,1.0041134357452393,0.4110431969165802,0.17369616031646729
1776443403820627000,7.105626953125,0.9122219085693359,0.47387248277664185,0.12609055638313293
1776443403845642800,7.130642822265625,0.7634153366088867,0.38810059428215027,0.0889061689376831
1776443403870658800,7.155658935546875,0.8397559523582458,0.13016998767852783,0.03200693428516388
1776443403895675000,7.1806748046875,1.1269525289535522,0.2317594587802887,0.08195425570011139
1776443403920691000,7.20569091796875,1.3948683738708496,0.4188196361064911,0.10785109549760818
1776443403945706000,7.2307060546875,1.6202813386917114,0.3777720630168915,0.14980201423168182
1776443403970722000,7.25572216796875,1.915767788887024,0.2809504568576813,0.17296752333641052
1776443403995737900,7.28073779296875,2.002443790435791,0.23221325874328613,0.1704132854938507
1776443404020754000,7.30575390625,1.9364936351776123,0.3803907334804535,0.2403566837310791
1776443404045769200,7.330769287109375,1.9406723976135254,0.24724042415618896,0.22044076025485992
1776443404070785300,7.355785400390625,1.9373646974563599,0.0784926787018776,0.24259719252586365
1776443404095800000,7.380800048828125,1.7576748132705688,0.08846142143011093,0.30444565415382385
1776443404120816000,7.405816162109375,1.5068622827529907,0.10845670104026794,0.34347400069236755
1776443404145832200,7.430832275390625,1.1037452220916748,-0.005636846646666527,0.2721167504787445
1776443404170848300,7.45584814453125,1.0985318422317505,-0.022312762215733528,0.2754960358142853
1776443404195864300,7.4808642578125,1.0929738283157349,0.02955416403710842,0.28146204352378845
1776443404220880400,7.50588037109375,1.090441107749939,0.012802880257368088,0.2875231206417084
1776443404245895200,7.530895263671875,1.1468980312347412,0.11226662248373032,0.29910972714424133
1776443404270911200,7.5559111328125,1.00785493850708,0.23052215576171875,0.24882712960243225
1776443404295927300,7.58092724609375,1.1416065692901611,0.20240716636180878,0.11303627490997314
1776443404320943000,7.605943115234375,0.778704822063446,0.4606301784515381,0.2193472683429718
1776443404345959200,7.630959228515625,0.5794457793235779,0.3076134920120239,0.1937931776046753
1776443404370975200,7.655975341796875,0.476289302110672,0.3077338635921478,0.2290552854537964
1776443404395991000,7.680990966796875,0.41048234701156616,0.2226298749446869,0.16654689610004425
1776443404421006000,7.706006103515625,0.31569671630859375,0.11892851442098618,0.1578676551580429
1776443404446022400,7.7310224609375,0.46925005316734314,0.13753868639469147,0.1288413405418396
1776443404471038200,7.7560380859375,0.5673760771751404,0.25528237223625183,0.01739763282239437
1776443404496054300,7.78105419921875,0.6513388752937317,0.07540927082300186,0.11712316423654556
1776443404521070300,7.8060703125,0.8608774542808533,0.5315240621566772,0.2002987414598465
1776443404546086100,7.831086181640625,0.9656198620796204,0.2486838549375534,0.009512544609606266
1776443404571101200,7.85610107421875,1.093626856803894,0.41545578837394714,0.02514982782304287
1776443404596117200,7.8811171875,1.2931071519851685,0.2905260920524597,-0.14291907846927643
1776443404621133000,7.906133056640625,1.0535073280334473,-0.09387536346912384,-0.3660128712654114
1776443404646149000,7.931149169921875,0.8162381052970886,0.22333934903144836,-0.27853867411613464
1776443404671165200,7.956165283203125,0.8305296897888184,-0.03847016021609306,-0.31439682841300964
1776443404696181200,7.98118115234375,0.7047491073608398,-0.3661625385284424,-0.37032878398895264
1776443404721196300,8.0061962890625,0.4899846315383911,-0.5990114808082581,-0.3093043267726898
1776443404746212400,8.03121240234375,0.5790234208106995,-0.7049259543418884,-0.2048511505126953
1776443404771228200,8.056228271484375,0.41062694787979126,-0.5684407949447632,-0.3204200863838196
1776443404796244200,8.081244140625,0.4710918962955475,-0.09748474508523941,-0.3857210576534271
1776443404821260300,8.10626025390625,0.5611069798469543,0.4525160789489746,-0.23464952409267426
1776443404846276400,8.1312763671875,0.5966429114341736,0.7667443156242371,0.0557684563100338
1776443404871292200,8.156292236328126,0.577348530292511,0.6968499422073364,0.2950470745563507
1776443404896307200,8.18130712890625,0.34197545051574707,0.35667848587036133,0.3242095112800598
1776443404921323300,8.2063232421875,0.3305664658546448,0.32443931698799133,0.362714022397995
1776443404946339000,8.231339111328126,0.5274062752723694,0.06838305294513702,0.35861140489578247
1776443404971355100,8.256355224609376,0.1269608736038208,-0.047327302396297455,0.2832053303718567
1776443404996371200,8.28137109375,0.27085813879966736,0.005784385837614536,0.2794838547706604
1776443405021387000,8.306386962890626,0.5866086483001709,-0.10194607079029083,0.24392877519130707
1776443405046401800,8.33140185546875,0.7212072014808655,-0.1460152566432953,0.1042742058634758
1776443405071417900,8.35641796875,0.839673638343811,0.08638016134500504,0.12768100202083588
1776443405096433700,8.38143359375,1.0113940238952637,-0.006930610164999962,0.05247758701443672
1776443405121449700,8.40644970703125,1.158495306968689,-0.10439565032720566,0.0015939018921926618
1776443405146465800,8.4314658203125,0.9698857069015503,-0.013938718475401402,-0.14681021869182587
1776443405171481600,8.456481689453126,0.42855188250541687,-0.3442990481853485,-0.3304695188999176
1776443405196497700,8.48149755859375,0.35609713196754456,-0.13720792531967163,-0.04222521930932999
1776443405221512700,8.5065126953125,0.6589534282684326,-0.31525862216949463,0.02629898115992546
1776443405246528500,8.531528564453126,0.6965247392654419,0.12145612388849258,0.1606069952249527
1776443405271544600,8.556544677734376,0.8333480954170227,0.1829594373703003,0.4244745969772339
1776443405296560600,8.581560546875,0.7601625919342041,0.259493350982666,0.4109595715999603
1776443405321576700,8.60657666015625,0.8502176403999329,0.35150158405303955,0.5074922442436218
1776443405346592800,8.6315927734375,0.9272304177284241,0.42081671953201294,0.5890619158744812
1776443405371608800,8.65660888671875,1.0095417499542236,0.14923769235610962,0.578169584274292
1776443405396623600,8.68162353515625,1.2034790515899658,-0.09794706851243973,0.4057150185108185
1776443405421639700,8.7066396484375,1.3149815797805786,-0.024339960888028145,0.18143664300441742
1776443405446655700,8.73165576171875,1.4617444276809692,0.13134177029132843,-0.0519137978553772
1776443405471671600,8.756671630859374,1.5986708402633667,0.22841133177280426,-0.2825571298599243
1776443405496687600,8.7816875,1.609189510345459,0.17960011959075928,-0.24575810134410858
1776443405521703700,8.80670361328125,1.549106478691101,0.11046446114778519,-0.12550625205039978
1776443405546719700,8.8317197265625,1.4307407140731812,0.0761384442448616,-0.19322697818279266
1776443405571734800,8.85673486328125,1.2175021171569824,-0.1471681445837021,-0.25483787059783936
1776443405596750800,8.881750732421875,1.0425209999084473,-0.33599159121513367,-0.2854200303554535
1776443405621767000,8.906766845703125,1.036107063293457,-0.43277406692504883,-0.35437485575675964
1776443405646782700,8.93178271484375,0.9220449328422546,-0.47452816367149353,-0.4312099814414978
1776443405671798800,8.956798828125,0.6082577109336853,-0.5389697551727295,-0.3894127309322357
1776443405696814800,8.98181494140625,0.48301273584365845,-0.46932515501976013,-0.29958751797676086
1776443405721830700,9.00683056640625,0.6140609979629517,-0.4040902256965637,-0.29215142130851746
1776443405746845700,9.031845703125,0.6636706590652466,-0.18741543591022491,-0.2240850329399109
1776443405771861800,9.05686181640625,0.7365384697914124,-0.097262904047966,-0.09758195281028748
1776443405796877600,9.081877685546875,0.8520674705505371,0.11107245832681656,0.06980118900537491
1776443405821893600,9.1068935546875,0.9094253182411194,0.2743002772331238,0.18923410773277283
1776443405846909700,9.13190966796875,0.9257291555404663,0.32342973351478577,0.2730299234390259
1776443405871925500,9.156925537109375,0.9998641014099121,0.4256240129470825,0.2445002943277359
1776443405896941600,9.181941650390625,0.9782515168190002,0.42077013850212097,0.18112824857234955
1776443405921956900,9.206956787109375,0.1941620260477066,-0.0990205928683281,-0.018315890803933144
1776443405946972700,9.23197265625,0.04881840571761131,-0.1733534038066864,0.0918729305267334
1776443405971988700,9.25698876953125,0.2463892698287964,-0.2731492519378662,-0.07717334479093552
1776443405997004800,9.2820048828125,0.3007284104824066,-0.017799770459532738,-0.22052252292633057
1776443406022020600,9.3070205078125,0.4459228813648224,0.10860104858875275,-0.16308851540088654
1776443406047037700,9.33203759765625,0.39237096905708313,0.0408526249229908,-0.005456018261611462
1776443406072052700,9.357052734375,0.4210183322429657,0.20268413424491882,0.0880797877907753
1776443406097068500,9.382068603515625,0.4413582384586334,-0.08566856384277344,-0.04031147062778473
1776443406122084600,9.407084716796875,0.5399996042251587,0.043711792677640915,-0.14705602824687958
1776443406147100700,9.4321005859375,0.6590918898582458,0.06262796372175217,-0.22754846513271332
1776443406172116700,9.45711669921875,0.7451567053794861,0.2753612697124481,-0.24265818297863007
1776443406197132500,9.482132568359376,0.8556028008460999,0.2083372324705124,-0.257104754447937
1776443406222148600,9.507148681640626,0.89727783203125,0.016353139653801918,-0.3059447407722473
1776443406247163600,9.53216357421875,1.046658992767334,-0.12987171113491058,-0.29009947180747986
1776443406272179700,9.5571796875,1.199868083000183,-0.34866103529930115,-0.23683997988700867
1776443406297195800,9.58219580078125,1.1544324159622192,-0.26582154631614685,-0.09946693480014801
1776443406322211800,9.6072119140625,1.103932499885559,-0.24884870648384094,0.024350879713892937
1776443406347227600,9.6322275390625,1.1339616775512695,-0.10897389054298401,0.19469518959522247
1776443406372243700,9.65724365234375,1.2958770990371704,-0.12832574546337128,0.23673345148563385
1776443406397259800,9.682259765625,1.3917245864868164,-0.13632482290267944,0.3687282204627991
1776443406422275600,9.707275634765624,1.3608648777008057,0.0033425334841012955,0.5457024574279785
1776443406447290600,9.73229052734375,1.3021984100341797,-0.035421907901763916,0.4299316704273224
1776443406472306700,9.757306640625,1.3399276733398438,-0.05685555934906006,0.3256193697452545
1776443406497322500,9.782322509765624,1.3398387432098389,0.04681624099612236,0.3780199885368347
1776443406522338600,9.807338623046874,1.3053590059280396,0.09679285436868668,0.3822208642959595
1776443406547354600,9.832354736328124,1.2625865936279297,-0.10092794895172119,0.24745772778987885
1776443406572370700,9.85737060546875,1.3469570875167847,0.1413123905658722,0.19842280447483063
1776443406597385700,9.8823857421875,1.3196841478347778,0.25087884068489075,0.25456702709198
1776443406622401800,9.90740185546875,1.0411356687545776,0.18615922331809998,0.16715490818023682
1776443406647417600,9.93241748046875,0.8854443430900574,-0.0003424825263209641,0.024698421359062195
1776443406672433700,9.95743359375,0.8770199418067932,0.10667771100997925,-0.024882180616259575
1776443406697449700,9.98244970703125,0.7180638313293457,0.1875256896018982,0.0028122980147600174
1776443406722465800,10.0074658203125,0.47175902128219604,0.13374288380146027,0.006148439832031727
1776443406747481600,10.032481689453125,0.4174867272377014,0.10045284032821655,0.05728379637002945
1776443406772497700,10.05749755859375,0.4146248698234558,0.000800279900431633,0.05717114359140396
1776443406797512400,10.082512451171874,0.3353409767150879,-0.14974714815616608,0.03405091166496277
1776443406822528500,10.107528564453125,0.23149101436138153,-0.17088864743709564,0.05325469747185707
1776443406847544600,10.132544677734375,0.1898338496685028,-0.09485647082328796,0.14050652086734772
1776443406872560600,10.157560546875,0.2138931155204773,0.03496330976486206,0.21900531649589539
1776443406897576400,10.182576416015625,0.23933136463165283,-0.02990756556391716,0.14271427690982819
1776443406922592500,10.207592529296875,0.5602768659591675,-0.062016233801841736,0.07777708768844604
1776443406947608800,10.23260888671875,0.7546072006225586,-0.020112991333007812,0.03573456034064293
1776443406972623600,10.25762353515625,0.8399783372879028,-0.048641037195920944,0.010084059089422226
1776443406997639700,10.2826396484375,0.994417667388916,-0.014990933239459991,-0.005923136603087187
1776443407022655700,10.30765576171875,1.2321343421936035,-0.1708870530128479,-0.10222650319337845
1776443407047671300,10.33267138671875,1.057246446609497,-0.1586165428161621,0.05820764601230621
1776443407072687400,10.357687255859375,1.4227674007415771,-0.6516483426094055,0.13579298555850983
1776443407097703200,10.382703125,1.6574792861938477,-0.4435880780220032,0.33248022198677063
1776443407122719200,10.40771923828125,1.2632802724838257,-0.40700745582580566,0.5059548020362854
1776443407147734500,10.432734619140625,1.165517807006836,-0.5664202570915222,0.48057088255882263
1776443407172750300,10.457750244140625,1.1490352153778076,-0.27473995089530945,0.5040338635444641
1776443407197766400,10.482766357421875,1.2195850610733032,-0.21605879068374634,0.5321147441864014
1776443407222782500,10.507782470703125,1.139130711555481,-0.16482409834861755,0.6129763126373291
1776443407247798300,10.53279833984375,1.1381865739822388,-0.01690548099577427,0.68500816822052
1776443407272814300,10.557814453125,1.3012484312057495,-0.1470664143562317,0.6131254434585571
1776443407297830400,10.582830322265625,1.3622252941131592,-0.3295286297798157,0.5660106539726257
1776443407322846500,10.607846435546875,1.3819345235824585,-0.4744488000869751,0.5084525942802429
1776443407347861200,10.632861328125,1.4577677249908447,-0.40378129482269287,0.49200594425201416
1776443407372877300,10.657877197265625,1.4739384651184082,-0.271445095539093,0.4682183265686035
1776443407397893400,10.682893310546875,1.6176223754882812,-0.1892831027507782,0.3477790057659149
1776443407422909200,10.7079091796875,1.7522352933883667,-0.009472597390413284,0.313696950674057
1776443407447925200,10.73292529296875,1.4578449726104736,0.14470019936561584,0.2480423003435135
1776443407472941300,10.75794140625,1.2459346055984497,0.4384545683860779,0.15300233662128448
1776443407497957000,10.78295703125,0.9816350340843201,0.30489304661750793,-0.014830078929662704
1776443407522972400,10.807972412109375,0.885094940662384,0.33242616057395935,-0.12332645803689957
1776443407547988500,10.832988525390626,0.8936495184898376,0.23721681535243988,-0.20763468742370605
1776443407573004300,10.85800439453125,1.1097387075424194,0.25679531693458557,-0.08805076032876968
1776443407598020400,10.883020263671876,1.257951021194458,0.2779381275177002,0.16760897636413574
1776443407623036400,10.908036376953126,1.5259335041046143,-0.0978298932313919,0.301670640707016
1776443407648052200,10.93305224609375,1.582270860671997,-0.025306155905127525,0.21354344487190247
1776443407673068300,10.958068359375,1.3489123582839966,-0.06561549752950668,0.34600454568862915
1776443407698084400,10.98308447265625,1.368449091911316,-0.015438610687851906,0.14143063127994537
1776443407723099100,11.00809912109375,1.194071650505066,-0.024391092360019684,0.18254877626895905
1776443407748115200,11.033115234375,1.1032626628875732,0.3351026177406311,0.2885330021381378
1776443407773131300,11.05813134765625,1.08991277217865,0.20574145019054413,0.16144748032093048
1776443407798147300,11.083147216796876,1.0461444854736328,0.49897944927215576,0.1743672788143158
1776443407823163400,11.108163330078124,1.1832855939865112,0.36597371101379395,0.18451258540153503
1776443407848179500,11.133179443359374,1.1550049781799316,0.4403560757637024,0.22146475315093994
1776443407873195500,11.158195556640624,1.2472251653671265,0.20132379233837128,0.3389309346675873
1776443407898211300,11.18321142578125,1.340276837348938,-0.15282736718654633,0.3658379018306732
1776443407923226400,11.208226318359374,1.4551576375961304,-0.23774731159210205,0.23577284812927246
1776443407948242400,11.233242431640624,1.3806620836257935,-0.16649337112903595,0.3383426368236542
1776443407973258200,11.25825830078125,1.3502978086471558,-0.1585020273923874,0.35615891218185425
1776443407998274300,11.2832744140625,1.175839900970459,0.07630223035812378,0.3459262549877167
1776443408023290400,11.308290283203124,0.9595076441764832,0.15475548803806305,0.4996609389781952
1776443408048306200,11.33330615234375,0.7003517150878906,0.20914310216903687,0.5434646010398865
1776443408073322200,11.358322265625,0.6123712658882141,0.24755972623825073,0.5569950938224792
1776443408098337500,11.383337646484375,0.625090479850769,0.21309097111225128,0.5872390270233154
1776443408123353300,11.408353271484375,0.6870129704475403,0.15282337367534637,0.5186485052108765
1776443408148369400,11.433369384765625,0.6481308341026306,0.05669283866882324,0.3629893958568573
1776443408173385500,11.458385498046875,0.47763046622276306,0.00012596751912496984,0.28793805837631226
1776443408198401300,11.4834013671875,0.3869868516921997,-0.16774186491966248,0.1414538025856018
1776443408223417300,11.508417236328125,0.3832339346408844,-0.17595984041690826,0.029752036556601524
1776443408248433400,11.533433349609375,0.3862433135509491,-0.10541244596242905,-0.013056413270533085
1776443408273449500,11.558449462890625,0.3242843449115753,-0.1439286768436432,-0.0945371612906456
1776443408298464300,11.58346435546875,0.20379094779491425,-0.3056078553199768,-0.10251305997371674
1776443408323480300,11.608480224609375,0.17009609937667847,-0.24176256358623505,-0.053639527410268784
1776443408348496100,11.63349609375,0.5192596912384033,-0.17592096328735352,0.026619626209139824
1776443408373512200,11.65851220703125,0.9162954688072205,-0.22688481211662292,-0.11542033404111862
1776443408398528300,11.6835283203125,0.9200907349586487,-0.20617340505123138,-0.20570895075798035
1776443408423544300,11.70854443359375,0.8512402772903442,-0.10181504487991333,-0.3337545394897461
1776443408448560000,11.73356005859375,0.9120548963546753,0.024650217965245247,-0.43698665499687195
1776443408473576200,11.758576171875,0.907666802406311,-0.019475696608424187,-0.43162330985069275
1776443408498591500,11.783591552734375,0.7416206002235413,0.14461123943328857,-0.44682809710502625
1776443408523607300,11.808607177734375,0.8688512444496155,0.3775422275066376,-0.4777356684207916
1776443408548623400,11.833623291015625,0.9198417067527771,0.3211474120616913,-0.4301700294017792
1776443408573639400,11.858639404296875,0.9695685505867004,-0.07012183219194412,-0.48447614908218384
1776443408598655200,11.8836552734375,1.1218979358673096,-0.18141533434391022,-0.33895888924598694
1776443408623671300,11.90867138671875,1.145572304725647,-0.4513791799545288,-0.28982222080230713
1776443408648687400,11.933687255859375,1.0967371463775635,-0.5268195867538452,-0.15682609379291534
1776443408673703400,11.958703369140625,1.1653348207473755,-0.46272289752960205,0.14568103849887848
1776443408698718200,11.98371826171875,1.2278165817260742,-0.39013391733169556,0.08807259798049927
1776443408723734300,12.008734375,1.3266781568527222,-0.23285987973213196,0.10093380510807037
1776443408748750300,12.033750244140625,1.4025570154190063,-0.1795862764120102,0.23432381451129913
1776443408773766400,12.058766357421876,0.9997743964195251,-0.03323465213179588,0.1168091744184494
1776443408798782500,12.083782470703126,0.6146999001502991,0.29942265152931213,0.11182906478643417
1776443408823798500,12.108798583984376,0.2023986428976059,0.5209473371505737,0.22326557338237762
1776443408848814300,12.133814453125,0.39842087030410767,0.3948485255241394,0.29426971077919006
1776443408873830400,12.158830322265626,0.5692594647407532,0.16228850185871124,0.27622759342193604
1776443408898845400,12.183845458984376,0.7347211241722107,-0.04195783659815788,0.288928747177124
1776443408923861200,12.208861328125,0.8601128458976746,-0.08286585658788681,0.24174737930297852
1776443408948877300,12.233877197265626,0.9030033349990845,-0.09101459383964539,0.1300453543663025
1776443408973893400,12.258893310546876,1.0557851791381836,-0.08689521998167038,0.14798440039157867
1776443408998909200,12.2839091796875,1.219163417816162,-0.0994403064250946,0.30731865763664246
1776443409023925200,12.30892529296875,1.1897273063659668,-0.12782028317451477,0.2997851073741913
1776443409048940500,12.3339404296875,1.1215524673461914,-0.17093846201896667,0.3859626054763794
1776443409073956600,12.35895654296875,1.0693731307983398,-0.10180838406085968,0.35419803857803345
1776443409098972000,12.383971923828126,0.9336190223693848,-0.10091596096754074,0.30933892726898193
1776443409123987700,12.40898779296875,0.7976990342140198,-0.011985556222498417,0.32940346002578735
1776443409149003800,12.434003662109374,0.6293789744377136,0.1659306436777115,0.3231487572193146
1776443409174019800,12.459019775390624,0.43283611536026,0.06513852626085281,0.13650484383106232
1776443409199036000,12.484035888671874,0.44092920422554016,0.0875207930803299,0.16918928921222687
1776443409224051700,12.5090517578125,0.4675096571445465,-0.010486196726560593,0.1909331977367401
1776443409249067800,12.53406787109375,0.5626378059387207,-0.065294049680233,0.2693465054035187
1776443409274083800,12.559083740234374,0.6003420352935791,0.031014641746878624,0.4176845848560333
1776443409299098600,12.5840986328125,0.5506953597068787,0.026676084846258163,0.2812521755695343
1776443409324114700,12.60911474609375,0.5880051851272583,0.050629623234272,0.28352120518684387
1776443409349130800,12.634130859375,0.564491868019104,-0.13228027522563934,0.3102145791053772
1776443409374146800,12.659146728515625,0.5712573528289795,-0.25957804918289185,0.24553360044956207
1776443409399163000,12.684162841796875,0.6814656257629395,-0.448343962430954,0.19530664384365082
1776443409424179000,12.709178955078125,0.770786702632904,-0.5787323117256165,0.23927277326583862
1776443409449194800,12.73419482421875,0.8293583989143372,-0.7132714986801147,0.19539053738117218
1776443409474210800,12.7592109375,0.7521238327026367,-0.6970062255859375,0.04677576199173927
1776443409499227000,12.784226806640625,0.6894205212593079,-0.44192174077033997,0.05294550582766533
1776443409524241700,12.80924169921875,0.7407734394073486,-0.23188862204551697,0.08973681181669235
1776443409549257700,12.8342578125,0.8441501259803772,0.06203700602054596,0.17825736105442047
1776443409574273800,12.859273681640625,0.8896042108535767,0.24602894484996796,0.26860880851745605
1776443409599289600,12.88428955078125,1.004421591758728,0.2633133828639984,0.5404757261276245
1776443409624305700,12.9093056640625,1.036940336227417,0.41603583097457886,0.6872236728668213
1776443409649321700,12.93432177734375,0.9907446503639221,0.4079504609107971,0.7862178683280945
1776443409674337800,12.959337890625,0.899227499961853,0.25049319863319397,0.8067460656166077
1776443409699353600,12.984353515625,0.8637523651123047,0.2110070437192917,0.7195163369178772
1776443409724369000,13.009368896484375,0.8816157579421997,0.05812721699476242,0.5882589817047119
1776443409749385000,13.034385009765625,0.8531529903411865,0.006901049055159092,0.5698874592781067
1776443409774400800,13.05940087890625,0.8687311410903931,0.21182410418987274,0.6954362988471985
1776443409799416800,13.084416748046875,0.9825202822685242,0.2186306118965149,0.7501424551010132
1776443409824433000,13.109432861328125,1.0874149799346924,-0.047578971832990646,0.6661080121994019
1776443409849448700,13.13444873046875,1.1012146472930908,-0.07961839437484741,0.7041826844215393
1776443409874464800,13.15946484375,1.1008895635604858,-0.08300380408763885,0.7639392018318176
1776443409899480800,13.184480712890625,1.1489566564559937,-0.02352822944521904,0.8554733991622925
1776443409924497000,13.209496826171875,1.1790157556533813,-0.13353489339351654,0.8816496133804321
1776443409949511700,13.23451171875,1.1149179935455322,-0.10130158811807632,0.8788647055625916
1776443409974527700,13.25952783203125,1.0408512353897095,-0.07891398668289185,0.8746060729026794
1776443409999543600,13.28454345703125,0.8582593202590942,-0.1262812316417694,0.7886733412742615
1776443410024559600,13.3095595703125,0.738496720790863,-0.2426038533449173,0.7786459922790527
1776443410049576700,13.33457666015625,0.7200407385826111,-0.22487306594848633,0.738808810710907
1776443410074592500,13.359592529296876,0.7505528330802917,-0.21626412868499756,0.6870489716529846
1776443410099608600,13.384608642578126,0.6167470812797546,-0.20618805289268494,0.6106452345848083
1776443410124624600,13.409624755859374,0.563358724117279,-0.14623843133449554,0.5042679309844971
1776443410149640400,13.434640380859374,0.5605086088180542,-0.19480623304843903,0.3276124894618988
1776443410174655700,13.45965576171875,0.5567785501480103,-0.019708190113306046,0.1454131156206131
1776443410199671800,13.484671875,0.5671334862709045,0.05699723958969116,-0.10646972060203552
1776443410224687600,13.5096875,0.6136801838874817,0.17193500697612762,-0.27616339921951294
1776443410249703700,13.53470361328125,0.6495503187179565,0.3041319251060486,-0.40091758966445923
1776443410274719700,13.5597197265625,0.6625925898551941,0.46510830521583557,-0.5196192264556885
1776443410299735600,13.584735595703124,0.8164982795715332,0.54258793592453,-0.6065139174461365
1776443410324751600,13.609751708984374,0.8553090691566467,0.6516720652580261,-0.5586432814598083
1776443410349767700,13.634767578125,0.7733718752861023,0.8187854290008545,-0.5310162305831909
1776443410374783700,13.65978369140625,0.7714447975158691,0.8120164275169373,-0.5355936288833618
1776443410399798500,13.684798583984374,0.7352361679077148,0.8899456262588501,-0.4669346809387207
1776443410424814600,13.709814697265625,0.6764575839042664,0.8366440534591675,-0.41626885533332825
1776443410449830700,13.73483056640625,0.6190131902694702,0.6486179232597351,-0.38890540599823
1776443410474846700,13.7598466796875,0.5639895796775818,0.5177896022796631,-0.29624709486961365
1776443410499862800,13.78486279296875,0.48730894923210144,0.36383625864982605,-0.2394048571586609
1776443410524878800,13.80987890625,0.3381897509098053,0.14078374207019806,-0.24111488461494446
1776443410549894700,13.834894775390625,0.188306525349617,-0.02279719151556492,-0.23963229358196259
1776443410574910700,13.85991064453125,0.22768615186214447,-0.06295552849769592,-0.08736126869916916
1776443410599926800,13.8849267578125,0.34790363907814026,0.02478550747036934,0.08647763729095459
1776443410624941600,13.909941650390625,0.385539710521698,0.010899253189563751,0.14066922664642334
1776443410649957600,13.93495751953125,0.44740813970565796,0.10812193900346756,0.0821973979473114
1776443410674973700,13.9599736328125,0.6436743140220642,0.0771792083978653,0.10956590622663498
1776443410699989500,13.984989501953125,0.8719884157180786,0.2731393873691559,0.21687185764312744
1776443410725005600,14.010005615234375,0.9878905415534973,0.37385934591293335,0.24860608577728271
1776443410750021600,14.035021728515625,1.1093498468399048,0.242328479886055,0.277308851480484
1776443410775037700,14.06003759765625,0.9929242134094238,0.14786721765995026,0.2843124270439148
1776443410800053500,14.085053466796875,0.8521702885627747,0.2886911928653717,0.26293522119522095
1776443410825069600,14.110069580078125,0.7348662614822388,0.14296647906303406,0.20476193726062775
1776443410850084600,14.135084716796875,0.47762009501457214,-0.07384759187698364,0.11163625121116638
1776443410875100700,14.1601005859375,0.4219565689563751,-0.2142326682806015,0.07805006206035614
1776443410900116700,14.18511669921875,0.5456146001815796,-0.13629738986492157,0.16180939972400665
1776443410925132800,14.2101328125,0.6533157825469971,-0.08480516821146011,0.11976288259029388
1776443410950148600,14.235148681640625,0.7785727381706238,0.14486292004585266,-0.04387291520833969
1776443410975164700,14.26016455078125,1.0007336139678955,0.36417075991630554,-0.20037703216075897
1776443411000180700,14.2851806640625,1.1557674407958984,0.5555471181869507,-0.33368051052093506
1776443411025196500,14.310196533203126,1.2709933519363403,0.6710792779922485,-0.37256932258605957
1776443411050212400,14.33521240234375,1.3845151662826538,0.7671903967857361,-0.27068236470222473
1776443411075227400,14.360227294921875,1.377488374710083,0.6433046460151672,-0.24798157811164856
1776443411100243500,14.385243408203126,1.2860591411590576,0.4989296495914459,-0.25184208154678345
1776443411125259500,14.410259521484376,1.1126763820648193,0.38383954763412476,-0.23100446164608002
1776443411150275600,14.435275634765626,1.0654220581054688,0.1837458610534668,-0.14633937180042267
1776443411175291600,14.460291748046876,0.9899478554725647,-0.009966347366571426,-0.05619296431541443
1776443411200307500,14.485307373046876,0.8084054589271545,-0.12319037318229675,0.05349118635058403
1776443411225323500,14.510323486328126,0.7954758405685425,-0.3201737403869629,0.0668589249253273
1776443411250339600,14.535339599609374,0.7610635161399841,-0.6337069272994995,0.05512131005525589
1776443411275355400,14.56035546875,0.814717710018158,-0.5355795621871948,0.10681512951850891
1776443411300370400,14.585370361328126,0.9924983382225037,-0.6127246618270874,0.08321206271648407
1776443411325386500,14.610386474609374,1.1472375392913818,-0.5340964198112488,0.11544962972402573
1776443411350402300,14.63540234375,1.3008055686950684,-0.46671098470687866,0.20601814985275269
1776443411375418400,14.66041845703125,1.5517005920410156,-0.29615896940231323,0.32303211092948914
1776443411400434400,14.685434326171874,1.7580114603042603,-0.25332680344581604,0.3317670226097107
1776443411425450200,14.7104501953125,1.8981187343597412,-0.1733102649450302,0.34851858019828796
1776443411450466300,14.73546630859375,1.8655073642730713,-0.281273752450943,0.3415410816669464
1776443411475482400,14.760482421875,1.7365671396255493,-0.472436785697937,0.2486436367034912
1776443411500498400,14.78549853515625,1.5688759088516235,-0.6318634748458862,0.062389075756073
1776443411525514200,14.81051416015625,1.5721156597137451,-0.6767680644989014,0.014146711677312851
1776443411550529500,14.835529541015624,1.5409194231033325,-0.696136474609375,-0.04385267570614815
1776443411575545600,14.860545654296875,1.6518837213516235,-0.6789726614952087,-0.07581353932619095
1776443411600561400,14.8855615234375,1.8152897357940674,-0.5557377934455872,0.0037292244378477335
1776443411625577500,14.910577392578125,1.9179267883300781,-0.49705690145492554,0.03407168388366699
1776443411650593500,14.935593505859375,2.079240083694458,-0.22886061668395996,0.10910385102033615
1776443411675609300,14.960609375,2.2445757389068604,-0.09690950065851212,0.2228756844997406
1776443411700625400,14.98562548828125,2.1943466663360596,0.1678513139486313,0.38285312056541443
1776443411725641500,15.010641357421875,2.0189731121063232,0.31113630533218384,0.45068249106407166
1776443411750657500,15.035657470703125,1.7522969245910645,0.4074482023715973,0.6561205983161926
1776443411775672300,15.06067236328125,1.3959118127822876,0.6469151377677917,0.7300249338150024
1776443411800688400,15.0856884765625,1.1267285346984863,0.8237383365631104,0.769074022769928
1776443411825704400,15.110704345703125,0.9464219212532043,0.828766405582428,0.785578727722168
1776443411850720500,15.135720458984375,0.9682154059410095,0.8334234952926636,0.8466758728027344
1776443411875736600,15.160736572265625,0.5593764781951904,0.6329479217529297,0.8778721690177917
1776443411900752600,15.185752685546875,0.36494067311286926,0.5790644288063049,0.8307288885116577
1776443411925768400,15.2107685546875,0.240142822265625,0.4041690528392792,0.6905629634857178
1776443411950784500,15.235784423828125,0.15366998314857483,0.23614728450775146,0.5801632404327393
1776443411975800600,15.260800537109375,0.019572369754314423,0.13569018244743347,0.4337533116340637
1776443412000816400,15.28581640625,0.03892875835299492,-0.043289683759212494,0.21692591905593872
1776443412025831400,15.31083154296875,0.2210564762353897,0.050101250410079956,0.047799479216337204
1776443412050847000,15.335846923828125,0.329394668340683,-0.054962050169706345,-0.0645771250128746
1776443412075863000,15.360863037109375,0.4238157272338867,-0.10273410379886627,-0.11839428544044495
1776443412100879000,15.385879150390625,0.46282222867012024,-0.14302559196949005,-0.20368121564388275
1776443412125895200,15.410895263671875,0.3047761619091034,-0.13219106197357178,-0.17674867808818817
1776443412150911000,15.435910888671875,0.11107511818408966,-0.01786794699728489,-0.018383800983428955
1776443412175927000,15.460927001953126,0.05746196210384369,0.1863911747932434,0.08294574916362762
1776443412200943000,15.485943115234376,0.3954858183860779,0.13767051696777344,0.08921775966882706
1776443412225959200,15.510959228515626,0.749945342540741,0.17037199437618256,0.18984849750995636
1776443412250975200,15.535975341796876,1.0197856426239014,0.31400611996650696,0.2624973952770233
1776443412275990300,15.560990234375,1.2380577325820923,0.4668470621109009,0.18251122534275055
1776443412301006000,15.586006103515626,1.6424249410629272,0.5755810141563416,0.03142077475786209
1776443412326022100,15.611022216796876,1.7888386249542236,0.595413327217102,-0.06285087019205093
1776443412351038200,15.6360380859375,1.7659364938735962,0.6007081866264343,0.10693656653165817
1776443412376054000,15.661053955078126,1.8368847370147705,0.47371751070022583,0.2924550473690033
1776443412401070000,15.686070068359374,1.9929823875427246,0.4667626619338989,0.27530187368392944
1776443412426086100,15.711086181640624,1.820921778678894,0.5018354058265686,0.30151456594467163
1776443412451102200,15.736102294921874,1.7007514238357544,0.6496893167495728,0.26632383465766907
1776443412476118000,15.761117919921874,1.707345962524414,0.7492409348487854,0.10683297365903854
1776443412501134000,15.786134033203124,1.4845106601715088,0.7581343054771423,0.04430727660655975
1776443412526149000,15.811149169921874,1.1113851070404053,0.6307140588760376,0.1596623659133911
1776443412551165200,15.836165283203124,0.729679524898529,0.3732702434062958,0.21264435350894928
1776443412576181200,15.86118115234375,0.6259490847587585,-0.01900724694132805,0.1860143393278122
1776443412601197300,15.886197265625,0.6807891726493835,-0.15584392845630646,0.13063284754753113
1776443412626213000,15.911213134765624,0.9712406992912292,0.10712538659572601,0.10526330769062042
1776443412651229200,15.936229248046875,1.1381868124008179,0.23157170414924622,0.033014409244060516
1776443412676245200,15.961245361328125,0.8701325058937073,0.48821014165878296,0.10514479130506516
1776443412701261000,15.986260986328125,0.5698581337928772,0.49041950702667236,0.1308741271495819
1776443412726277000,16.011277099609377,0.7096765041351318,0.3690781593322754,0.1358608901500702
1776443412751292200,16.036292236328126,0.8985614776611328,-0.04085448756814003,-0.02401212602853775
1776443412776308000,16.061307861328125,0.872320830821991,-0.020257867872714996,0.003347060875967145
1776443412801324000,16.086323974609375,0.8460732102394104,-0.022756977006793022,-0.06504584848880768
1776443412826340000,16.111340087890625,0.6576833128929138,-0.05439320206642151,-0.2449468970298767
1776443412851356200,16.136356201171875,0.4736858010292053,-0.2717830538749695,-0.2305264174938202
1776443412876372200,16.161372314453125,0.44739747047424316,-0.5875993371009827,-0.18904875218868256
1776443412901388300,16.18638818359375,0.4974912703037262,-0.1892990916967392,-0.24557460844516754
1776443412926404400,16.211404296875,0.4960787296295166,-0.18913716077804565,-0.2206663340330124
1776443412951420200,16.236420166015623,0.5217910408973694,-0.16998371481895447,-0.19706059992313385
1776443412976436200,16.261436279296873,0.627172589302063,-0.15975238382816315,-0.3187910318374634
1776443413001451300,16.286451171875,0.6395378708839417,-0.23855026066303253,-0.42094749212265015
1776443413026467000,16.311467041015625,0.6410290002822876,-0.22127646207809448,-0.39038532972335815
1776443413051483600,16.336483642578123,0.6004053950309753,-0.12015117704868317,-0.3495422899723053
1776443413076499500,16.36149951171875,0.6391969919204712,-0.05933656170964241,-0.395370215177536
1776443413101515500,16.386515625,0.7120134234428406,-0.03212091699242592,-0.3455081284046173
1776443413126531600,16.411531494140625,0.8981281518936157,-0.061584800481796265,-0.26439064741134644
1776443413151547600,16.436547607421875,1.0545395612716675,0.053940195590257645,-0.07715257257223129
1776443413176563500,16.4615634765625,1.183732509613037,-0.0821172371506691,-0.09312301874160767
1776443413201579500,16.48657958984375,1.2745246887207031,-0.16640815138816833,0.07256714254617691
1776443413226595600,16.511595703125,1.3074842691421509,-0.16689231991767883,0.0930284783244133
1776443413251610600,16.536610595703124,1.2579121589660645,-0.22507332265377045,0.12336613982915878
1776443413276626700,16.561626708984374,1.1831929683685303,-0.1566133052110672,0.05570906773209572
1776443413301642800,16.586642822265624,1.23051917552948,-0.143963024020195,-0.06799023598432541
1776443413326658600,16.611658447265626,1.286854863166809,-0.11852025240659714,-0.10905271768569946
1776443413351674600,16.636674560546876,1.3622758388519287,-0.14187484979629517,-0.10867827385663986
1776443413376690700,16.661690673828126,1.30622136592865,-0.13719460368156433,-0.11551035195589066
1776443413401706500,16.68670654296875,1.3060603141784668,-0.012760535813868046,-0.030881749466061592
1776443413426722600,16.71172265625,1.3932342529296875,-0.03641686215996742,0.01531850267201662
1776443413451738600,16.736738525390624,1.4296895265579224,-0.16649018228054047,0.1185775101184845
1776443413476754700,16.761754638671874,1.336409330368042,-0.13384488224983215,0.16999170184135437
1776443413501770500,16.7867705078125,1.2611883878707886,-0.18482337892055511,0.1253206431865692
1776443413526785500,16.81178564453125,1.255763053894043,-0.09321090579032898,0.13131088018417358
1776443413551801600,16.836801513671876,1.254496455192566,-0.06160077825188637,0.11112093180418015
1776443413576817400,16.8618173828125,1.0335336923599243,-0.08003678172826767,0.025499233976006508
1776443413601833500,16.88683349609375,0.8706789612770081,0.01858540251851082,-0.10136763006448746
1776443413626849500,16.911849609375,0.8077300786972046,0.08416281640529633,-0.20219677686691284
1776443413651865600,16.936865478515625,0.6061921715736389,0.1329713612794876,-0.2148076444864273
1776443413676881700,16.961881591796875,0.28916656970977783,0.1910005807876587,-0.13465048372745514
1776443413701897700,16.986897705078125,0.4204345643520355,0.08969926089048386,-0.11336410790681839
1776443413726913500,17.01191357421875,0.6437270641326904,-0.19158753752708435,-0.05541079491376877
1776443413751929600,17.0369296875,0.7664348483085632,-0.3549532890319824,0.025966886430978775
1776443413776944600,17.061944580078126,0.7788954973220825,-0.25922757387161255,0.12798912823200226
1776443413801960400,17.08696044921875,1.0670005083084106,-0.6524515748023987,0.087643563747406
1776443413826976500,17.1119765625,1.413941502571106,-0.14012648165225983,0.38690057396888733
1776443413851992600,17.13699267578125,1.6949057579040527,-0.4254394471645355,0.3358837366104126
1776443413877008600,17.162008544921875,1.5750863552093506,-0.33104848861694336,0.4487210810184479
1776443413902024400,17.1870244140625,1.4401144981384277,-0.24923619627952576,0.44546934962272644
1776443413927040500,17.21204052734375,1.3538440465927124,-0.13417671620845795,0.5035060048103333
1776443413952056600,17.237056640625,1.1802847385406494,-0.31550654768943787,0.33252307772636414
1776443413977072400,17.262072265625,1.465785264968872,-0.5263977646827698,0.1950611025094986
1776443414002088400,17.28708837890625,1.6170886754989624,-0.35127708315849304,0.2835608720779419
1776443414027103700,17.312103759765623,1.812432050704956,-0.2680133283138275,0.33986756205558777
1776443414052122400,17.337122314453126,1.9076489210128784,-0.24439482390880585,0.449424684047699
1776443414077138400,17.362138427734376,2.1212728023529053,-0.241073340177536,0.4042643904685974
1776443414102154500,17.387154541015626,2.1300241947174072,-0.23510918021202087,0.33940255641937256
1776443414127170300,17.41217041015625,2.1931869983673096,-0.133632630109787,0.37293097376823425
1776443414152186400,17.437186279296874,2.050814390182495,-0.08476176112890244,0.43222516775131226
1776443414177202400,17.462202392578124,1.7273273468017578,0.21519966423511505,0.47908055782318115
1776443414202218200,17.48721826171875,1.4782687425613403,0.32019877433776855,0.33355027437210083
1776443414227234300,17.512234375,1.260189414024353,0.436686247587204,0.14011076092720032
1776443414252250400,17.53725048828125,1.0465596914291382,0.6544617414474487,0.0816277489066124
1776443414277266400,17.562266357421876,1.250842809677124,0.7004126906394958,0.13339480757713318
1776443414302281500,17.587281494140626,1.3377954959869385,0.5887585878372192,0.19983747601509094
1776443414327297500,17.612297607421876,1.1895387172698975,0.583620011806488,0.2460409253835678
1776443414352313600,17.637313720703126,1.1591171026229858,0.7605231404304504,0.28296351432800293
1776443414377329400,17.662329345703125,1.05748450756073,0.8164881467819214,0.323153018951416
1776443414402345500,17.687345458984375,1.052159309387207,0.4683392345905304,0.43835923075675964
1776443414427361500,17.712361572265625,0.8534624576568604,0.6438205242156982,0.5013443231582642
1776443414452377300,17.73737744140625,0.7600083947181702,0.47972744703292847,0.5534834265708923
1776443414477393400,17.762393310546877,0.7929969429969788,-0.057247310876846313,0.2888256907463074
1776443414502409500,17.787409423828127,0.7612720727920532,0.14497369527816772,0.4777812063694
1776443414527425300,17.81242529296875,0.8046541213989258,-0.5752017498016357,0.1320381909608841
1776443414552440300,17.8374404296875,0.7341623902320862,-0.19421927630901337,0.13071513175964355
1776443414577456400,17.862456298828125,0.7503527998924255,-0.39540591835975647,0.07079694420099258
1776443414602472200,17.88747216796875,0.7735417485237122,-0.6803918480873108,-0.08280380070209503
1776443414627488300,17.91248828125,0.5546890497207642,-0.196823850274086,-0.048956356942653656
1776443414652504300,17.93750439453125,0.4518313705921173,-0.04758322983980179,-0.007405185606330633
1776443414677520600,17.962520751953125,0.5355803370475769,-0.051960669457912445,0.02737276814877987
1776443414702536400,17.987536376953123,0.7053360939025879,0.044613540172576904,0.15527348220348358
1776443414727552500,18.012552490234373,1.0055198669433594,-0.13881593942642212,0.2484699934720993
1776443414752568600,18.037568603515624,0.8864232897758484,-0.24738183617591858,0.12519361078739166
1776443414777584400,18.06258447265625,0.4151814877986908,-0.03945393115282059,0.12086756527423859
1776443414802600400,18.087600341796875,0.07368087768554688,-0.20378269255161285,-0.003858387703076005
1776443414827615500,18.112615478515625,0.002124669961631298,-0.43477141857147217,-0.08482594043016434
1776443414852631300,18.13763134765625,0.14466823637485504,-0.47861239314079285,-0.1480262130498886
1776443414877647400,18.1626474609375,0.2849918007850647,-0.5706091523170471,-0.1055072546005249
1776443414902663400,18.187663330078124,0.35514184832572937,-0.7142651081085205,0.05246134474873543
1776443414927679200,18.21267919921875,0.4300389885902405,-0.8502461314201355,0.16279610991477966
1776443414952695300,18.2376953125,0.542220950126648,-1.0346159934997559,0.10710940510034561
1776443414977711400,18.26271142578125,0.7854442596435547,-1.061591625213623,-0.019339343532919884
1776443415002727400,18.2877275390625,1.0957509279251099,-0.7834511399269104,-0.22351378202438354
1776443415027743200,18.3127431640625,1.1216470003128052,-0.6390835642814636,-0.23477895557880402
1776443415052755700,18.337755615234375,0.9011353850364685,-0.5289679765701294,-0.15510223805904388
1776443415077771800,18.362771728515625,0.6760538220405579,-0.21881410479545593,-0.31535688042640686
1776443415102786600,18.38778662109375,0.5094070434570312,-0.23592570424079895,-0.4278581440448761
1776443415127802600,18.412802734375,0.5055960416793823,-0.21641193330287933,-0.4066676199436188
1776443415152818700,18.437818603515623,0.43499886989593506,-0.2256014347076416,-0.4596908986568451
1776443415177834800,18.462834716796873,0.5347723364830017,0.2329387068748474,-0.30311593413352966
1776443415202850600,18.4878505859375,0.7447817325592041,0.4741675853729248,-0.2716541588306427
1776443415227866600,18.51286669921875,0.7752206325531006,0.6712177991867065,-0.22737589478492737
1776443415252882700,18.537882568359375,0.4319878816604614,0.7299066781997681,-0.12217384576797485
1776443415277898500,18.5628984375,0.22038403153419495,0.6223426461219788,-0.15156662464141846
1776443415302914600,18.58791455078125,0.6737824082374573,0.6080103516578674,0.041489653289318085
1776443415327930600,18.6129306640625,1.0587884187698364,0.6643984913825989,0.39156270027160645
1776443415352946700,18.63794677734375,1.0393630266189575,0.6988454461097717,0.3341657221317291
1776443415377961700,18.662961669921874,1.2117202281951904,0.3395330607891083,0.2234959453344345
1776443415402977800,18.687977783203124,1.2796188592910767,0.45330968499183655,0.2077135145664215
1776443415427993600,18.71299365234375,1.2733769416809082,0.3373205065727234,0.4061565697193146
1776443415453009700,18.738009765625,1.4986251592636108,0.000886566296685487,0.5749788880348206
1776443415478025700,18.763025634765626,1.8896739482879639,-0.32547158002853394,0.6130327582359314
1776443415503041800,18.788041748046876,2.381073474884033,-0.3090648949146271,0.7993770837783813
1776443415528057600,18.8130576171875,2.254987955093384,-0.4249579608440399,0.7734112739562988
1776443415553073700,18.83807373046875,1.9231804609298706,-0.6884703040122986,0.839068591594696
1776443415578089700,18.86308984375,1.6132543087005615,-0.6355831027030945,0.7849949598312378
1776443415603105500,18.88810546875,0.9198707342147827,-0.03824964910745621,0.6572098135948181
1776443415628121600,18.91312158203125,0.6849474310874939,0.4249859154224396,0.3898811936378479
1776443415653136600,18.93813671875,0.5950031876564026,0.5810500979423523,0.12513580918312073
1776443415678152400,18.96315234375,0.6745922565460205,0.39453452825546265,0.2415471076965332
1776443415703168500,18.98816845703125,0.5678637027740479,0.178181454539299,0.36379072070121765
1776443415728184600,19.0131845703125,0.6313294768333435,0.3794708847999573,0.435261994600296
1776443415753200600,19.03820068359375,0.6108077168464661,0.4454706907272339,0.1798887997865677
1776443415778216700,19.063216796875,0.5945496559143066,0.4538961350917816,-0.17311106622219086
1776443415803232800,19.088232666015625,0.5921730399131775,0.2683156132698059,-0.1795005202293396
1776443415828248800,19.113248779296875,0.6013750433921814,0.1174270287156105,-0.26380473375320435
1776443415853264600,19.1382646484375,0.6866620182991028,-0.21348698437213898,-0.5345054864883423
1776443415878280700,19.16328076171875,0.8309674859046936,-0.45983338356018066,-0.5935354828834534
1776443415903296800,19.188296875,1.0262755155563354,-0.33041998744010925,-0.456448495388031
1776443415928312600,19.2133125,1.3250576257705688,-0.17025801539421082,-0.14882010221481323
1776443415953327600,19.23832763671875,1.606968641281128,0.2796572148799896,0.25676921010017395
1776443415978343700,19.26334375,1.732998251914978,0.5443338751792908,0.5580810904502869
1776443416003359500,19.288359375,1.7864362001419067,0.7634491920471191,0.6653508543968201
1776443416028375600,19.31337548828125,1.8260629177093506,0.451812207698822,0.5743753910064697
1776443416053392400,19.338392333984373,1.8467040061950684,0.1305263191461563,0.5336681604385376
1776443416078408400,19.363408447265623,1.8561806678771973,-0.19861988723278046,0.4227374196052551
1776443416103424500,19.388424560546873,1.6289019584655762,-0.4400996267795563,0.3049947917461395
1776443416128440600,19.413440673828124,1.6717621088027954,-0.4853712320327759,0.3383854925632477
1776443416153456400,19.438456298828125,1.5928760766983032,-0.32204434275627136,0.3816309869289398
1776443416178472400,19.463472412109375,1.6283831596374512,-0.1994079202413559,0.4205903708934784
1776443416203488500,19.488488525390625,1.7316067218780518,0.02321983501315117,0.588541567325592
1776443416228504300,19.51350439453125,1.8466705083847046,0.12971378862857819,0.691953182220459
1776443416253519600,19.53851953125,1.7018160820007324,0.30092042684555054,0.6440977454185486
1776443416278535700,19.56353564453125,1.4419916868209839,0.11634764820337296,0.36512577533721924
1776443416303551500,19.588551513671874,1.2269071340560913,-0.07445771992206573,0.24204911291599274
1776443416328567600,19.613567626953124,0.9981389045715332,-0.08260619640350342,0.14487303793430328
1776443416353583600,19.63858349609375,0.8146282434463501,0.06742963939905167,0.004506867378950119
1776443416378599700,19.663599609375,0.8141781687736511,0.027392208576202393,-0.17364902794361115
1776443416403615500,19.688615478515626,0.86799556016922,-0.011679825372993946,-0.27644065022468567
1776443416428631600,19.713631591796876,0.7394602298736572,0.10905484855175018,-0.3445616364479065
1776443416453647600,19.738647705078126,0.9285966157913208,0.1611875593662262,-0.4352111220359802
1776443416478663400,19.763663330078124,0.9847378730773926,0.32745030522346497,-0.35774216055870056
1776443416503679500,19.788679443359374,1.0926361083984375,0.4436086118221283,-0.2733364701271057
1776443416528695600,19.813695556640624,1.037962555885315,0.3825497627258301,-0.21810276806354523
1776443416553711400,19.83871142578125,0.76712566614151,0.4221949279308319,-0.24298414587974548
1776443416578726700,19.8637265625,0.5114549994468689,0.3975774645805359,-0.26508039236068726
1776443416603742700,19.88874267578125,0.39989814162254333,0.0029414615128189325,-0.3556917905807495
1776443416628758500,19.913758544921876,0.27133217453956604,-0.004746552091091871,-0.16535726189613342
1776443416653774600,19.938774658203126,0.3967294991016388,-0.0257455762475729,-0.07344359159469604
1776443416678790700,19.963790771484376,0.5115053653717041,-0.27252528071403503,0.017884191125631332
1776443416703806700,19.988806640625,0.693302571773529,-0.1029902994632721,0.32336899638175964
1776443416728822500,20.013822509765625,1.068980097770691,-0.07509022206068039,0.5238275527954102
1776443416753838600,20.038838623046875,1.363961100578308,-0.14772793650627136,0.5643744468688965
1776443416778854700,20.063854736328125,1.5852810144424438,-0.1358792781829834,0.6416303515434265
1776443416803870500,20.088870361328127,1.744634985923767,-0.3167870044708252,0.5930238962173462
1776443416828886500,20.113886474609377,1.723271131515503,-0.35341373085975647,0.5229335427284241
1776443416853902600,20.138902587890627,1.6992642879486084,-0.30171671509742737,0.43269097805023193
1776443416878918400,20.16391845703125,1.7331194877624512,-0.25370949506759644,0.35300174355506897
1776443416903933400,20.188933349609375,1.8940916061401367,-0.15147261321544647,0.33964651823043823
1776443416928949500,20.213949462890625,2.0268423557281494,0.006923952605575323,0.4543778896331787
1776443416953965300,20.23896533203125,2.049710273742676,-0.10179586708545685,0.3723005950450897
1776443416978981400,20.2639814453125,1.974610686302185,-0.16529175639152527,0.3134221136569977
1776443417003997400,20.28899755859375,2.0295588970184326,0.003421629313379526,0.35474422574043274
1776443417029013800,20.314013671875,1.9130090475082397,-0.07071997225284576,0.31963497400283813
1776443417054029800,20.33902978515625,1.8761749267578125,-0.19546963274478912,0.211410254240036
1776443417079045600,20.364045654296874,1.4831181764602661,-0.20049794018268585,0.07305104285478592
1776443417104061700,20.389061767578124,1.1646780967712402,-0.10126963257789612,-0.0022442457266151905
1776443417129077800,20.414077880859374,1.176358938217163,0.057563960552215576,-0.1283680945634842
1776443417154093800,20.43909375,1.4879528284072876,0.2388613075017929,-0.10820982605218887
1776443417179109600,20.464109619140626,1.6792950630187988,0.19946543872356415,-0.2398456186056137
1776443417204125700,20.489125732421876,1.6278233528137207,0.29844075441360474,-0.3094113767147064
1776443417229141800,20.514141845703126,1.4783720970153809,0.3207356631755829,-0.27461105585098267
1776443417254156500,20.539156494140624,1.5156846046447754,0.43948522210121155,-0.1584993600845337
1776443417279172600,20.564172607421874,1.437126874923706,0.6036840081214905,-0.17205671966075897
1776443417304188700,20.589188720703124,1.5032979249954224,0.647275447845459,0.014298245310783386
1776443417329204500,20.61420458984375,1.5737308263778687,0.8919227123260498,0.3655758500099182
1776443417354220500,20.639220458984376,1.3464499711990356,0.4630137085914612,0.47996261715888977
1776443417379236600,20.664236572265626,1.0498127937316895,0.2662484645843506,0.6714391112327576
1776443417404252700,20.689252685546876,1.0215214490890503,0.14952903985977173,0.6967902779579163
1776443417429268500,20.7142685546875,0.8574299812316895,-0.07226647436618805,0.7097406983375549
1776443417454284500,20.739284423828124,0.6107760071754456,-0.14330735802650452,0.6864481568336487
1776443417479300900,20.76430078125,0.4332379698753357,-0.16987958550453186,0.6201804280281067
1776443417504316700,20.789316650390624,0.38968729972839355,-0.053643520921468735,0.6495596170425415
1776443417529332700,20.814332763671874,0.550740659236908,0.05751602351665497,0.6290242671966553
1776443417554348800,20.839348876953125,0.7272427082061768,0.33845049142837524,0.6275472640991211
1776443417579363600,20.864363525390626,0.483797550201416,0.3224124014377594,0.49170607328414917
1776443417604379600,20.889379638671876,0.2690804600715637,0.20130620896816254,0.3374065160751343
1776443417629395700,20.914395751953126,0.2847694158554077,0.07551579922437668,0.2980812191963196
1776443417654411500,20.93941162109375,0.5647752285003662,0.17728076875209808,0.20242686569690704
1776443417679427600,20.964427490234375,0.40167632699012756,0.08782918751239777,0.07084967195987701
1776443417704443600,20.989443603515625,0.21784044802188873,-0.207042396068573,0.03020450845360756
1776443417729459700,21.014459716796875,0.3122628331184387,-0.26802557706832886,0.051479436457157135
1776443417754475500,21.0394755859375,0.45904266834259033,-0.3881690502166748,0.004997421521693468
1776443417779491600,21.06449169921875,0.4348446726799011,-0.12811881303787231,-0.13701671361923218
1776443417804507600,21.089507568359377,0.7745258212089539,0.17572681605815887,-0.16463741660118103
1776443417829523500,21.1145234375,1.0125926733016968,0.7368441820144653,-0.0234035924077034
1776443417854539500,21.13953955078125,1.2662771940231323,1.1225407123565674,0.19768723845481873
1776443417879555600,21.1645556640625,1.677994966506958,1.1754162311553955,0.3255525231361389
1776443417904571600,21.189571533203125,2.1238627433776855,1.0984923839569092,0.3126218318939209
1776443417929586700,21.214586669921875,2.250950574874878,0.9788815975189209,0.18664178252220154
1776443417954602800,21.239602783203125,2.2623283863067627,0.6981260776519775,0.04504896700382233
1776443417979618600,21.26461865234375,2.378035545349121,0.7919713854789734,-0.0976453348994255
1776443418004634600,21.289634521484373,2.3309483528137207,0.25649410486221313,-0.4814411997795105
1776443418029650700,21.314650634765623,2.045090436935425,-0.15341591835021973,-0.42076852917671204
1776443418054670300,21.33967041015625,1.8981603384017944,-0.3169555962085724,-0.42137306928634644
1776443418079686100,21.36468603515625,1.692724585533142,-0.3941774070262909,-0.5863838791847229
1776443418104702200,21.3897021484375,1.358596920967102,-0.464928537607193,-0.6114428639411926
1776443418129718300,21.41471826171875,1.1210241317749023,-0.6150162816047668,-0.5656681656837463
1776443418154734300,21.439734375,1.027903437614441,-0.5337004065513611,-0.4967282712459564
1776443418179750100,21.464750244140625,1.0029805898666382,-0.4218375086784363,-0.46734562516212463
1776443418204766200,21.48976611328125,1.0152899026870728,-0.35726624727249146,-0.32792115211486816
1776443418229782300,21.5147822265625,1.1531652212142944,-0.16800817847251892,-0.19488613307476044
1776443418254798000,21.539798095703127,1.4523650407791138,0.07035192847251892,-0.16070498526096344
1776443418279813400,21.5648134765625,1.5646507740020752,0.16666381061077118,-0.14126844704151154
1776443418304829400,21.589829345703127,1.4220361709594727,0.2003948837518692,-0.02749207802116871
1776443418329845200,21.61484521484375,1.3631036281585693,0.24750034511089325,0.0030945930629968643
1776443418354861300,21.639861328125,1.3009488582611084,0.27801111340522766,-0.0889626294374466
1776443418379877400,21.66487744140625,0.7691661715507507,0.06314248591661453,-0.1823256015777588
1776443418404893200,21.68989306640625,0.5405404567718506,0.005346295889467001,-0.02695571817457676
1776443418429909200,21.7149091796875,0.5372613072395325,-0.13708356022834778,-0.07231707125902176
1776443418454925300,21.73992529296875,0.48897260427474976,-0.009112006053328514,-0.0210695993155241
1776443418479941400,21.76494140625,0.6116135716438293,0.01619121991097927,-0.19081921875476837
1776443418504957200,21.789957275390623,0.48072800040245056,0.2302776724100113,-0.19744382798671722
1776443418529973200,21.81497314453125,0.5637725591659546,0.23776382207870483,-0.013736318796873093
1776443418554989300,21.8399892578125,0.8389878869056702,0.14092755317687988,0.11126261204481125
1776443418580005000,21.865005126953125,0.8877053260803223,0.363759309053421,0.06525250524282455
1776443418605021200,21.890021240234375,0.949276328086853,-0.12714090943336487,-0.009416937828063965
1776443418630036500,21.915036376953125,0.983806848526001,-0.09882484376430511,0.014348579570651054
1776443418655052300,21.94005224609375,1.1070486307144165,-0.2203962802886963,0.1299702525138855
1776443418680068400,21.965068359375,1.1937552690505981,-0.21081262826919556,0.18222439289093018
1776443418705084400,21.99008447265625,1.4003318548202515,-0.1269366443157196,0.06148253381252289
1776443418730100500,22.0151005859375,1.673209547996521,-0.2186918556690216,-0.19349808990955353
1776443418755116300,22.0401162109375,1.8231699466705322,-0.17231984436511993,-0.3704153299331665
1776443418780132400,22.06513232421875,1.925926923751831,0.049484461545944214,-0.2868964970111847
1776443418805148400,22.0901484375,1.9561342000961304,0.2619386613368988,-0.18429261445999146
1776443418830164200,22.115164306640626,2.0407135486602783,0.26354721188545227,-0.15970072150230408
1776443418855180300,22.14018017578125,2.232361316680908,0.1800435334444046,-0.15485934913158417
1776443418880196400,22.1651962890625,2.1708874702453613,0.033965956419706345,0.004890096373856068
1776443418905212200,22.190212158203124,2.0355873107910156,-0.004010720644146204,0.20039168000221252
1776443418930228200,22.215228271484374,1.8831368684768677,-0.06938866525888443,0.3233484923839569
1776443418955244300,22.240244384765624,1.8460135459899902,-0.1887350231409073,0.41089698672294617
1776443418980260400,22.26526025390625,1.6326037645339966,-0.21662472188472748,0.4437481462955475
1776443419005275100,22.290275146484376,1.264967679977417,-0.33491167426109314,0.36981746554374695
1776443419030291200,22.315291259765626,1.0944396257400513,-0.34434032440185547,0.3225005567073822
1776443419055303000,22.340302978515624,1.0948172807693481,-0.2852424085140228,0.35016945004463196
1776443419080318700,22.365318603515625,1.037169098854065,-0.33078110218048096,0.3179428279399872
1776443419105334800,22.390334716796875,0.8463621735572815,-0.3824285864830017,0.27964335680007935
1776443419130350800,22.415350830078125,0.6871005892753601,-0.3647095263004303,0.32407182455062866
1776443419155366700,22.44036669921875,0.6216526627540588,-0.3920695185661316,0.31389695405960083
1776443419180382700,22.4653828125,0.431491494178772,-0.40632620453834534,0.2952665388584137
1776443419205398800,22.490398681640624,0.4702814817428589,-0.5186399817466736,0.31950557231903076
1776443419230414800,22.515414794921874,0.6519098877906799,-0.4392588436603546,0.26073652505874634
1776443419255430700,22.5404306640625,0.7630353569984436,-0.3830645680427551,0.20393875241279602
1776443419280446700,22.56544677734375,0.7853550314903259,-0.34748604893684387,0.212683767080307
1776443419305462800,22.590462890625,0.7134619355201721,-0.2881263196468353,0.1482728272676468
1776443419330478600,22.615478515625,0.7610275745391846,-0.17162874341011047,0.1104266420006752
1776443419355494700,22.64049462890625,0.8625581860542297,-0.12091390043497086,0.0604524239897728
1776443419380510700,22.6655107421875,0.8310157060623169,-0.19313697516918182,-0.08536629378795624
1776443419405525800,22.69052587890625,0.7850929498672485,-0.10880584269762039,-0.18394240736961365
1776443419430541800,22.715541748046874,0.7957091331481934,0.030230073258280754,-0.14178243279457092
1776443419455558000,22.740557861328124,1.0059324502944946,0.08155584335327148,-0.10760609060525894
1776443419480574000,22.765573974609374,1.2113276720046997,0.2852999269962311,-0.05041816458106041
1776443419505589800,22.79058984375,1.5406839847564697,0.23122869431972504,0.04309500753879547
1776443419530605800,22.815605712890626,1.904780626296997,0.11181388050317764,0.09400825202465057
1776443419555622000,22.840621826171876,2.175010919570923,0.11429408192634583,0.1839061826467514
1776443419580637700,22.8656376953125,2.345240354537964,-0.04753316566348076,0.35778290033340454
1776443419605653800,22.89065380859375,2.417656660079956,-0.1955260932445526,0.49372369050979614
1776443419630669800,22.915669921875,2.530468702316284,-0.39553773403167725,0.5013371706008911
1776443419655685600,22.940685546875,2.5607054233551025,-0.4108671545982361,0.5920057892799377
1776443419680701700,22.96570166015625,2.4538486003875732,-0.4145908057689667,0.6424572467803955
1776443419705717800,22.9907177734375,2.2791717052459717,-0.3733016848564148,0.5674359798431396
1776443419730733800,23.01573388671875,2.2851991653442383,-0.2216181457042694,0.4605060815811157
1776443419755749600,23.04074951171875,2.485356092453003,-0.1588626205921173,0.4170214533805847
1776443419780765700,23.065765625,2.4739091396331787,-0.157466322183609,0.3482501208782196
1776443419805781800,23.09078173828125,2.596090078353882,0.2183118313550949,0.27448853850364685
1776443419830797600,23.115797607421875,2.711005449295044,0.31641441583633423,0.3788655400276184
1776443419855812900,23.140812744140625,2.6445155143737793,0.5617333650588989,0.35777997970581055
1776443419880829000,23.165828857421875,2.7808735370635986,0.60789555311203,0.5707292556762695
1776443419905844700,23.1908447265625,2.7984399795532227,0.38343313336372375,0.6151190996170044
1776443419930860800,23.21586083984375,2.7246882915496826,0.5422419905662537,0.7448965311050415
1776443419955876900,23.240876953125,2.8360965251922607,0.37874865531921387,0.7726346850395203
1776443419980892700,23.265892578125,2.820497751235962,0.18593178689479828,0.8791659474372864
1776443420005908700,23.29090869140625,2.562445878982544,0.05603983253240585,0.9414697885513306
1776443420030924800,23.3159248046875,2.2606308460235596,-0.14379125833511353,0.7201278209686279
1776443420055942000,23.34094189453125,2.030653238296509,-0.04779255762696266,0.741126537322998
1776443420080958000,23.3659580078125,1.8451770544052124,0.16286401450634003,0.6233261823654175
1776443420105974000,23.39097412109375,1.5093563795089722,0.1268138736486435,0.4489777982234955
1776443420130989800,23.41598974609375,1.5572818517684937,0.3261061906814575,0.5630401968955994
1776443420156006000,23.441005859375,1.569610357284546,0.01441329438239336,0.6380630135536194
1776443420181022000,23.46602197265625,1.3013248443603516,-0.6734181046485901,0.9058300256729126
1776443420206038000,23.4910380859375,1.2510108947753906,-0.6299217343330383,0.9528020620346069
1776443420231053800,23.5160537109375,1.2623060941696167,-0.9735240936279297,1.087157964706421
1776443420256070000,23.54106982421875,1.3303227424621582,-0.5925655961036682,1.3044514656066895
1776443420281086000,23.5660859375,1.5109518766403198,-0.2532362639904022,1.3334505558013916
1776443420306100700,23.591100830078126,1.4793190956115723,-0.035280492156744,1.5298792123794556
1776443420331116800,23.61611669921875,1.3605788946151733,0.08350767940282822,1.463041067123413
1776443420356132900,23.6411328125,1.3681843280792236,0.2151392102241516,1.473050832748413
1776443420381149000,23.66614892578125,1.2581976652145386,0.14880838990211487,1.5179778337478638
1776443420406165000,23.6911650390625,1.2508598566055298,0.11936554312705994,1.435626745223999
1776443420431181000,23.71618115234375,1.351859211921692,0.04404735192656517,1.268040418624878
1776443420456196900,23.74119677734375,1.4842180013656616,-0.0689401850104332,1.1601935625076294
1776443420481213000,23.766212890625,1.3654381036758423,-0.2674327790737152,1.050740122795105
1776443420506229000,23.79122900390625,1.3876898288726807,-0.27959302067756653,0.8537923693656921
1776443420531245000,23.8162451171875,1.4243197441101074,0.14130599796772003,0.6911640763282776
1776443420556260900,23.8412607421875,1.1910839080810547,-0.08424323797225952,0.5321400761604309
1776443420581277000,23.86627685546875,1.0506399869918823,-0.2613128125667572,0.4625849425792694
1776443420606293000,23.89129296875,1.0697835683822632,-0.4985291063785553,0.33967792987823486
1776443420631308800,23.916308837890625,1.0818910598754883,-0.4058077037334442,0.23556512594223022
1776443420656324900,23.941324951171875,1.0561041831970215,-0.43011462688446045,0.10379350930452347
1776443420681341000,23.9663408203125,1.1356935501098633,-0.5843084454536438,0.02593519352376461
1776443420706357000,23.99135693359375,1.2377874851226807,-0.7418014407157898,0.1376526653766632
1776443420731372800,24.016372802734374,1.1757738590240479,-0.8103628754615784,0.4168909788131714
1776443420756388900,24.041388916015624,1.1248772144317627,-0.847365140914917,0.484206885099411
1776443420781405000,24.066405029296874,1.1147632598876953,-0.9876135587692261,0.5630694627761841
1776443420806420700,24.091420654296876,0.9837184548377991,-1.0675305128097534,0.7692111730575562
1776443420831436800,24.116436767578126,0.8649635314941406,-0.9885038733482361,0.8832117915153503
1776443420856452900,24.141452880859376,0.7565779685974121,-1.013753890991211,0.7058489918708801
1776443420881469000,24.166468994140626,0.8374842405319214,-0.9491982460021973,0.7331381440162659
1776443420906484700,24.191484619140624,0.9379634857177734,-1.1449956893920898,0.8178908824920654
1776443420931500800,24.216500732421874,1.0224418640136719,-1.0317752361297607,1.2151950597763062
1776443420956516900,24.241516845703124,1.0401660203933716,-0.9225682616233826,1.424111008644104
1776443420981533000,24.266532958984374,0.7590863704681396,-1.2203232049942017,1.2256383895874023
1776443421006549000,24.291549072265624,0.7315996289253235,-1.262115478515625,1.0996612310409546
1776443421031564000,24.31656396484375,0.8549447655677795,-1.4722633361816406,1.025810718536377
1776443421056578600,24.34157861328125,0.7108714580535889,-1.7785556316375732,0.9946547150611877
1776443421081594400,24.366594482421874,0.5612324476242065,-1.7341364622116089,0.9228633642196655
1776443421106610400,24.3916103515625,0.45216721296310425,-1.880488634109497,0.9597345590591431
1776443421131626500,24.41662646484375,0.6343463063240051,-1.8553577661514282,1.0350847244262695
1776443421156642600,24.441642578125,0.8216192722320557,-1.6284838914871216,1.1270135641098022
1776443421181658600,24.46665869140625,0.7635061740875244,-1.5226689577102661,1.1655316352844238
1776443421206674700,24.4916748046875,0.745236337184906,-1.3843947649002075,1.1947859525680542
1776443421231690800,24.516690673828126,0.7432171702384949,-1.1023221015930176,1.1842470169067383
1776443421256706600,24.54170654296875,0.7255212664604187,-0.9203519821166992,1.0907652378082275
1776443421281722600,24.56672265625,0.6864582896232605,-0.49903562664985657,1.0994958877563477
1776443421306738700,24.59173876953125,0.524513304233551,0.11694765836000443,1.1103293895721436
1776443421331754800,24.616754638671875,0.32149067521095276,0.6678406596183777,0.9815934896469116
1776443421356770600,24.6417705078125,0.3743424415588379,0.9168765544891357,0.8606271147727966
1776443421381786600,24.66678662109375,0.47977620363235474,0.9490858912467957,0.6644810438156128
1776443421406802700,24.691802734375,0.515700101852417,0.8777206540107727,0.45747408270835876
1776443421431818500,24.716818603515627,0.5636711120605469,0.728040874004364,0.41318729519844055
1776443421456834600,24.74183447265625,0.5484772324562073,0.496165007352829,0.3931747078895569
1776443421481849600,24.766849609375,0.40124115347862244,0.2332548201084137,0.2998194694519043
1776443421506865400,24.791865478515625,0.2757626175880432,0.03185140714049339,0.16031430661678314
1776443421531881500,24.816881591796875,0.21401774883270264,-0.13025547564029694,0.1184997484087944
1776443421556897500,24.8418974609375,0.274283230304718,-0.3173303008079529,0.2168625444173813
1776443421581913300,24.866913330078123,0.30792614817619324,-0.45559921860694885,0.32684603333473206
1776443421606929700,24.8919296875,0.2703039348125458,-0.6078593134880066,0.41564515233039856
1776443421631945700,24.91694580078125,0.24158652126789093,-0.738063395023346,0.4873720705509186
1776443421656961800,24.9419619140625,0.21212983131408691,-0.7524966597557068,0.5088134407997131
1776443421681977600,24.9669775390625,0.21338337659835815,-0.6773592829704285,0.6247552037239075
1776443421706993700,24.99199365234375,0.23343752324581146,-0.5575844645500183,0.7376726865768433
1776443421732009700,25.017009765625,0.2153266966342926,-0.42261409759521484,0.779008150100708
1776443421757025500,25.042025634765626,0.1591009646654129,-0.150557279586792,0.7994399666786194
1776443421782041600,25.06704150390625,0.037275999784469604,-0.036614201962947845,0.8136425614356995
1776443421807057700,25.0920576171875,-0.04661703482270241,0.1378854364156723,0.8723769783973694
1776443421832073500,25.117073486328124,-0.22945688664913177,0.14481763541698456,0.897648274898529
1776443421857089500,25.142089599609374,-0.4219887852668762,0.017248494550585747,0.807845950126648
1776443421882105600,25.167105712890624,-0.45353952050209045,-0.03160719573497772,0.6667112112045288
1776443421907121700,25.19212158203125,-0.3836773633956909,-0.21311014890670776,0.5499568581581116
1776443421932137500,25.217137451171876,-0.1668774038553238,-0.32050636410713196,0.3688723146915436
1776443421957153500,25.242153564453126,-0.05589735507965088,-0.3507747948169708,0.12093094736337662
1776443421982168600,25.26716845703125,-0.1674499809741974,-0.16517937183380127,0.1223730519413948
1776443422007184400,25.292184326171874,-0.20472145080566406,0.19378331303596497,0.4621865451335907
1776443422032200400,25.317200439453124,-0.14947576820850372,0.2556530833244324,0.6436170339584351
1776443422057217500,25.342217529296875,0.002700977958738804,0.31297653913497925,0.7507176995277405
1776443422082233600,25.367233642578125,0.18304944038391113,0.1456296294927597,0.5404376983642578
1776443422107249400,25.39224951171875,0.14388872683048248,-0.13777942955493927,0.5264659523963928
1776443422132265500,25.417265380859376,-0.09790472686290741,-0.30014172196388245,0.5345499515533447
1776443422157281500,25.442281494140627,-0.2533704936504364,-0.17866376042366028,0.5742997527122498
1776443422182297300,25.46729736328125,-0.19017979502677917,0.17938654124736786,0.7458502054214478
1776443422207313700,25.492313720703127,-0.010748251341283321,0.3192371129989624,0.7589183449745178
1776443422232329700,25.517329833984373,0.23877130448818207,0.41712772846221924,0.9196465015411377
1776443422257345800,25.542345703125,0.3514765501022339,0.4491319954395294,0.9398173093795776
1776443422282361600,25.567361572265625,0.3095208406448364,0.5061177611351013,0.9122551679611206
1776443422307377700,25.592377685546875,0.0775909349322319,0.444532185792923,0.7420789003372192
1776443422332393700,25.617393798828125,0.08283282816410065,0.18058602511882782,0.5098502039909363
1776443422357409500,25.642409423828123,-0.11854422092437744,0.0628410130739212,0.37513527274131775
1776443422382425600,25.667425537109374,-0.052377186715602875,0.16588856279850006,0.4694223403930664
1776443422407441700,25.692441650390624,0.1672379970550537,0.3094633221626282,0.680084764957428
1776443422432457500,25.71745751953125,0.2448001652956009,0.34476804733276367,0.9038989543914795
1776443422457472500,25.742472412109375,0.18266728520393372,0.40094953775405884,1.1593503952026367
1776443422482488600,25.767488525390625,0.3089847266674042,0.47630608081817627,1.6234089136123657
1776443422507504400,25.79250439453125,0.18176554143428802,0.40574485063552856,1.7484203577041626
1776443422532520400,25.8175205078125,-0.15729162096977234,0.36444002389907837,1.7818042039871216
1776443422557536500,25.84253662109375,0.023366309702396393,0.2840876579284668,1.9480583667755127
1776443422582552600,25.867552490234374,0.18065287172794342,0.05101018771529198,1.9127658605575562
1776443422607568400,25.892568359375,0.15512193739414215,-0.09943444281816483,1.853515386581421
1776443422632584400,25.91758447265625,0.16558364033699036,-0.18058894574642181,2.049588918685913
1776443422657600800,25.942600830078124,0.08148926496505737,-0.29822662472724915,2.0719125270843506
1776443422682616600,25.967616455078126,0.14011849462985992,-0.3220912218093872,2.083538293838501
1776443422707632600,25.992632568359376,0.3023928701877594,-0.2354564666748047,2.205357789993286
1776443422732648700,26.017648681640626,0.3234427869319916,-0.17962008714675903,2.3122165203094482
1776443422757664800,26.042664794921876,0.32322999835014343,-0.155152827501297,2.3296592235565186
1776443422782680600,26.0676806640625,0.33907845616340637,-0.09249132126569748,2.342224597930908
1776443422807696600,26.092696533203124,0.38193005323410034,-0.09834228456020355,2.424556255340576
1776443422832712700,26.117712646484375,0.28946617245674133,-0.13245391845703125,2.3179757595062256
1776443422857728500,26.142728515625,0.2583402097225189,0.02924337238073349,2.1837522983551025
1776443422882744600,26.16774462890625,0.3417014181613922,0.1310296505689621,2.089264392852783
1776443422907760600,26.1927607421875,0.26451313495635986,0.1691485494375229,1.9539141654968262
1776443422932776400,26.2177763671875,0.37928128242492676,0.3430604338645935,1.8851944208145142
1776443422957791500,26.24279150390625,0.5008841156959534,0.38463714718818665,1.896040439605713
1776443422982807600,26.2678076171875,0.3370043933391571,0.3006453216075897,1.7006142139434814
1776443423007823400,26.2928232421875,0.18632939457893372,0.39496517181396484,1.564369797706604
1776443423032839400,26.31783935546875,0.29289180040359497,0.5185683369636536,1.5171922445297241
1776443423057855500,26.34285546875,0.24686944484710693,0.4083765745162964,1.35163414478302
1776443423082871300,26.367871337890627,0.20717236399650574,0.37104812264442444,1.16798996925354
1776443423107887400,26.392887451171877,0.3250451982021332,0.385655015707016,1.1142005920410156
1776443423132903200,26.417903076171875,0.2701888680458069,0.35473331809043884,1.1013002395629883
1776443423157919200,26.442919189453125,0.39701685309410095,0.19948168098926544,0.9257672429084778
1776443423182935300,26.467935302734375,0.42836278676986694,0.10595625638961792,0.6719677448272705
1776443423207951000,26.492951171875,0.21301214396953583,0.20530734956264496,0.6896063685417175
1776443423232967200,26.51796728515625,0.06095389649271965,0.06851886957883835,0.6480842232704163
1776443423257983200,26.542983154296873,0.1253238320350647,0.15100336074829102,0.7232874035835266
1776443423282999000,26.5679990234375,0.187766432762146,0.17788317799568176,0.6124178767204285
1776443423308015000,26.59301513671875,0.24759595096111298,0.18965168297290802,0.7205880284309387
1776443423333031200,26.61803125,0.16855332255363464,0.09911593049764633,0.9182456731796265
1776443423358047200,26.643047119140626,0.08920630812644958,-0.19920817017555237,0.9198358654975891
1776443423383063000,26.66806298828125,-0.18876218795776367,-0.47605735063552856,0.8771240711212158
1776443423408079000,26.6930791015625,-0.3678600490093231,-0.7953439950942993,0.9462823867797852
1776443423433094100,26.71809423828125,-0.5076243281364441,-1.067430853843689,0.910796582698822
1776443423458110200,26.743110107421874,-0.517938494682312,-1.2676724195480347,1.002853274345398
1776443423483126300,26.768126220703124,-0.7285796403884888,-1.2721909284591675,1.0509840250015259
1776443423508142300,26.793142333984374,-0.6143749952316284,-1.243082046508789,1.0832538604736328
1776443423533158100,26.818158203125,-0.6229724884033203,-0.8304591178894043,1.137514352798462
1776443423558174200,26.84317431640625,-0.540878415107727,-0.31838569045066833,1.0472418069839478
1776443423583190300,26.868190185546876,-0.3142293095588684,-0.09463515877723694,0.9563390016555786
1776443423608206000,26.8932060546875,-0.26321032643318176,0.14118055999279022,1.016675353050232
1776443423633222100,26.91822216796875,-0.06034163758158684,0.017882859334349632,1.062122106552124
1776443423658238200,26.94323828125,0.014888668432831764,0.027482490986585617,1.4010051488876343
1776443423683254300,26.968254150390624,-0.010950385592877865,-0.06690153479576111,1.5182502269744873
1776443423708270000,26.99327001953125,-0.01619468256831169,-0.010035856626927853,1.8463810682296753
1776443423733286100,27.0182861328125,0.10936777293682098,-0.08916209638118744,1.9222960472106934
1776443423758302200,27.04330224609375,0.18063262104988098,-0.046480949968099594,2.0447442531585693
1776443423783318000,27.068318115234376,0.19337478280067444,-0.05872456729412079,2.000438690185547
1776443423808334000,27.093333984375,0.18380232155323029,-0.049900978803634644,1.9359729290008545
1776443423833350100,27.11835009765625,0.1944136917591095,0.0037561224307864904,1.8885953426361084
1776443423858366200,27.1433662109375,0.17109957337379456,0.14920732378959656,1.9030197858810425
1776443423883381200,27.16838134765625,0.13851073384284973,0.2952130138874054,1.8342572450637817
1776443423908397300,27.193397216796875,0.07891692221164703,0.4595683813095093,1.7536550760269165
1776443423933413400,27.218413330078125,0.06699953973293304,0.5340777635574341,1.6297248601913452
1776443423958429200,27.24342919921875,-0.09298879653215408,0.6707653403282166,1.6551157236099243
1776443423983445200,27.2684453125,-0.15407559275627136,0.40036872029304504,1.482545256614685
1776443424008461300,27.29346142578125,-0.15588787198066711,0.46824097633361816,1.5187735557556152
1776443424033477000,27.31847705078125,-0.1403975933790207,0.2695704996585846,1.2582740783691406
1776443424058493200,27.3434931640625,-0.14740675687789917,0.1888365000486374,1.1995418071746826
1776443424083510000,27.368510009765625,-0.2354719042778015,0.08970591425895691,1.2181035280227661
1776443424108526000,27.393526123046875,-0.2214341163635254,-0.054496265947818756,1.1032261848449707
1776443424133542100,27.418542236328125,-0.16253352165222168,-0.2991427481174469,1.03640878200531
1776443424158558200,27.44355810546875,-0.09210862219333649,-0.529444694519043,0.9261571168899536
1776443424183574000,27.468573974609374,0.033849041908979416,-0.5948585867881775,0.8929904103279114
1776443424208590000,27.493590087890624,0.005293032620102167,-0.7219517827033997,0.8040157556533813
1776443424233606100,27.518606201171874,0.015928367152810097,-0.6953740119934082,0.8401072025299072
1776443424258622000,27.5436220703125,0.1284346729516983,-0.8346146941184998,0.6233432292938232
1776443424283638000,27.568637939453126,0.13038703799247742,-0.5782982110977173,0.6945028901100159
1776443424308654000,27.593654052734376,0.07597918808460236,-0.5045382380485535,0.5191430449485779
1776443424333670100,27.618670166015626,0.07865352928638458,-0.3228917717933655,0.33138591051101685
1776443424358686000,27.64368603515625,-0.06407618522644043,-0.12772201001644135,0.24943752586841583
1776443424383701000,27.668700927734374,-0.1375109851360321,-0.16427762806415558,0.01184840314090252
1776443424408716800,27.693716796875,-0.14119388163089752,-0.22637641429901123,0.046182408928871155
1776443424433732900,27.71873291015625,-0.036254942417144775,-0.14944195747375488,0.219930499792099
1776443424458749000,27.7437490234375,-0.006061621010303497,-0.24503904581069946,0.22524696588516235
1776443424483765200,27.76876513671875,0.009151420556008816,-0.3078305125236511,0.1633649617433548
1776443424508781000,27.793781005859376,0.10851475596427917,-0.28175631165504456,0.15205371379852295
1776443424533797000,27.818797119140626,-0.1372832953929901,-0.06719714403152466,0.23492756485939026
1776443424558813200,27.843813232421876,-0.21449525654315948,-0.16712507605552673,0.23990926146507263
1776443424583829000,27.8688291015625,-0.29015645384788513,-0.23439839482307434,0.5957723259925842
1776443424608845000,27.893844970703125,-0.244289368391037,-0.3029335141181946,0.8208647966384888
1776443424633861000,27.918861083984375,-0.2697116434574127,-0.24871528148651123,1.084303855895996
1776443424658877200,27.943877197265625,-0.3370848298072815,-0.11312096565961838,1.275720477104187
1776443424683893000,27.96889306640625,-0.4070311486721039,-0.022404640913009644,1.2466424703598022
1776443424708909000,27.993908935546877,-0.35974910855293274,0.19047726690769196,1.384151816368103
1776443424733925000,28.018925048828127,-0.27284005284309387,0.25891491770744324,1.3657728433609009
1776443424758941000,28.04394091796875,-0.24947933852672577,0.3740564286708832,1.4338639974594116
1776443424783957000,28.06895703125,-0.2803914546966553,0.35786840319633484,1.46489679813385
1776443424808973000,28.09397314453125,-0.2707100510597229,0.2523976266384125,1.3313217163085938
1776443424833987800,28.11898779296875,-0.17606104910373688,0.23207078874111176,1.268844723701477
1776443424859004000,28.14400390625,-0.017521468922495842,0.41812002658843994,1.508094072341919
1776443424884020000,28.16902001953125,0.09286096692085266,0.3389674127101898,1.467677354812622
1776443424909036000,28.1940361328125,0.02412717416882515,0.26304495334625244,1.5619468688964844
1776443424934052000,28.219052001953123,-0.10522975027561188,0.1698140650987625,1.7154179811477661
1776443424959068200,28.244068115234374,-0.13183419406414032,0.11400726437568665,1.8816533088684082
1776443424984084200,28.269084228515624,-0.2313980758190155,0.0037617150228470564,1.8688892126083374
1776443425009100000,28.29410009765625,-0.24260784685611725,0.03916897252202034,1.8820610046386719
1776443425034116000,28.3191162109375,-0.13023416697978973,0.04189098998904228,1.847177267074585
1776443425059132200,28.344132080078126,-0.09509828686714172,0.16016437113285065,2.0394139289855957
1776443425084147500,28.3691474609375,-0.09411478042602539,0.11688880622386932,1.9890990257263184
1776443425109163300,28.394163330078126,-0.1441318690776825,0.15730945765972137,1.9892833232879639
1776443425134179300,28.419179443359376,-0.13680578768253326,0.2235763669013977,2.192814350128174
1776443425159195400,28.4441953125,-0.18110772967338562,0.062977634370327,2.1855740547180176
1776443425184211500,28.46921142578125,-0.2619709074497223,0.0997481644153595,2.271524667739868
1776443425209227300,28.494227294921874,-0.31545567512512207,-0.030597323551774025,2.1757452487945557
1776443425234243300,28.519243408203124,-0.37523218989372253,-0.001531850197352469,2.1174488067626953
1776443425259259400,28.54425927734375,-0.32868653535842896,0.17072567343711853,2.148977279663086
1776443425284275200,28.569275146484376,-0.389350950717926,0.15098445117473602,2.0333473682403564
1776443425309291300,28.594291259765626,-0.37278982996940613,0.21978561580181122,1.9027931690216064
1776443425334306600,28.619306640625,-0.24617914855480194,0.33202242851257324,1.9096673727035522
1776443425359322400,28.644322265625,-0.21469631791114807,0.16533729434013367,1.7541600465774536
1776443425384338400,28.66933837890625,-0.27625635266304016,0.17123033106327057,1.5791383981704712
1776443425409354500,28.6943544921875,-0.20038050413131714,0.20070940256118774,1.4011825323104858
1776443425434370600,28.71937060546875,-0.20775052905082703,0.14880917966365814,1.2011828422546387
1776443425459386400,28.744386474609374,-0.3203252851963043,0.056102950125932693,0.9510185718536377
1776443425484402400,28.76940234375,-0.3035774528980255,0.16301289200782776,0.7824292778968811
1776443425509418500,28.79441845703125,-0.2529070973396301,0.23617391288280487,0.6196046471595764
1776443425534434300,28.819434326171876,-0.25853222608566284,-0.03658384457230568,0.3385162651538849
1776443425559450400,28.844450439453126,-0.23050111532211304,-0.1258266419172287,0.4405222535133362
1776443425584466400,28.869466552734377,-0.1198292002081871,-0.17333263158798218,0.48354774713516235
1776443425609481200,28.894481201171875,0.039255525916814804,-0.14430071413516998,0.5705348253250122
1776443425634497300,28.919497314453125,-0.24618633091449738,-0.2293969690799713,0.5894033312797546
1776443425659513600,28.944513671875,-0.4715651273727417,-0.4485551416873932,0.5640191435813904
1776443425684529400,28.969529296875,-0.5903282761573792,-0.2401534765958786,0.7256826162338257
1776443425709545500,28.99454541015625,-0.49297642707824707,-0.22806379199028015,0.7386745810508728
1776443425734561500,29.0195615234375,-0.46524810791015625,0.08124638348817825,0.8323555588722229
1776443425759577600,29.04457763671875,-0.39971837401390076,0.2197699099779129,0.8094204068183899
1776443425784593400,29.069593505859373,-0.11544883251190186,0.2833472788333893,0.8760846257209778
1776443425809609500,29.094609375,-0.1978779286146164,0.3583222031593323,0.8769067525863647
1776443425834625500,29.11962548828125,0.06402105838060379,0.26164546608924866,0.9328795075416565
1776443425859641300,29.144641357421875,0.0865066647529602,0.2761596739292145,0.9742152094841003
1776443425884657400,29.169657470703125,0.12186624854803085,0.2714376449584961,1.0558464527130127
1776443425909673500,29.194673583984375,0.03780410438776016,0.31631162762641907,1.3049949407577515
1776443425934689300,29.219689208984374,0.11839056015014648,0.19243842363357544,1.416397213935852
1776443425959705300,29.244705322265624,0.06065003201365471,0.18756377696990967,1.5807634592056274
1776443425984721400,29.269721435546874,0.07825512439012527,-0.07792089879512787,1.5192310810089111
1776443426009737500,29.294737548828124,0.11593752354383469,-0.0906263068318367,1.4947478771209717
1776443426034753300,29.319753173828126,0.010695520788431168,-0.0859932079911232,1.5163516998291016
1776443426059769300,29.344769287109376,-0.2457200139760971,-0.1747310608625412,1.5257678031921387
1776443426084785400,29.369785400390626,-0.4711105227470398,-0.2482130080461502,1.5678346157073975
1776443426109800400,29.394800537109376,-0.5349214673042297,-0.2480342984199524,1.6213988065719604
1776443426134816500,29.41981640625,-0.5558105111122131,-0.315086305141449,1.5565260648727417
1776443426159832600,29.44483251953125,-0.5956982374191284,-0.35592561960220337,1.6092464923858643
1776443426184848600,29.4698486328125,-0.5161640048027039,-0.34393632411956787,1.718582034111023
1776443426209864400,29.494864501953124,-0.45253393054008484,-0.3196570873260498,1.6755882501602173
1776443426234880500,29.519880615234374,-0.45257997512817383,-0.22039654850959778,1.6316734552383423
1776443426259896600,29.544896484375,-0.307648628950119,0.13217134773731232,1.2064939737319946
1776443426284912400,29.569912353515626,-0.27176812291145325,-0.2162012755870819,0.6349942684173584
1776443426309928400,29.594928466796876,-0.2513512670993805,0.26162174344062805,1.1326954364776611
1776443426334944500,29.619944580078126,-0.07282014191150665,0.3040517568588257,1.2101715803146362
1776443426359960600,29.644960693359376,0.0032461269292980433,0.28624826669692993,1.077476143836975
1776443426384976400,29.669976318359375,0.017894843593239784,0.3118806481361389,0.8497875332832336
1776443426409992400,29.694992431640625,0.0955563485622406,0.2502676248550415,0.6912263631820679
1776443426435008500,29.720008544921875,0.09535820782184601,0.2977965474128723,0.7204593420028687
1776443426460024300,29.7450244140625,0.12846823036670685,0.35615384578704834,0.763089656829834
1776443426485040400,29.770040283203127,0.20730578899383545,0.6122024059295654,0.9917324185371399
1776443426510056400,29.795056396484377,0.31958624720573425,0.7225286364555359,1.0362255573272705
1776443426535072300,29.820072265625,0.4589715898036957,0.8203364610671997,1.0511385202407837
1776443426560088300,29.84508837890625,0.6073887348175049,0.7848777770996094,1.0880677700042725
1776443426585103600,29.870103515625,0.6031807065010071,0.7759854793548584,1.1035281419754028
1776443426610119400,29.895119384765625,0.672744870185852,0.6663215756416321,1.1891796588897705
1776443426635135500,29.920135498046875,0.5030471682548523,0.16660761833190918,0.980518102645874
1776443426660151600,29.945151611328125,0.22880175709724426,-0.15937048196792603,1.055145263671875
1776443426685167600,29.970167724609375,-0.07114394754171371,-0.26675713062286377,1.0844874382019043
1776443426710183400,29.995183349609373,-0.21859173476696014,-0.25041624903678894,1.0469658374786377
1776443426735199500,30.020199462890623,-0.030775755643844604,0.0786077231168747,1.0312342643737793
1776443426760215600,30.045215576171874,0.09438855201005936,0.1982600837945938,1.0532677173614502
1776443426785231400,30.0702314453125,0.15271949768066406,0.1653764396905899,1.03132164478302
1776443426810247400,30.095247314453125,0.1531839668750763,0.09503170847892761,0.88532954454422
1776443426835263500,30.120263427734375,0.1331987977027893,0.04745246842503548,0.639437198638916
1776443426860279600,30.145279541015626,-0.08864171802997589,0.15860775113105774,0.6198523640632629
1776443426885295400,30.17029541015625,-0.15621304512023926,0.006073605269193649,0.552166223526001
1776443426910311400,30.1953115234375,-0.11984730511903763,-0.04637948423624039,0.5277400016784668
1776443426935327500,30.220327392578124,-0.1919204294681549,-0.17739182710647583,0.40808388590812683
1776443426960343300,30.24534326171875,-0.3072262704372406,-0.20873937010765076,0.23234668374061584
1776443426985359400,30.270359375,-0.2896539270877838,-0.3218376934528351,0.056835319846868515
1776443427010375400,30.29537548828125,-0.1602647751569748,-0.3366360664367676,0.0342453233897686
1776443427035391200,30.32039111328125,-0.08758630603551865,-0.1000504344701767,0.3887765109539032
1776443427060406800,30.34540673828125,0.03791249543428421,0.04739974066615105,0.5022221207618713
1776443427085421800,30.370421875,0.26124730706214905,0.048525456339120865,0.4524074196815491
1776443427110437600,30.395437744140626,0.42773935198783875,-0.050208840519189835,0.5079308748245239
1776443427135453700,30.42045361328125,0.4243616759777069,0.06474890559911728,0.5643893480300903
1776443427160469800,30.4454697265625,0.21896643936634064,-0.24908678233623505,0.32111304998397827
1776443427185485600,30.470485595703124,-0.18232347071170807,-0.3677082359790802,0.22547386586666107
1776443427210501600,30.495501708984374,-0.28543734550476074,-0.2763591408729553,0.2592741847038269
1776443427235517700,30.520517578125,-0.15404336154460907,-0.2508343458175659,0.27538231015205383
1776443427260533800,30.54553369140625,-0.16993604600429535,-0.13070981204509735,0.3600676357746124
1776443427285549600,30.570549560546876,-0.39260295033454895,0.1000584214925766,0.35913047194480896
1776443427310565600,30.595565673828126,-0.014474013820290565,0.33466801047325134,0.3264601230621338
1776443427335581700,30.620581787109376,0.16566859185695648,0.7355040907859802,0.4274298846721649
1776443427360597500,30.645597412109375,0.14939747750759125,0.851555347442627,0.5384309887886047
1776443427385613600,30.670613525390625,-0.08533886820077896,0.8386771082878113,0.6509596705436707
1776443427410629600,30.695629638671875,-0.2376871258020401,0.6329026222229004,0.7213019728660583
1776443427435645700,30.720645751953125,-0.21552562713623047,0.6495468616485596,0.9224444031715393
1776443427460661800,30.745661865234375,-0.18826018273830414,0.31737983226776123,0.8317081332206726
1776443427485677800,30.770677734375,-0.064844511449337,0.6233599781990051,1.146017074584961
1776443427510694000,30.79569384765625,0.008046208880841732,0.7877944707870483,1.276094675064087
1776443427535709700,30.820709716796873,0.13128584623336792,0.8390706777572632,1.2954784631729126
1776443427560725800,30.845725830078123,0.4449271261692047,0.7897266149520874,1.3807570934295654
1776443427585740800,30.87074072265625,0.515326201915741,0.7170723676681519,1.3755974769592285
1776443427610756600,30.895756591796875,0.5406211614608765,0.38629522919654846,1.3857614994049072
1776443427635772700,30.920772705078125,0.1557975858449936,-0.08195638656616211,1.2591161727905273
1776443427660788700,30.945788818359375,-0.32976219058036804,-0.6508107781410217,1.043127179145813
1776443427685804500,30.970804443359373,-0.40613311529159546,-0.828387439250946,1.1283783912658691
1776443427710820600,30.995820556640624,-0.17985738813877106,-0.8202198147773743,1.3536146879196167
1776443427735836700,31.020836669921874,-0.013776798732578754,-0.713249683380127,1.4825124740600586
1776443427760852500,31.0458525390625,0.148127943277359,-0.5577301383018494,1.6537915468215942
1776443427785868500,31.07086865234375,0.034939076751470566,-0.5521747469902039,1.6386313438415527
1776443427810884600,31.095884521484376,-0.14858920872211456,-0.578759491443634,1.5863984823226929
1776443427835900700,31.120900634765626,-0.07640262693166733,-0.496570348739624,1.5951628684997559
