time,seconds_elapsed,z,y,x
1776443396801195800,0.08619580078125,-0.11483049427270889,0.1532640506286174,-0.2228678943391889
1776443396826211800,0.1112119140625,-0.2878565724045038,-0.2203189222424291,-0.37004816807471214
1776443396851227100,0.13622705078125,-0.5284802689909934,0.0010262743078172207,-1.0869519908156244
1776443396876243000,0.161242919921875,-0.3554331480711698,0.9547177226036786,0.5592696672692895
1776443396901259000,0.186259033203125,-0.21888123585581779,0.6082913627328351,0.5777968922805041
1776443396926275000,0.211275146484375,-0.6855319483995437,-0.7659022469267248,-0.7695975943133234
1776443396951289900,0.236289794921875,-0.26614801394343374,-1.112899282824993,-1.682820984750986
1776443396976306000,0.261305908203125,1.048463343271613,0.061394452965632076,0.3729142980955541
1776443397001322000,0.286322021484375,0.8620265794247388,0.0352396556854248,-0.047889001639187335
1776443397026337000,0.3113369140625,0.3077823391020298,0.331704847285524,1.551585152991861
1776443397051356700,0.336356689453125,1.0534832172602415,0.13040902554616332,2.131118440610915
1776443397076372700,0.361372802734375,0.8836784392625093,-0.09370371775496751,-0.12895809608548878
1776443397101389000,0.38638916015625,-0.01670095943212509,-0.40251134478412565,-0.6071095690697431
1776443397126403800,0.41140380859375,0.35677111867666245,-0.19403149329219013,0.6222259627241641
1776443397151420000,0.436419921875,0.4451858997106552,-0.7360258718401194,-0.30907968543618913
1776443397176436000,0.46143603515625,-0.10890227326750755,-1.109152497512102,-0.7897545394182205
1776443397201452000,0.4864521484375,-0.2017179196089506,-0.7601867188241332,-2.048848445942253
1776443397226466800,0.511466796875,0.053123102900385855,0.3071813410015777,-0.16126005435120314
1776443397251483000,0.53648291015625,-0.5431780719071626,0.5293810172230005,1.2664613665521145
1776443397276498700,0.561498779296875,0.5152344184488058,0.188932343522273,0.9206918996874243
1776443397301514000,0.586513916015625,-0.6267933437049389,0.11788816481027752,0.4602626920070499
1776443397326530000,0.611530029296875,0.04641162256300449,0.29960221098419276,0.6502162318032234
1776443397351545900,0.6365458984375,-0.3222112619489431,-0.10082308477349579,0.44993210785705595
1776443397376562000,0.66156201171875,0.061519759845733636,-0.2668552488973364,-0.055657005292177195
1776443397401577000,0.686576904296875,0.6586877806156873,-0.35749446451514955,0.32860607755258675
1776443397426592800,0.7115927734375,0.05053425545096397,-0.4121959957133978,0.3285658916726708
1776443397451608800,0.73660888671875,-0.6052496204167604,0.15235380391590297,1.0059880372442305
1776443397476625000,0.761625,0.5898427924484014,-0.06993541375249623,0.47074938003420824
1776443397501640000,0.786639892578125,-0.5864128179997206,-0.9618226592380553,0.16125146918594838
1776443397526656000,0.811656005859375,0.3682821082502603,0.07945975955352187,0.23153102020099758
1776443397551672000,0.836672119140625,0.37904023362994194,0.18136917825900017,0.5335447127737104
1776443397576687900,0.86168798828125,-0.2241255662500858,-1.1134139543488621,-1.258186874681711
1776443397601703000,0.886702880859375,1.050190605455637,-1.2613678428053856,-2.851523695601523
1776443397626719000,0.911718994140625,-0.559857988551259,0.4173282440353185,0.818786280374229
1776443397651734800,0.93673486328125,1.25748018771708,0.9458263409439474,-0.1690901999875903
1776443397676749800,0.961749755859375,-0.892504135274887,0.39865846874825656,-0.1725695665359497
1776443397701766000,0.986765869140625,-1.0623562595456837,-0.09210537918023765,-0.5317360559165477
1776443397726782000,1.011781982421875,0.3368067735344171,-0.1010459337439388,0.09094780664294957
1776443397751798000,1.036798095703125,0.30992694991528985,-0.26250001282989976,-0.35517332809120417
1776443397776812800,1.061812744140625,-0.3428425465673208,0.02649798469468951,-0.022469021439552306
1776443397801828900,1.086828857421875,-0.9265385068237781,0.35545426392443474,0.019635259318351743
1776443397826845000,1.111844970703125,0.03085924864411354,0.7285748982470482,0.10279884182587265
1776443397851861000,1.136861083984375,0.6870721635788679,0.41383726011440153,-0.2709261881306767
1776443397876875800,1.161875732421875,0.048887072765827176,0.38648616572171446,-0.15134849933087824
1776443397901891800,1.186891845703125,0.3579185351461172,0.5461491966724396,-0.15501199027448892
1776443397926908000,1.211907958984375,-0.2781757208675146,0.1727099979199469,0.06833440829664468
1776443397951924000,1.236924072265625,-0.4331353964328766,-0.061167293146252626,0.9026943976387382
1776443397976939000,1.26193896484375,-1.149518994691968,-0.23782179090827701,-1.2870058496698737
1776443398001954800,1.286954833984375,-0.8450403733104467,0.03450520393103361,-0.25640666439086196
1776443398026971000,1.311970947265625,0.28906828628182407,-0.26447028998956085,0.4707794829115271
1776443398051983600,1.336983642578125,1.4199310958206652,-0.9087488753721118,-0.48354690228700636
1776443398076998700,1.36199853515625,0.34029929182529445,-1.6913260705068707,0.1893961981743574
1776443398102014700,1.3870146484375,0.28994565363824365,-2.093866422189772,-2.9097628263413906
1776443398127030500,1.412030517578125,-0.16856676063537596,0.32891835837215183,1.3694164218530058
1776443398152045800,1.4370458984375,-1.4499053783237934,0.9414974448941648,2.2337122613839804
1776443398177062000,1.462061767578125,0.5173883816123008,0.23603373844772577,1.6848558515794574
1776443398202077700,1.48707763671875,0.09167349056899547,-0.6939250251483172,-1.0924864632628857
1776443398227093800,1.51209375,-0.6148176592290401,0.154500478822086,-0.01834390433356166
1776443398252108500,1.537108642578125,-1.5531822129249573,0.4648093224607408,1.0110556958973407
1776443398277124600,1.56212451171875,-1.8930191479355096,-3.8212759057298302,-1.3844690295562148
1776443398302140700,1.587140625,0.17067513109147547,-0.8656467426832765,-1.8496826950341463
1776443398327156700,1.61215673828125,0.7073036352247,0.9563089373178779,0.958449018086493
1776443398352171800,1.637171875,-0.5828495725601911,2.0824086241081354,1.3025037169225513
1776443398377187800,1.662187744140625,-0.8864367980599402,0.20482140204962343,2.118194807760417
1776443398402204000,1.687203857421875,-1.3448638721376656,-2.094440276554972,-1.5195871095761655
1776443398427219700,1.7122197265625,-0.05018354231715202,-1.4161625370673834,-0.5410059885650873
1776443398452234800,1.73723486328125,1.1247522177040576,-0.8622456290028989,-1.482185599681735
1776443398477250600,1.76225048828125,-0.7697434325248003,2.6457263977244496,2.674869782361388
1776443398502266600,1.7872666015625,-0.9572685761302709,2.797301983809471,2.2922519825056193
1776443398527282700,1.81228271484375,-0.9878636208802462,-1.5907416898600757,-1.165427634702623
1776443398552297500,1.83729736328125,1.4878560465335846,-1.847942865629494,-2.0183122917726637
1776443398577313500,1.8623134765625,0.759426621171832,2.8029478807419537,2.4402678302824494
1776443398602329900,1.887329833984375,-1.157961828866601,2.5802950173929333,2.7379095913812517
1776443398627346000,1.912345947265625,0.20982523821890353,0.9276032134458422,-1.7857272324740885
1776443398652360700,1.937360595703125,1.1917156299084424,-1.4723504343658684,-2.338159162677824
1776443398677376800,1.962376708984375,0.8017366536349058,0.17008089152537284,0.6037760407328605
1776443398702392600,1.987392578125,-1.7395009033501148,1.636173507605493,2.637797650551796
1776443398727408600,2.01240869140625,-0.40356794116497036,-0.8127075449824332,-1.1286536090567707
1776443398752423700,2.037423583984375,1.8372791405349969,-0.3616057722914964,-1.3446154503345489
1776443398777439500,2.062439453125,0.1823895342826843,-2.0121087609574198,-2.088642550061643
1776443398802455600,2.08745556640625,0.700744130578637,-3.0481100975409148,-0.6015592414662242
1776443398827471600,2.1124716796875,0.8373211772352457,2.2833260409891603,3.1223057990863916
1776443398852486700,2.137486572265625,-0.1809352438211441,1.6975950677737592,0.45764556831121445
1776443398877502700,2.162502685546875,-0.6135884096950293,-1.7883350768849253,-1.281551675917208
1776443398902518800,2.187518798828125,0.406903223067522,1.4147905180618165,0.9615200960949063
1776443398927534600,2.21253466796875,1.133724044188857,0.29836591065488755,-0.8770484997287392
1776443398952550700,2.237550537109375,-0.14371055179834366,-2.015054020629078,-3.098092564328015
1776443398977565700,2.262565673828125,-0.7626777319222688,-0.3254447639774531,1.44031600446254
1776443399002581500,2.28758154296875,-0.019348843592405317,0.1800036620594561,1.040811367213726
1776443399027597600,2.31259765625,-0.34159576137661934,0.279586391383037,0.7128136308178306
1776443399052613400,2.33761328125,0.06298223361372947,0.026801351555436847,0.6393365989357233
1776443399077628400,2.36262841796875,-0.410297541680932,-0.23666246480531988,-0.8401742285788059
1776443399102644200,2.387644287109375,-0.005372340688109397,0.22658428451381624,0.7259720953375101
1776443399127660300,2.412660400390625,0.5244049823760986,0.7253235683009028,0.5351376810535788
1776443399152676400,2.43767626953125,-0.3134802584826946,0.3766543614067137,0.2557709968358278
1776443399177691100,2.462691162109375,-2.2207862904459237,2.6262074582621455,2.039210702894628
1776443399202707200,2.487707275390625,0.25146131694316864,0.628622604958713,0.005007306768000126
1776443399227723300,2.51272314453125,0.6468617337435484,1.1963389057949185,0.05521422996073961
1776443399252739000,2.537739013671875,-0.4193436024457216,-0.9818865192320197,-0.9350321944028138
1776443399277755100,2.562755126953125,0.7555565017402172,-0.0053645957730710505,-0.7933493490397929
1776443399302770400,2.5877705078125,0.12242635622918605,-1.194360883720219,-1.124828205549717
1776443399327786200,2.6127861328125,0.6195961256772279,-0.017145890188030897,0.3446820369541645
1776443399352802300,2.63780224609375,1.0209013826072215,0.3002449658671394,0.2526087334126234
1776443399377818400,2.662818359375,-0.1418517721891403,-0.009934022580459714,0.5397171177983283
1776443399402833200,2.687833251953125,0.31047113979458807,-0.42487566374018787,0.4789166121378541
1776443399427849200,2.71284912109375,0.7342407419890165,0.058526898172684014,-0.10236015814766287
1776443399452865300,2.737865234375,-0.293311330679059,1.8975794415883718,-0.37222280870005486
1776443399477881000,2.762881103515625,-0.8234469656616449,0.4328573466764763,1.4254267706274986
1776443399502896400,2.787896484375,-0.2553530636847019,-0.2158548737719655,0.31754137044176456
1776443399527912400,2.812912353515625,-0.09496960950493812,0.5203923126686364,-0.17277634115442633
1776443399552928300,2.83792822265625,-1.1861018816798925,0.5449688277814537,-0.5529051006734371
1776443399577944300,2.8629443359375,-0.7097463522017001,-0.49519474304802713,1.1935739711262285
1776443399602960400,2.88796044921875,-0.7757686841636896,-0.5563969613771885,0.2205643666371703
1776443399627975200,2.91297509765625,0.8589923262953758,-0.8971412935562432,-0.21224632788598535
1776443399652991200,2.9379912109375,0.09506839370429515,-0.6511391918670386,-0.5696009455390274
1776443399678007300,2.96300732421875,-0.6013304011464119,0.2317830222006887,0.043305034849792715
1776443399703023000,2.988023193359375,-1.194795475745201,-0.241445534363389,0.20104981108903883
1776443399728038400,3.013038330078125,0.7286720019459724,-0.6871439136408269,-0.35469197431504723
1776443399753054500,3.038054443359375,0.649766223013401,0.37339857448115943,-1.1327392709352075
1776443399778070300,3.0630703125,-0.3444979125589132,0.2712583426944911,-1.1513196143731474
1776443399803086300,3.08808642578125,2.4325375282913444,-1.7600361802481115,0.6905041838541627
1776443399828102400,3.113102294921875,-2.1450240702360865,-0.014688742826879023,-0.3296284063376486
1776443399853117200,3.1381171875,-0.012652560824155806,-0.3937944429084658,0.20760040177628397
1776443399878133200,3.16313330078125,1.1172528018593788,-0.4835053281676024,-0.6971377766497433
1776443399903149300,3.1881494140625,1.1530991912662982,-0.5457812401428819,-0.06869082051888108
1776443399928165000,3.2131650390625,0.7866758626252413,-0.2283717524524778,-0.5029974526882172
1776443399953181200,3.23818115234375,0.682282591214776,0.2717503639951348,0.15519845275729893
1776443399978196500,3.263196533203125,0.015161913296580313,0.4554014791788533,-0.14271598780304193
1776443400003212300,3.28821240234375,-0.7056827560245991,0.6460978366989641,0.2812268520664424
1776443400028228400,3.313228271484375,-1.3136848900198936,0.42133733354620634,0.7118300996731967
1776443400053244000,3.338243896484375,-0.7583709746390581,-0.16545052831098436,0.7749455312125384
1776443400078259000,3.363259033203125,-0.3192448133587837,0.1847334305277094,-0.8340436168693005
1776443400103274800,3.388274658203125,0.22345044346749782,0.2781635555056855,-2.4928479123473166
1776443400128290800,3.413290771484375,0.7056219657480717,-0.23123338896129278,-3.8932872489735484
1776443400153307000,3.438306884765625,1.7272645221114158,-0.5397060484150424,-1.0489972309526054
1776443400178323000,3.463322998046875,2.037740922603011,0.4039729783019051,0.3359215151324868
1776443400203338000,3.488337890625,1.0556517934709786,-0.5462282167254016,1.9138877484411
1776443400228354000,3.51335400390625,-0.4966670806229114,-0.28605858307182785,0.9349688468430191
1776443400253370000,3.5383701171875,-0.07553308762907981,-0.41666835535448044,-0.32037900502048433
1776443400278386000,3.563385986328125,-0.5408353081732988,-0.2265942944511771,0.3991342695664614
1776443400303402000,3.588402099609375,-0.638203210991621,0.4358140410576015,1.5565991817615925
1776443400328416800,3.613416748046875,-0.360406844830513,-0.14321173543073237,2.0140727545067665
1776443400353432800,3.638432861328125,-0.0011497545570135115,0.12643548227269202,1.7997760699622332
1776443400378449000,3.663448974609375,-0.045774493703246114,0.2979335836522281,1.4730639894627033
1776443400403465000,3.68846484375,-0.39744098271727557,0.7281934246487916,1.4694669878840445
1776443400428480800,3.713480712890625,0.19894670132994652,0.557140180959925,1.8730369748756288
1776443400453496000,3.73849609375,-0.3824667009472847,0.4253586614841595,2.057456553681195
1776443400478512000,3.76351220703125,-0.08581775027811527,-0.1793765796696767,1.8626888916015625
1776443400503528000,3.78852783203125,0.324525968632102,-0.5922109098192304,-0.7604042340323328
1776443400528544000,3.8135439453125,-0.23460253660082817,-0.47734556342884893,-1.1385893852028994
1776443400553560000,3.83856005859375,-0.5122019188851118,-0.6643382075928151,-1.2052444621104745
1776443400578574800,3.863574951171875,0.05227203902900219,0.8025262696426362,-0.455867160461843
1776443400603591000,3.8885908203125,-0.2175783365637064,0.5896642940763384,-0.23471432641223072
1776443400628607000,3.91360693359375,0.6328706177920103,0.4524838016338646,-0.629582609097287
1776443400653622800,3.938622802734375,-0.15033201576471328,0.29744521561339493,-0.9973779567439108
1776443400678638800,3.963638916015625,0.6061076985508204,-0.021646087684109805,-1.5677023211866616
1776443400703654100,3.988654052734375,0.9290198022454976,-0.6822789379529655,-2.142300198230147
1776443400728670000,4.013669921875,0.7233318099617958,-1.5836263048969208,-1.10342155264467
1776443400753686000,4.03868603515625,0.44331016896665093,-0.7543652461290359,-0.39243542951494453
1776443400778702000,4.0637021484375,-0.6267074189871549,-0.1396159028958529,0.2186505689051002
1776443400803718000,4.0887177734375,-0.058087447309494014,-1.0009249086357652,0.2951644111998379
1776443400828733000,4.11373291015625,-0.07322130355536938,-0.6404427335467189,0.7041726437225937
1776443400853749000,4.1387490234375,-0.4115630315721035,-0.6042923196919262,0.27963848689645526
1776443400878764800,4.163764892578125,-0.9223843097537755,-1.4448688454613088,0.19739033873341977
1776443400903780900,4.18878076171875,-0.30342297484874725,-1.2620330287158488,0.06505472903884947
1776443400928797000,4.213796875,-0.4470891029834747,-0.020558876969292757,-0.5113668563004583
1776443400953812000,4.23881201171875,-0.8756897785961627,0.008506912386789918,0.6953944401137531
1776443400978828000,4.263828125,-0.10054010311365127,0.058951078401505944,0.6207501180179417
1776443401003844000,4.288843994140625,-0.029945640930533406,-0.22851386433690785,0.38267983224131163
1776443401028860000,4.31385986328125,-0.39773207461833954,0.030844635596871374,0.9399499231912195
1776443401053875700,4.338875732421875,-0.3012128975838423,0.07200389058962464,0.6488771652191877
1776443401078890800,4.363890869140625,0.23026655322313308,-0.4231052930667996,-0.5604451407894492
1776443401103906600,4.388906494140625,0.11878712294399738,-0.08130071124508977,-0.42207799584567546
1776443401128922600,4.413922607421875,-0.26340017654001713,-0.7329493139389902,0.6358876275256276
1776443401153938700,4.438938720703125,-0.5313485179036855,-0.40855117293763904,0.8188521852172911
1776443401178954500,4.46395458984375,-0.24440496869087217,-0.48354335862305015,0.4495601692721247
1776443401203970600,4.488970458984375,-0.3599567629754543,-0.14865705002350732,0.6342411754928529
1776443401228985900,4.51398583984375,-0.28699732522666455,-0.26965092576416205,0.6226628197714686
1776443401254001700,4.539001708984375,0.049420741251111025,-0.20374743440886958,0.5353977932944893
1776443401279017700,4.564017822265625,-0.13836743720471859,0.04240606758291833,0.22847718558833002
1776443401304033800,4.58903369140625,-0.37776246877908704,0.013438231309130787,0.5102757731281221
1776443401329049600,4.614049560546875,0.31324294259548185,-0.3122408163482323,-0.5862969365350902
1776443401354064600,4.639064697265625,0.24794074160158633,-0.36159061125498265,-0.6242378140032291
1776443401379080700,4.664080810546875,0.4224100042790174,-0.29982663085721434,-0.6615548604846
1776443401404096500,4.689096435546875,0.7593395274102688,-0.16552691801544278,-1.2125088270902633
1776443401429112600,4.714112548828125,1.2317629781365393,0.7437083161015063,-0.6687582159921527
1776443401454128600,4.739128662109375,0.5208575190275907,0.8305508063174784,-0.763266637726128
1776443401479143700,4.764143798828125,1.773165857064724,0.9071241967797279,0.44034182068035005
1776443401504159700,4.78915966796875,0.6153215170979499,0.9520368860218673,0.854293939346075
1776443401529175800,4.81417578125,1.2107733815997839,0.9201206026054918,0.4593285529620945
1776443401554191600,4.839191650390625,1.0230407327234745,0.4400285900127142,-0.2419781068701297
1776443401579207700,4.864207763671875,0.6247194600403309,0.08901577913444489,0.8680326149065047
1776443401604223700,4.8892236328125,1.1599977186083792,-0.24968890044316647,1.603514369932562
1776443401629238500,4.914238525390625,-0.4219651831209659,0.19962460059151052,1.308042207957804
1776443401654254600,4.939254638671875,-0.20198095445930955,0.7358546069264411,0.08011851572319864
1776443401679270700,4.964270751953125,-0.17920213641822336,-0.10441044174097477,1.0571529918141662
1776443401704286500,4.989286376953125,-0.35631285351514813,0.7212156945906579,0.8325126809749752
1776443401729302500,5.014302490234375,-0.412272641146183,-0.7675032523825764,1.5965484764426945
1776443401754317800,5.03931787109375,-0.43630818125009535,-1.8594813277319073,0.438829370290786
1776443401779333600,5.064333740234375,-0.8238321655869484,-1.0578913890913129,-0.305080532797426
1776443401804349700,5.089349609375,-0.5974924304187298,-0.4451462983526289,0.2287127479098737
1776443401829365800,5.11436572265625,-1.5054209293186664,0.332390710657835,0.35494945620745416
1776443401854381800,5.1393818359375,-0.03253507290184498,-0.4227468350179493,-0.08918459636270999
1776443401879397600,5.164397705078125,-1.0332605134427546,-0.8692544848516582,-0.8793918479844928
1776443401904412700,5.18941259765625,-0.8571651108682156,-1.2988348191514612,-1.1451356650412081
1776443401929428500,5.214428466796875,-0.87925711568892,-0.9493006659910083,-1.1270718928232788
1776443401954444500,5.239444580078125,-0.5631921014100313,-0.23739377475455403,-0.6391998208135367
1776443401979460600,5.264460693359375,-0.22022622072398662,-0.8189150213204324,-0.46265492090582844
1776443402004476700,5.2894765625,0.09003098405897617,-0.6415629697483033,0.21471447156518697
1776443402029492700,5.31449267578125,0.21404548626244066,0.38699378645028915,0.20695552800148725
1776443402054507800,5.3395078125,0.3166378457307815,0.3250756018714979,-0.47110973777920007
1776443402079523800,5.36452392578125,0.6119061556965112,0.33958957265336065,-0.1824716596081853
1776443402104540000,5.389539794921875,0.5768377649247646,0.37834571202713996,-0.012591478286683559
1776443402129555700,5.4145556640625,0.6796504891455173,0.4659874628620222,0.28589959311783314
1776443402154571800,5.43957177734375,0.47244332447052,0.5421090909687802,0.5538277684763073
1776443402179586800,5.4645869140625,0.32426644091308116,0.5797833533899859,0.1554188175097108
1776443402204602600,5.4896025390625,0.335531346771121,0.010958216812333558,-0.4041033632159233
1776443402229618700,5.51461865234375,0.052063364714384074,-0.1448367519498337,-0.2627446352407336
1776443402254634800,5.539634765625,0.11257131716907023,0.38554413563124834,-0.30776743379384275
1776443402279650800,5.56465087890625,0.039244215151667594,-0.7382817610081285,-0.7174152793943882
1776443402304667000,5.5896669921875,-0.2678226691573858,-0.4343655958149582,-0.38395810854882
1776443402329682000,5.614681884765625,-0.520778608572483,-0.35647878466658295,-0.20302023437917233
1776443402354697700,5.63969775390625,-0.5322206245630979,-0.6459870698008686,-0.43559740263223645
1776443402379713800,5.6647138671875,-0.29162849215865133,-0.6990340387251228,-0.16073182922601698
1776443402404729900,5.689729736328125,-0.6230103180348873,-0.2682027910487726,0.06134469553977251
1776443402429745700,5.71474560546875,-0.33357729009389875,-0.22038521067798136,0.42062808929830786
1776443402454761700,5.73976171875,-0.31296061852276325,0.2146728243805468,2.4902812767297027
1776443402479776800,5.76477685546875,-0.04260813862681389,0.163315178516414,2.1096511435598133
1776443402504792600,5.78979248046875,1.520173677292466,-0.4092212907515466,-0.24907763667702673
1776443402529808600,5.81480859375,0.7497633052915335,-0.2386830473801121,0.031581425438821316
1776443402554824700,5.83982470703125,0.24926234559416768,-0.2782989271220751,0.718432055221498
1776443402579840800,5.8648408203125,-0.2083937441110611,0.04227183761084452,0.3212330645665526
1776443402604856800,5.88985693359375,-0.06526011541783809,0.05757594499024562,0.1293956107199192
1776443402629871900,5.914871826171875,0.22245266460180282,0.21318865023739636,0.33537498716562986
1776443402654887700,5.9398876953125,0.15395955861210822,0.7109153959810733,0.735938778078556
1776443402679903700,5.96490380859375,1.044390394744277,0.3964452496781945,0.8940525337606668
1776443402704919800,5.989919921875,0.03426642673909664,0.06361684172283857,0.5042611890137195
1776443402729936000,6.014935791015625,0.040246670192480086,-0.2926585293261334,0.17269991491734982
1776443402754951700,6.03995166015625,0.3025578824520111,-0.46614510110914703,-0.5798138581261039
1776443402779966700,6.064966796875,1.010122798961401,-0.033324396648630496,0.25470658247470856
1776443402804982800,6.089982666015625,-0.3775421040266752,-0.6097364835072309,0.16406155817061663
1776443402829998800,6.114998779296875,-0.022895137897133825,-0.5227645216926932,0.6786559251502156
1776443402855015000,6.140014892578125,-0.13617138846516608,-0.5146458779711276,0.41098786203265186
1776443402880031000,6.165031005859375,0.3288561067909002,0.03102276864275336,-0.36695845843106506
1776443402905046800,6.190046875,-0.13102584227025507,0.07125862518027425,-0.27913258320093154
1776443402930061800,6.215061767578125,0.081319854336977,0.13499774157591163,0.2512231242731213
1776443402955078000,6.240077880859375,-0.5242921696513891,0.031073695112392306,0.29566286224126814
1776443402980093700,6.26509375,-0.06923954044282436,-0.18701470986530183,0.1786737286299467
1776443403005109800,6.29010986328125,-0.7616244234770536,-0.20111878467202185,-0.04408844031244516
1776443403030125800,6.315125732421875,0.4377092802196741,0.055969213046506046,0.788729580284655
1776443403055143000,6.340142822265625,-0.4009066130012274,-0.24682686207555232,0.6834598183006048
1776443403080158000,6.365157958984375,0.14482991121709346,0.22532529742866753,0.19993658915013074
1776443403105173800,6.390173828125,-0.17851999937295912,0.029793665239214895,0.19973346779346465
1776443403130189800,6.41518994140625,0.29688685107827184,-0.2967588407844305,0.170166889308393
1776443403155206000,6.440205810546875,0.23743922133147716,-0.4392567288573831,-0.07583353188037872
1776443403180221700,6.4652216796875,0.3897819923967123,-0.29878512244764716,-0.5465256287693977
1776443403205237800,6.49023779296875,0.32722003002166744,-0.5673635784083977,-0.20325550443977117
1776443403230253000,6.515253173828125,0.4169032235562801,-0.17880330982636658,-0.6718459528744221
1776443403255268900,6.540268798828125,0.5312561634451151,0.2787494656348601,-1.105194992057979
1776443403280285000,6.565284912109375,-0.3139507986038923,-0.007450827462598681,-0.6209510474175215
1776443403305301000,6.590301025390625,-0.10194880086779594,-0.22077852084450422,-0.4246323565036058
1776443403330316800,6.61531689453125,-0.3785919053405523,-0.016771131741639692,-0.5112833427354693
1776443403355332900,6.640332763671875,-0.42994273787140846,0.08055693453992717,-0.49998424234688277
1776443403380348000,6.665347900390625,-0.19271920511722562,0.5746829980436712,-0.772856596109271
1776443403405363700,6.69036376953125,-0.4476812236577272,0.6065098130783065,-0.812542125287652
1776443403430379800,6.7153798828125,-0.03199029850065708,0.11407254291172139,-0.32961393942087885
1776443403455395800,6.740395751953125,-0.523585482686758,-0.1887757281884551,-0.2570624979510903
1776443403480412000,6.765411865234375,-0.3903168299257755,-0.12673101288685573,-0.36389527146816253
1776443403505427700,6.790427734375,-0.3621475510179996,0.07484234715225174,-0.3584107025772333
1776443403530443000,6.815443115234375,-0.11672025354206561,-0.32754853132367134,1.4851041174769402
1776443403555458800,6.840458740234375,0.41498423819243907,0.15352113066222517,-0.36296003644466396
1776443403580475000,6.865474853515625,0.4960048173218965,-0.26326471359208226,-0.38407179805636404
1776443403605491000,6.890490966796875,0.05274900889098644,-0.08453688015472144,-0.255317407849431
1776443403630507000,6.915507080078125,0.100913612601161,0.08100158216804265,-0.7303662386432289
1776443403655522800,6.940522705078125,0.5587579183548689,-2.17052661415264,-1.7019382115446031
1776443403680537900,6.965537841796875,0.5246756160110235,0.10875449882727116,-0.08301131455525755
1776443403705554000,6.990553955078125,-1.1165046138405799,-0.8066602276422082,1.6373757230021058
1776443403730569700,7.01556982421875,-0.40617900044620037,0.0041532106893137095,1.7479035516448318
1776443403755585800,7.040585693359375,-0.3010504004985094,0.4146671715999022,0.9892851781159638
1776443403780601900,7.065601806640625,0.29052666839659214,0.06685691962260752,0.5480328184619545
1776443403805618000,7.090617919921875,0.3188181123793125,-0.8997706191465258,-0.053661739821732043
1776443403830634000,7.115634033203125,0.674291007938981,-0.9169732444904745,-0.3347244143024087
1776443403855649000,7.14064892578125,0.28074586361646653,-0.5206090241592377,0.5478020784460008
1776443403880664800,7.165664794921875,0.14880875172019004,-0.6081725221261381,0.42487259500026703
1776443403905681000,7.190680908203125,0.4975181444942951,-0.5267848997825756,-0.6320549174949527
1776443403930697000,7.215697021484375,0.010872107148170471,-0.4474342266267165,0.2129068376213312
1776443403955712800,7.240712646484375,0.03468552893400192,-0.39368641595672815,1.2491802691444753
1776443403980728800,7.265728759765625,-0.4814350246995687,-0.2727491292415187,0.40534094218686223
1776443404005743900,7.290743896484375,-0.33159809897542,0.6233597890596836,-0.041752398580312725
1776443404030760000,7.315760009765625,-0.13443009775578976,0.35407892045062034,0.25355624339580535
1776443404055775200,7.340775146484375,-0.6592974369466305,0.2527033528935164,0.8134656698733568
1776443404080791300,7.365791259765625,-0.4684995552808046,0.7114201306328177,-0.24135354523099958
1776443404105807400,7.390807373046875,-0.5035895733624697,1.2811023247145115,-0.11137333955615758
1776443404130823200,7.4158232421875,-0.4342547558516264,0.6717652888536453,1.8790110808491707
1776443404155838200,7.440838134765625,-0.8095078721582889,-0.19425306362099945,0.5951601880788803
1776443404180854000,7.46585400390625,0.2641588859528303,0.23628292743582277,-0.6444447357296943
1776443404205870000,7.4908701171875,0.10578969420492648,0.27014680125601587,-0.5462868515774607
1776443404230886100,7.51588623046875,0.10729717615842818,0.27255068405997007,-0.830906634017825
1776443404255902200,7.540902099609375,0.14881751954853534,-0.16487875630501655,-1.0137024110138415
1776443404280918000,7.56591796875,-0.04822831659615039,-1.0569348190188408,-0.3888007993396371
1776443404305933300,7.590933349609375,-0.6759148097485304,0.5024397457402199,0.284074496582523
1776443404330949400,7.615949462890625,1.0362024121135474,0.1771008532900363,0.17474296505227685
1776443404355965200,7.640965087890625,-0.8949877687841653,0.15762122292481362,0.03631780631095171
1776443404380981200,7.665981201171875,0.3939467108607292,-0.1617229591552168,-0.03804185362458229
1776443404405997300,7.690997314453125,-0.45846389895677564,-0.14825228688120842,-0.39142216081917286
1776443404431013000,7.71601318359375,0.3438274659514427,-0.18061967506594956,-0.4526701179862022
1776443404456029200,7.741029296875,0.3461293131530285,-0.2712411723639816,-0.1791969487864524
1776443404481044200,7.766044189453125,-0.6199129365414381,-0.03860167946442961,0.19925364838726817
1776443404506060000,7.79106005859375,1.3338462190389633,0.24426234534978866,-0.27821123057231306
1776443404531076000,7.816076171875,-0.07300561497807502,-1.0409981219574809,0.08300466561876237
1776443404556092200,7.841092041015625,-0.11068272694349288,-0.6935322264384478,0.655141559376195
1776443404581108000,7.86610791015625,0.7534668359845876,-1.0214177346315234,0.10966646257303654
1776443404606124300,7.891124267578125,-1.0089619384884834,-1.0729099483944475,0.7607898723490536
1776443404631139300,7.916139404296875,0.822305394411087,-0.005075988090038299,1.3173051263436675
1776443404656155100,7.941155029296875,1.7912322596311567,0.12832798148840666,1.1364761193759738
1776443404681171200,7.966171142578125,-1.5771294902235269,-0.31964334768969566,1.341015964537859
1776443404706187300,7.991187255859375,-0.31009821482896804,0.6097987716211005,1.0583231315720827
1776443404731203000,8.016203125,-0.3432277464926243,0.8064122442305087,-0.19003069668561218
1776443404756219100,8.04121923828125,-0.40764264325797556,-0.5248237192448229,-0.7854179715186357
1776443404781235200,8.066235107421875,-0.18699264416396616,-1.013955216731131,-0.928499358567968
1776443404806250000,8.09125,-0.014759762236475944,0.009474931439282954,-1.3007431369908153
1776443404831266000,8.11626611328125,0.6014326924771071,0.501178932024166,-0.7697557074844836
1776443404856282000,8.1412822265625,0.6218816062659025,1.3031056283384561,-1.0470441971886904
1776443404881298200,8.166298095703125,-0.9322253202885389,1.6731484626509248,-0.24361644866168497
1776443404906314200,8.191314208984375,-0.6737181764870882,1.0885394061375409,-0.5730939752865583
1776443404931330300,8.216330322265625,-0.9701134446561336,0.46933498319163913,0.728044225436449
1776443404956345000,8.241344970703125,-0.5248550642311572,-0.33289084219969806,0.8747363503288477
1776443404981361200,8.266361083984375,0.36350539536774157,-0.6855605169069021,0.7762243189767003
1776443405006377200,8.291377197265625,-0.1996697549074888,-0.7159038519181311,0.430495366785489
1776443405031393300,8.316393310546875,0.3607937983214855,-0.811903388992697,0.45445729366391896
1776443405056408600,8.34140869140625,0.5247936894327402,-0.11429229574277996,-0.28346812818720935
1776443405081424600,8.366424560546875,0.5444061523973941,-0.7338359605804086,0.17303849922195075
1776443405106440700,8.391440673828125,0.11012217045128345,-0.7417151695229113,1.1389119682207702
1776443405131455700,8.416455810546875,0.5003752874910831,-0.9269566591706127,0.4889197544317692
1776443405156471800,8.441471923828125,-0.5233166026175022,-0.726397335012257,-1.0322054514318704
1776443405181487900,8.46648779296875,1.4378537060022354,0.5908296480612829,-0.24941242158934473
1776443405206503700,8.491503662109375,0.4987199214994907,0.3165640133095905,-0.13728366055600344
1776443405231519700,8.516519775390625,0.19628537316620348,0.4600704573705792,-1.0642748795833439
1776443405256535800,8.541535888671875,0.2390665302723646,1.5349734792783856,-0.7296164431892335
1776443405281551600,8.566551513671875,-0.32474516434073447,0.5442509618356823,-0.9825993436764925
1776443405306566700,8.591566650390625,-0.870952228680253,0.22283234810177235,-0.49311705999113614
1776443405331582700,8.616582763671875,-0.7146528289437294,0.1662000680366531,0.6225112094063311
1776443405356598500,8.6415986328125,-0.6386334191024303,0.43466647845767437,1.7923533726155756
1776443405381614600,8.666614501953125,0.02333060670495033,-0.3953602309204638,1.7619832226626575
1776443405406630700,8.691630615234375,0.20350947920083998,-0.543228121593967,0.8045556565783918
1776443405431646500,8.716646484375,0.21427461884319782,-1.406398391161114,-0.012212415841221808
1776443405456661800,8.741661865234375,0.83889821729362,-1.4652197057031093,-0.15337474446147678
1776443405481677800,8.766677734375,0.46301381734609603,-0.16109496344998478,0.36164340088814495
1776443405506693600,8.791693603515625,0.1940367174565792,0.3890164148516953,0.6770899179425091
1776443405531709700,8.816709716796876,-0.0030465280890464783,0.17547358088176696,0.7722077037464827
1776443405556725800,8.841725830078126,-0.382837287825346,-0.002600610952451825,0.9033915861226618
1776443405581741800,8.866741943359376,-0.414141357627511,0.05469915657807141,1.0619635339010507
1776443405606757600,8.891757568359376,-0.20376959144175052,-0.30583737904671576,0.969990548928827
1776443405631772700,8.916772705078126,0.18591595484316348,0.23114545494951305,0.5405228081580251
1776443405656788500,8.94178857421875,0.32513504044115543,0.05419391046967357,0.1412509567517787
1776443405681804500,8.966804443359376,0.2877203788042068,-0.20494409684753045,-0.297736015253514
1776443405706820600,8.991820556640626,0.5221089803934097,-0.10757342668338678,-0.3128362614907324
1776443405731836700,9.016836669921876,0.21669044781327246,0.44326377254165705,-0.471298246088624
1776443405756852700,9.041852783203124,0.04702887767851353,0.4252824179101735,-0.6443851144969462
1776443405781868800,9.066868896484374,-0.16695932543873787,0.6770840727236122,-0.5783138288266957
1776443405806883600,9.091883544921876,-0.3680126436591148,0.572332818188332,-0.516773610714823
1776443405831899600,9.116899658203126,-0.3862012113004923,0.40006329404488206,-0.3644797933578491
1776443405856915700,9.141915771484374,-0.3920785789012909,0.05430109717119485,-0.35226796203851696
1776443405881931800,9.166931884765624,-0.3723831138283014,0.14521843561064451,-0.0721872843325138
1776443405906947600,9.191947509765624,-0.2029652893215418,-0.05782152638230473,0.2413774375632405
1776443405931963600,9.216963623046874,1.1076859320908785,0.5494600382534787,-1.1181479971334338
1776443405956979700,9.241979736328124,0.21807576469182968,0.03574579684296623,0.34329058259576556
1776443405981994800,9.266994873046874,0.6749135237514973,-1.1320376985371112,-0.5183620489500462
1776443406007010800,9.2920107421875,0.5615770674288273,-0.5990498524611816,-0.6512307426080107
1776443406032027000,9.31702685546875,-0.6512748740106821,0.8778187534488737,-0.8690667071945964
1776443406057043500,9.34204345703125,0.1754939295500517,0.13967205352988094,-0.45769233006238935
1776443406082059500,9.3670595703125,-0.8088140446752309,0.15811291543189435,-0.06751176680214703
1776443406107075600,9.39207568359375,-0.34736265434026714,-0.30577994977105405,-0.10091412405781447
1776443406132091600,9.417091552734375,0.24958733976483344,-0.3228322433914989,-0.08199578083716333
1776443406157106700,9.442106689453125,0.3293997121483087,-0.21349844683893024,-0.7396979114163666
1776443406182122800,9.467122802734375,-0.14443711250722407,-0.5494415162160993,-0.2919082589481026
1776443406207138600,9.492138671875,0.31855566205084324,-0.6258893806025385,0.10467157689519226
1776443406232154600,9.517154541015625,-0.5884101292967796,-0.4145322566412389,0.6684875823572277
1776443406257170700,9.542170654296875,-0.047431028738617896,-0.617109131167084,-0.5495455611124634
1776443406282186800,9.567186767578125,0.03774842363595962,-0.09532755609713495,0.00981565689779818
1776443406307202600,9.59220263671875,0.9264724558502435,-0.11447247461527585,0.20572510942369698
1776443406332217600,9.617217529296875,0.7653115875571965,0.04097410768419504,-0.2733683205857873
1776443406357233700,9.642233642578125,0.598780716663599,0.15558613690063355,-0.4661803916182369
1776443406382249500,9.66724951171875,0.7411977215200662,0.1244182606987655,-0.24557854251489042
1776443406407265500,9.692265625,1.436554313841462,0.18784246592633425,-0.26042868644855915
1776443406432281900,9.71728173828125,0.5130547363221645,-0.11375504706092178,0.04945990421772003
1776443406457297700,9.742297607421875,-0.011839490875601768,-0.36799671543762086,0.2923735383722931
1776443406482313700,9.767313720703125,0.7122878533780574,-0.1789160129532218,-0.10624708258360624
1776443406507328800,9.792328857421875,0.10886369482278824,0.23456213152520358,0.17842472230494022
1776443406532344600,9.817344482421875,-0.6571966652750969,-0.015999167838320134,0.7200769728843123
1776443406557360600,9.842360595703125,-0.864025644287467,0.17293291995562612,0.03250679665543139
1776443406582376700,9.867376708984375,-0.5237146620243788,0.5461208473607897,-0.3605102321397513
1776443406607392500,9.892392578125,-0.5034007727921008,0.5643883254572749,0.6303577581882477
1776443406632408600,9.91740869140625,-1.3901473674535751,-0.052491380868107076,1.8766247702345251
1776443406657424600,9.942424560546876,-0.8237678681790829,0.23598902252316473,0.7369280813768505
1776443406682439700,9.967439697265625,-0.5845137063801288,0.6180475810609758,0.41635676865465937
1776443406707455700,9.992455810546875,-0.4408487472891807,0.603500000270456,1.306128775551915
1776443406732471800,10.017471923828126,-0.27335341527760026,0.27002142131067813,1.1862187860578297
1776443406757487600,10.042487548828126,-0.49120530808567997,0.21370792487114668,0.45516091188862917
1776443406782503700,10.067503662109376,-0.6053174249559641,0.10135931054204701,0.9688734545323997
1776443406807519700,10.092519775390626,-0.30561025575995443,-0.03464030155278742,0.9959425901785492
1776443406832535800,10.117535888671876,0.03531038283407688,0.1738265077944845,0.4979050979852676
1776443406857550600,10.142550537109376,0.21951719567179678,0.46571036295369267,-0.1798458411492407
1776443406882566700,10.167566650390626,0.13885785107016563,0.09226363848187029,0.3499303859364241
1776443406907582700,10.192582763671876,-0.23917817395329474,-0.4493019567273557,-1.182517812648043
1776443406932598500,10.2175986328125,-0.1845294689208269,-0.564439982579276,-2.371167406049371
1776443406957614600,10.242614501953126,0.491548422434926,-0.9734083945482969,-1.0757333352521061
1776443406982630700,10.267630615234374,0.1481184313684702,-0.20249014609046279,-0.09896810455657541
1776443407007646500,10.292646484375,0.6675298432409763,0.46705374038666486,-0.3216067201845348
1776443407032662500,10.31766259765625,0.3143628865361214,1.094656427713111,0.3977182652886957
1776443407057677300,10.34267724609375,-0.6238152046769857,0.25119820902757345,0.1839960926964879
1776443407082693400,10.367693359375,0.19707506223917007,-0.6542035478737205,-1.4682713483586907
1776443407107709400,10.39270947265625,1.0078104303658009,0.2071362183306366,-0.39395321366675196
1776443407132725200,10.417725341796874,0.20475684891343116,-0.30414478631727393,0.5003930423434824
1776443407157741300,10.4427412109375,-0.05531856711804867,0.5480816260397434,0.6475780653193592
1776443407182757400,10.46775732421875,0.689942166057229,0.010757613923028111,-0.45425008065402506
1776443407207773200,10.492773193359374,0.8261936340212821,0.31634708262328054,0.23133564375936982
1776443407232788200,10.517788330078124,0.5114473011255264,-0.012219539701752364,-0.03209580470174551
1776443407257804300,10.54280419921875,0.09875380421876907,-0.41490130914933976,-0.801665341964364
1776443407282820400,10.5678203125,-0.26034897227585313,-0.3652225014839321,1.0256614366158843
1776443407307836400,10.59283642578125,-0.5241127214312553,-0.5526341747775674,0.9229606483370065
1776443407332852500,10.6178525390625,0.10338438662886619,-0.23176808035988358,-0.099333942194283
1776443407357868500,10.64286865234375,-0.42777240809500217,0.31820297615565357,-0.3947236865825951
1776443407382884400,10.66788427734375,-0.667472560095787,-0.42027284611985083,-0.2910403170071542
1776443407407899400,10.6928994140625,-0.14836509960591793,-0.4519601430859416,-0.42585444564446806
1776443407432915200,10.717915283203125,-0.23955519057214258,0.10037534100599586,-0.6612905104599893
1776443407457931300,10.74293115234375,-0.3685188396155834,-0.7467411079261451,-1.6935722419984638
1776443407482947300,10.767947265625,0.303885916185379,-1.1828349888384342,-0.6861908506996929
1776443407507963400,10.79296337890625,-0.6599573621600866,-1.4280831303551793,0.034790450613200664
1776443407532979200,10.817979248046875,-0.4904840080738067,-0.9067202921539544,0.8118293008431792
1776443407557995300,10.842995361328125,0.11994213819801806,-0.49778633044380693,0.24014351185411215
1776443407583011300,10.86801123046875,0.3840916718006134,0.0614556496675359,0.08058350288644432
1776443407608026400,10.8930263671875,0.006202361771464347,0.6039712345113978,-0.2329023085542023
1776443407633042400,10.91804248046875,-0.03603577449917793,-0.5454642831481993,0.027871903396397828
1776443407658058500,10.94305859375,-0.10725801319181918,0.25683047929350283,-0.3525879877731204
1776443407683074300,10.96807421875,0.10688391918241977,-0.1746258049460128,-0.2775309932231903
1776443407708090400,10.99309033203125,0.5832125606536865,0.22583511011432855,-0.4891074590235948
1776443407733106400,11.0181064453125,0.22488310661911964,-0.12912619179454632,-0.07063508645445107
1776443407758122200,11.043122314453125,0.0720043289810419,-0.1542354164114222,-0.07359554369524121
1776443407783137300,11.06813720703125,-0.2925438534379005,-1.1039711493514477,0.2747805254712701
1776443407808153300,11.0931533203125,-0.40871874805688857,-0.07038862827955744,0.19037410329580307
1776443407833169200,11.118169189453125,-0.1296089612096548,-0.36748967923093584,-0.050415451376885176
1776443407858185200,11.143185302734375,0.7347714878648519,-0.3972081238094717,0.22870134973302483
1776443407883201300,11.168201171875,-0.5995914485245942,0.613019962157309,0.8759443378791213
1776443407908217300,11.19321728515625,0.047886371290683745,-0.3213167973272502,0.0354671808309853
1776443407933233200,11.218233154296875,0.47161213434338567,-0.11437980962945148,0.37862799956724047
1776443407958249200,11.243249267578125,-0.3876420577585697,0.6395443964675068,-0.16587379522435367
1776443407983264300,11.26826416015625,0.6698562403619289,-0.003408767263870686,-0.0740424106799066
1776443408008280300,11.2932802734375,0.5826899980843067,0.4460211814910173,0.18362199868708848
1776443408033296400,11.31829638671875,0.2045890911310911,1.5049170714497566,0.24865933819971978
1776443408058312400,11.3433125,0.4903121586382389,1.1949657177455724,0.19928652774356304
1776443408083328300,11.368328369140626,0.3660620941132307,-0.08072554170563817,0.12761734900102017
1776443408108344300,11.39334423828125,-0.10228782356381416,-0.561018995154649,0.204071277802065
1776443408133360400,11.4183603515625,-0.2686719794631004,-0.5377271130248904,0.5924613043837249
1776443408158376200,11.443376220703126,0.010540683236718177,0.24011918113045394,0.6681047935847193
1776443408183391200,11.46839111328125,-0.5941226617246866,-0.1001628672990948,0.7662968722674995
1776443408208407300,11.4934072265625,-0.10607143375575542,-0.6366452409598976,0.7228491410113871
1776443408233423400,11.51842333984375,-0.3946533978253603,-0.24541677608191967,-0.004786795885115862
1776443408258439400,11.543439453125,-0.5719979236781597,-0.1613617976926267,0.2764629256002605
1776443408283455500,11.56845556640625,-0.15249533127844334,-0.016576164008677004,1.4798806837402283
1776443408308471300,11.59347119140625,-0.27981530476808547,1.1233301490116865,1.1053485751844943
1776443408333487400,11.6184873046875,0.15928747563660145,-1.0234872343819588,0.022082652470469474
1776443408358503400,11.64350341796875,-0.5683078369885682,-1.486608530690521,-0.8106289851427078
1776443408383518200,11.668518310546874,-0.47970016373097896,-0.7091936136897653,-0.865983792617917
1776443408408534300,11.6935341796875,-0.2779156086266041,-0.16762765315435826,-1.2667824152000247
1776443408433550300,11.71855029296875,-0.2580781047344208,0.4698006279420107,-1.0976190038457512
1776443408458566400,11.74356640625,0.16547756244838238,0.00007971417270600796,-0.7603843602880835
1776443408483582200,11.768582275390624,-0.1948468647956848,-0.7627804616443813,-0.7006403779432178
1776443408508598300,11.793598388671874,-0.3492828087478876,-0.2924194964058697,-1.6938319158479571
1776443408533614300,11.8186142578125,-0.5050719208747149,-1.5557790975503623,-1.527463103648275
1776443408558630100,11.843630126953125,-0.6972434289813041,-0.6709224813539535,0.17173033923283218
1776443408583645400,11.8686455078125,-0.6686287443935871,0.1802177797341719,0.7864343089543282
1776443408608661500,11.89366162109375,0.3876017257481813,-0.9817243874728679,0.8325554241381585
1776443408633677300,11.91867724609375,0.02946808654665947,0.6303736864097416,1.3435405145794153
1776443408658693400,11.943693359375,0.4279793288439512,0.5811400652285665,0.8295486435376107
1776443408683709400,11.96870947265625,0.22100597292482851,-0.023200550584495067,-0.22733853694722056
1776443408708725200,11.993725341796875,0.28361469705104825,0.12309293037913739,-0.3374647990517318
1776443408733741300,12.0187412109375,0.03137596599459648,-0.57571329093948,-0.35906843583360315
1776443408758757400,12.04375732421875,0.6198205820828676,-0.3613477058771997,0.23177228161096572
1776443408783772200,12.068772216796875,-0.3674000647187233,0.45353177631683644,1.9108426816567778
1776443408808788200,12.093788330078125,0.3270926042497158,-0.28274923932813106,2.4365039477042854
1776443408833804300,12.11880419921875,0.7971230223596095,-0.1668029658332467,1.6922633513569831
1776443408858820000,12.143820068359375,-0.08199965329468249,-0.16678126545809208,0.07566270535811781
1776443408883836200,12.168836181640625,-0.010007599273324012,-0.24018998134434222,-0.07839432227909565
1776443408908852200,12.193852294921875,0.009341244319081305,-0.39481045155059546,-0.252746534448117
1776443408933868300,12.218868408203125,0.24747312408983707,-0.6346347779203206,-0.8708473070010543
1776443408958884400,12.24388427734375,0.0822521667510271,-0.2471735931539908,-1.1174854415714741
1776443408983899400,12.2688994140625,0.5993453648090362,0.0562382757788524,-1.273124769964069
1776443409008915500,12.29391552734375,0.48858372741043565,-0.19314678287953138,-0.8199518170222639
1776443409033931300,12.31893115234375,0.15171733264327047,0.36808223829660563,-0.3527824874319136
1776443409058946800,12.34394677734375,0.399575656658411,0.2673292596172541,-0.2968602553322911
1776443409083962600,12.368962646484375,0.20254443356096744,0.5608597860049456,-0.023778496602922677
1776443409108978700,12.393978759765625,0.15885609848201274,1.1272134932510554,-0.09914309579730034
1776443409133994800,12.418994873046875,0.10470131444633006,0.40681433920767157,0.04207125527113676
1776443409159010800,12.4440107421875,0.3092921591430902,0.2770767101170495,1.5650094288408756
1776443409184025900,12.46902587890625,-0.85689564627707,-0.5029550748512148,1.2985545409053563
1776443409209042000,12.4940419921875,-0.11682663652598857,-0.5270954270364716,0.6717445383265614
1776443409234057700,12.5190576171875,0.3918891938090324,0.3176095403071493,0.31677973841950297
1776443409259073800,12.54407373046875,0.6906687267661095,0.739767688716948,0.042771074103564025
1776443409284089900,12.56908984375,-0.4972977797418833,-0.37847266287505626,0.9450216734975576
1776443409309106000,12.59410595703125,-0.3427162898391485,0.02793858455759473,0.16565087318867444
1776443409334121700,12.619121826171876,0.07353226920068263,0.48672447287719695,1.1466627284780144
1776443409359137800,12.6441376953125,-0.8587281224012374,-0.288995805567503,1.6057067654103039
1776443409384152800,12.66915283203125,-0.8330003914266825,-0.33071210992112754,1.180197918333113
1776443409409168600,12.694168701171876,0.014798925203084946,-0.19948705528434366,1.3131602816238999
1776443409434184700,12.719184814453126,0.18623510379493236,-0.14993470527650787,1.0677715625926851
1776443409459200800,12.74420068359375,-0.7185732172578573,-0.34951256238315254,0.29467604316100476
1776443409484216600,12.769216552734376,-0.3413262967854738,0.27624144660299643,-0.672648939820379
1776443409509232600,12.794232666015626,0.8837976817280053,0.3674691113669425,-0.5486515348821878
1776443409534248700,12.819248779296874,1.026186045011878,-0.1839414033671841,-1.3087728603199122
1776443409559264800,12.8442646484375,0.5146300228148698,-0.14734984901561402,-1.2881187793478368
1776443409584280800,12.86928076171875,-0.13670797955989836,0.2898650809490122,-0.40743659929186105
1776443409609296000,12.8942958984375,1.043142440509796,0.08976256064744666,-0.3776004100851714
1776443409634311700,12.919311767578124,-0.07513210561275482,-0.23148378352578727,-0.5136864583544433
1776443409659327700,12.94432763671875,0.05879997949302196,0.27540587256168947,-0.45130876650512214
1776443409684343800,12.96934375,0.18513386455476283,0.42769821034763006,0.6698248223103582
1776443409709359900,12.99435986328125,-1.5580711540102958,-0.062354201375879346,0.7351280462175607
1776443409734375700,13.019375732421874,0.8604027776151895,-0.06575443827342242,0.6445670469351112
1776443409759391700,13.044391845703124,-0.4824164369523525,0.1677737105615437,0.09968816245943307
1776443409784407800,13.06940771484375,0.03804711432158947,0.60213105000481,-0.053929158586263654
1776443409809422800,13.0944228515625,-0.32917350217700003,0.012684344201907515,0.73742346367836
1776443409834439000,13.11943896484375,-0.027118893072009084,-0.3653147098120302,0.8925190405830741
1776443409859455000,13.144455078125,-0.05610182645022869,0.4739760869957506,0.38373306762129067
1776443409884470800,13.169470703125,-0.06407178241610527,0.3739744746729731,-0.08295724628046154
1776443409909486800,13.19448681640625,-0.08592997848093509,0.2860655973345041,0.3447024952203035
1776443409934503000,13.2195029296875,-0.12754501441717148,0.12198036602735518,0.019885434687137604
1776443409959518700,13.244518798828125,-0.2768734060972929,0.14564984929785132,-0.2908181986890733
1776443409984534800,13.26953466796875,0.26992987056970597,0.039123365250974894,-0.45486631285622714
1776443410009550800,13.29455078125,-0.575628389135003,0.6957777403429151,-0.2196247476994991
1776443410034565600,13.319565673828125,0.23345745821893213,-0.11307327534183859,-0.0010933481946587562
1776443410059582700,13.344582763671875,-0.3549813126504421,-0.5554584384180605,-0.10673311253488063
1776443410084598500,13.3695986328125,-0.04145020076334476,-0.23413740330711005,-0.13398381529301404
1776443410109614600,13.394614501953125,0.006452537140250206,0.17620923821255563,-0.1345879186660051
1776443410134630700,13.419630615234375,-0.08180676107108592,-0.4877218498840928,-0.037432489554584024
1776443410159646700,13.444646728515625,0.4898924719214439,-0.565751430504024,-0.06116290923207998
1776443410184662500,13.46966259765625,0.20347733049690722,-0.6066922204405069,-0.00497574258595705
1776443410209678600,13.4946787109375,0.5573194099843501,-0.5088787658117712,0.13861907387822867
1776443410234694700,13.519694580078125,0.5765355671077966,-0.5886869004115461,-0.03279021670669317
1776443410259709700,13.544709716796875,0.8947720802068709,-0.6110086223348975,-0.2558402626797557
1776443410284725800,13.569725830078125,0.4047241254627704,-0.7678652175627648,-0.19672347232252357
1776443410309741800,13.594741943359375,0.9065373368024825,-0.5289034628391266,-0.2819368269667029
1776443410334757600,13.619757568359375,0.8064274417996407,-0.0460464425124228,-0.5669485313341022
1776443410359773700,13.644773681640626,0.33174832110106944,0.342332112827152,-0.7615978277310729
1776443410384789800,13.669789794921876,0.3646872986286878,0.22137962854281065,-0.6599214140638708
1776443410409805600,13.6948056640625,-0.28569442593455313,0.13862849929369986,-0.5144008902341127
1776443410434821600,13.719821533203126,-0.4451923294514417,0.2085565334573388,0.3909811390534043
1776443410459837700,13.744837646484376,-0.8372662321776151,0.2244851933427155,0.8380294716350734
1776443410484852500,13.7698525390625,-0.4164385286539793,0.2681795928362757,1.2445026327222586
1776443410509868500,13.79486865234375,-0.38432255794703957,0.04160831393450498,1.0915659874171018
1776443410534884600,13.819884521484376,-0.5091659121900797,0.2507793260283768,0.5681418327718973
1776443410559900700,13.844900634765626,-0.15288228476941584,0.5119914179395884,0.3307170783571899
1776443410584916500,13.86991650390625,0.1737894637197256,0.17580811006575822,0.39719343769699333
1776443410609932500,13.8949326171875,0.08499766606688498,0.07401369604207575,0.4992344468928873
1776443410634948600,13.919948486328124,0.12518354598283768,-0.07552651175782084,0.2132686566710472
1776443410659964700,13.944964599609374,-0.475084194368124,-0.19332067814171314,-0.1362261873923242
1776443410684980700,13.969980712890624,0.1949649382174015,-0.6766333332814276,-0.3469118418328464
1776443410709995800,13.994995849609374,-0.2640700386255979,0.015545250058360396,-0.5258361842229962
1776443410735011600,14.020011474609374,-0.42933717319369313,-0.7095907963138073,0.09383519864752889
1776443410760027600,14.045027587890624,-0.6904086145251989,-0.8863141945935785,0.3015669717185199
1776443410785043700,14.070043701171874,0.34493338136672974,1.1397378976508974,0.5983018471054733
1776443410810059500,14.0950595703125,0.07598083139657974,0.3474886188074946,0.4709698909170925
1776443410835075600,14.12007568359375,-0.3167120800107717,-0.25081483573317526,0.3037263417094946
1776443410860091600,14.145091552734375,-0.7052870347052812,0.15940620664544403,0.4805506430804729
1776443410885107700,14.170107666015625,0.3716910399109125,0.3628028731215745,0.050605859382450574
1776443410910123500,14.19512353515625,0.36870880922973154,-0.06328808469250798,-0.1340368606545031
1776443410935138800,14.220138916015625,0.33880583839714523,-0.8907480853877962,-0.470218341897428
1776443410960154600,14.245154541015625,0.4790402385175228,-1.089582266253978,-0.4660916173562407
1776443410985170700,14.270170654296875,0.9701531921446322,-0.8295124762456864,-0.06339037602320313
1776443411010186800,14.295186767578125,0.13394552910923957,-1.1875721003629267,-0.5215248968951404
1776443411035202800,14.320202880859375,0.6665460929006338,-0.39223979734499004,-0.7199126491680741
1776443411060218400,14.34521826171875,0.7205044775813818,0.10611342800026759,0.07956066264472901
1776443411085234400,14.370234375,-0.491626748368144,-0.13820322308633476,0.6604006489481776
1776443411110250500,14.39525048828125,-0.09219956026971339,0.32845198296941813,0.6353612655639648
1776443411135266600,14.4202666015625,-0.5496206721752882,0.7598563908912241,1.4170108244597912
1776443411160282400,14.445282470703125,-0.29157997684180736,0.5759907927066087,1.2830208716869353
1776443411185297400,14.47029736328125,-0.5892991870909929,0.5687688420964404,0.13626030885763465
1776443411210313500,14.4953134765625,-0.010186462971568108,0.6858593537230044,0.49727286449633534
1776443411235329300,14.520329345703125,-0.4506225378066301,-0.23924186857296154,0.92398911460191
1776443411260345300,14.545345458984375,-0.9958271471053362,-0.04443042215052992,0.30426242134757336
1776443411285361400,14.570361328125,0.23305413811504838,0.06650666314652189,-0.1941710844259709
1776443411310377500,14.59537744140625,-0.12306699222028254,-0.10548022639695555,0.04774257890582084
1776443411335393500,14.6203935546875,-0.5478863957285881,0.018802790549583732,-0.04680369062051177
1776443411360409600,14.64540966796875,-0.023449849170446395,0.34853772600162775,-0.11213584836125373
1776443411385425400,14.67042529296875,0.23058453313112257,0.10452902661934495,-0.05529606302529573
1776443411410440400,14.6954404296875,0.07930500738322735,-0.010877495709341019,-0.4749127833239734
1776443411435456500,14.72045654296875,0.3408481578797102,0.16283026280999183,-0.2853742540694773
1776443411460472300,14.745472412109375,0.1597644454985857,0.05737157239140942,0.7653776385307312
1776443411485488400,14.77048828125,-0.16697452300786972,-0.2601649392121471,1.3937350166819988
1776443411510504400,14.79550439453125,-0.6933557738929986,-0.4119769461352378,0.5329154749594629
1776443411535520500,14.8205205078125,0.38556583600640293,0.0364494333339855,0.44541985459700223
1776443411560536300,14.845536376953126,-0.07036942125558852,0.004753624267876148,1.058518727209419
1776443411585552400,14.870552490234376,0.08756897785961627,-0.012202917360514402,0.38274478723630306
1776443411610568400,14.895568359375,0.31212124508917327,0.3108283557344228,0.03484685697555542
1776443411635583500,14.92058349609375,0.39230478887259956,0.5626217541761696,0.05030132347792387
1776443411660599600,14.945599609375,0.28141981735527516,0.47236295271068807,-0.36850627239495515
1776443411685615600,14.97061572265625,-0.013704700225591658,0.3131331986106932,-0.28224808487296105
1776443411710631400,14.99563134765625,0.02276245142817497,0.3811337718430906,0.018123685711622237
1776443411735647500,15.0206474609375,-0.4710848955988884,0.687128350745514,-0.3907340324245393
1776443411760663600,15.04566357421875,0.4650537987411022,0.6401913891341536,-1.2102771225154398
1776443411785679400,15.070679443359374,-0.2287666700541973,0.3367437913008034,-1.5875782573930919
1776443411810695400,15.0956953125,0.07539514046311378,0.31622159308008846,-1.394688810275495
1776443411835711500,15.12071142578125,-0.006259644916653633,0.7758846386935562,-0.7819703152827918
1776443411860727600,15.1457275390625,-0.6266285085320472,0.15600991527065633,-0.6052968205593526
1776443411885742300,15.170742431640624,-0.2961784105479717,-0.05640800632257014,0.6411772583663463
1776443411910758400,15.19575830078125,0.0216109433054924,-0.233708674767334,0.6099917003773152
1776443411935774200,15.220774169921874,-0.08697159648835659,-0.5799845385178923,0.060321928363293406
1776443411960790300,15.245790283203124,0.12223989374637603,-0.03339386342195794,-0.21133177032433448
1776443411985806600,15.270806640625,0.6738280666023493,-0.17374270196855068,0.09356113094650208
1776443412010822700,15.29582275390625,0.4628098192065954,-0.539212748472765,-0.2697770180955529
1776443412035838500,15.32083837890625,0.555600331106782,-1.2112636493347584,-0.26800913164019585
1776443412060854300,15.345854248046875,0.18898937093913554,-0.96142920294106,-0.19127981996387242
1776443412085870300,15.370870361328125,0.334319048371911,0.06382140611791982,-0.8930969135362654
1776443412110885000,15.395885009765625,0.024482699349522588,0.6376812329441308,-1.1868844103597105
1776443412135901200,15.420901123046875,0.07552724241018295,0.3657799892362207,-1.7578662888631225
1776443412160917000,15.4459169921875,0.8868857108712196,0.7200050036266445,-0.9299587635960429
1776443412185933000,15.47093310546875,-0.32552608558535573,0.19830087770707905,1.35730030599311
1776443412210949000,15.49594921875,-0.45012394063472744,0.4888783995080739,1.200480681774765
1776443412235965200,15.520965087890625,0.04448503841459751,-0.009528364389017224,1.105726249390468
1776443412260981000,15.54598095703125,0.2300041028946638,-0.408356381017901,0.5935325138118118
1776443412285997000,15.5709970703125,0.029840426990389822,-1.3093977142199873,1.0070290707297622
1776443412311013000,15.59601318359375,-0.41327158905565736,-0.6068815324675292,0.8782521764300764
1776443412336029000,15.62102880859375,-0.1487362710058689,-0.11736890844283625,0.7666404980733991
1776443412361044200,15.646044189453125,0.003081599402427673,-0.03859740514811128,0.8257464747756719
1776443412386060300,15.671060302734375,-0.0405161347836256,-0.13569206224931404,0.6110004390284419
1776443412411076000,15.696076171875,-0.3120587012469768,0.23480448891371486,0.04913244409533217
1776443412436092200,15.721092041015625,0.36744858003556724,-0.5402336524857208,-0.7542516296867281
1776443412461108200,15.746108154296875,0.04150689938664436,-0.4986710408564657,-0.9802782072525471
1776443412486124000,15.7711240234375,-0.5558633659571409,-0.07240644350852816,-0.8624054226744919
1776443412511140000,15.79614013671875,-0.7120587207973003,0.35074447879828513,-1.0410721370417624
1776443412536156200,15.82115625,-0.7719792287528514,0.18892602337934075,-0.24348306807298212
1776443412561172200,15.846172119140626,-0.3573340132564306,0.9355549031026661,-0.5942276199365034
1776443412586188000,15.87118798828125,-0.43893619166612624,1.4950481499947608,-0.6969559172768145
1776443412611203000,15.896203125,0.47965223293602466,0.23714491456001996,-0.2229554995574057
1776443412636219100,15.92121923828125,0.22021569932997226,-0.47010465238988397,0.2800099505573511
1776443412661235200,15.946235107421876,0.40809623224437236,-0.24925058209113776,-0.194946050853841
1776443412686251300,15.971251220703126,0.14769816012978554,-1.052404482112825,-0.3522892240222543
1776443412711267300,15.996267333984376,0.1324754565566778,-0.7772745586819946,0.27059140321835873
1776443412736283100,16.021283203125,0.7047177103847265,-0.659858358765021,0.7722590686075389
1776443412761299200,16.04629931640625,-1.0050257680833339,-0.02265044242106378,1.6472355843678115
1776443412786315300,16.071315185546876,-0.23054653920829296,-0.8593990074001252,0.7932782565649599
1776443412811331000,16.0963310546875,-0.04730827914178371,-1.380930626296997,0.4755001547578722
1776443412836347100,16.12134716796875,-0.11915420269072055,0.2259508819811046,-0.61768517748937
1776443412861362200,16.146362060546874,-1.229372868129611,2.314011686632037,-0.2950372776888311
1776443412886378000,16.1713779296875,0.317502353605628,-0.44412031630575655,0.19496913946848363
1776443412911394000,16.19639404296875,1.1850853981137275,-0.7537360813800245,-0.16871055302023888
1776443412936410000,16.22141015625,-0.07514613413810729,-0.5330726382825524,-0.8116198228109628
1776443412961426200,16.24642626953125,0.04403904821276664,0.07468406958431005,-0.09998122712187468
1776443412986442000,16.27144189453125,0.44846857464313505,-0.12823087778948247,0.2609745568282902
1776443413011458000,16.2964580078125,0.237092599850893,-0.1819769348938018,0.2921829294373281
1776443413036474000,16.32147412109375,0.042543256697058676,-0.10822773500680923,-0.30133531838711347
1776443413061490400,16.346490478515626,0.5288309821248054,-0.16574949299125,-0.03427250942001119
1776443413086506500,16.371506591796877,0.170034495100379,-0.42585766051486135,-1.0217759734846652
1776443413111521500,16.396521484375,0.336088980653882,0.08416582748577929,-0.7523319867357611
1776443413136537600,16.42153759765625,0.8929653230458497,0.648589288188517,-1.1460944270707667
1776443413161553700,16.4465537109375,0.6740963621497154,-0.2842294496822171,-0.9409495286878198
1776443413186569500,16.471569580078125,0.1419967336177826,-0.38182639374975114,-0.7122031707692891
1776443413211585500,16.49658544921875,0.11278817479014396,0.055199534715106705,-0.0004831164749804884
1776443413236601600,16.5216015625,0.5133481663107872,-0.007969768736208789,0.38632125748358664
1776443413261617700,16.54661767578125,-0.2442120764672756,-0.16640054077850655,0.15936896164128556
1776443413286633500,16.571633544921873,-0.5430354485660791,-0.7625732486344874,-0.0873677014001645
1776443413311649500,16.5966494140625,-0.6316635800898075,-0.49231947987265884,-0.11846404673578217
1776443413336665600,16.62166552734375,-0.5763602105408907,0.02205875100507401,-0.1360293679122813
1776443413361680400,16.646680419921875,-0.29585809255242346,-0.176023250653781,-0.0455590608542785
1776443413386696700,16.67169677734375,0.0863391438037157,0.046436346012307325,-0.023221757769305258
1776443413411712800,16.696712646484375,0.0009720599025487899,0.28169940148163586,-0.1575288501999341
1776443413436728600,16.721728515625,-0.19859248106479643,0.47466991447880863,0.39791502996981143
1776443413461744600,16.74674462890625,0.029191023170948027,0.19004666143972426,0.7182884820323437
1776443413486760700,16.7717607421875,-0.18824410552978516,0.12032034212695435,0.8377178484026342
1776443413511776500,16.796776611328124,-0.20857319233119487,0.10023601473369635,0.724314391258359
1776443413536792600,16.82179248046875,-0.0817728588014841,0.21041511213714256,0.5115906551189721
1776443413561808600,16.84680859375,0.099994159668684,0.05418067652876488,0.7067847259171307
1776443413586824700,16.87182470703125,0.06967968542575836,-0.7986072695679962,0.9167565329998731
1776443413611839500,16.896839599609375,0.028499533775448796,-0.6734687317706645,0.7547163976542651
1776443413636855600,16.92185546875,-0.018528174859285353,-0.037970971212303264,1.1237331037893892
1776443413661871600,16.94687158203125,0.025413258197903632,0.3124614368289709,1.5516940201938152
1776443413686887400,16.971887451171874,0.22872575352191923,0.12711202982738615,0.4630327412422746
1776443413711903500,16.996903564453124,-0.49117900460064406,0.18134524939414112,-1.8000620472967623
1776443413736919600,17.02191943359375,-0.05849076741337776,-0.2781624595271423,-0.4606109939880669
1776443413761935400,17.046935302734376,-0.07070727490782737,0.23613462327262386,0.32971495210994034
1776443413786951400,17.071951416015626,0.11743629285693168,0.4702066879922524,0.5579149281920864
1776443413811967500,17.096967529296876,-0.04190905044674873,1.4524240831464528,-0.5072524797841906
1776443413836983800,17.12198388671875,-0.056115854975581164,0.9541403611071407,-1.4970304098531604
1776443413861998600,17.14699853515625,0.051906712847948074,-0.05411913733356632,-0.8803014371100812
1776443413887014700,17.1720146484375,0.04169277734756469,-0.7329026983182877,-1.0830642626620828
1776443413912030500,17.197030517578124,0.6015431671142578,-0.5920315711969509,-1.5237635184779763
1776443413937046500,17.222046630859374,-0.5725029505908489,-1.728521974826604,-0.13583959922753275
1776443413962062600,17.2470625,-1.4168050727546215,-1.6344412769854069,0.929548429229483
1776443413987078700,17.27207861328125,-0.4401654412001371,0.11026483032498507,0.9983042778085917
1776443414012094500,17.297094482421876,0.04133914160430431,0.47468153185136613,0.08498319915011525
1776443414037110500,17.322110595703126,0.05168167192041874,0.10637701083989813,-0.3479821014128625
1776443414062129400,17.34712939453125,-0.23887305352687835,-0.5228963313788175,-0.2445427697263658
1776443414087145200,17.372145263671875,0.013525252005457877,-1.3032393377207219,-0.6418921286374331
1776443414112161300,17.397161376953125,-0.21331834103167055,-0.41469932030383494,-0.3933519598379731
1776443414137176600,17.422176513671875,0.5194815544992685,-0.09635762979723513,-0.5788360991351306
1776443414162192400,17.4471923828125,1.0970265909105539,-0.2513648342987522,-0.577807925131172
1776443414187208400,17.47220849609375,0.10547288334071636,-0.14939488104507326,-0.0979682067990303
1776443414212224500,17.497224609375,-0.21909633991122243,0.18594821314495055,0.6904388635329902
1776443414237240300,17.522240234375,0.18219664205908775,0.019581739032827318,0.9720723236389458
1776443414262256400,17.54725634765625,0.3060854720562696,-0.20943828472793102,0.03970920231491327
1776443414287272400,17.5722724609375,0.13272797001302242,-0.6645619333460927,0.13664353602156043
1776443414312288300,17.597288330078126,0.2576712774991989,-0.3000440364675596,-0.384696651956439
1776443414337304300,17.62230419921875,0.23216040414571762,-0.27234664938785136,-0.5847988799970597
1776443414362320400,17.6473203125,0.5284767618596553,-0.29183913923464716,-0.4344472827490419
1776443414387336400,17.67233642578125,-0.2290454869955778,0.7489984583988786,0.37429866512604054
1776443414412351500,17.6973515625,0.12947042952179907,0.4855454191604629,0.41389395873770113
1776443414437367600,17.722367431640624,-0.19900924517214297,0.4990129861619323,0.9678954032804816
1776443414462383600,17.747383544921874,-1.0006190575569867,0.15286606428697705,0.985695117734745
1776443414487399400,17.7723994140625,0.16034136860370635,-0.876629397533834,0.6633078416317701
1776443414512415500,17.79741552734375,-0.7038111169338226,-0.07318024089261889,1.1106965120837091
1776443414537431600,17.822431640625,0.18764263250529764,-0.42016361359171567,0.8022237064994872
1776443414562447400,17.847447265625,0.18809446792602538,-0.4482548588272184,1.259840633238107
1776443414587463400,17.87246337890625,-0.9775555773556232,-0.285871463001892,0.34539624963812526
1776443414612479500,17.8974794921875,-0.845088304105401,-0.0005094108268618584,-0.088293565807119
1776443414637495600,17.92249560546875,0.8959101443260907,-0.0307199132386595,-1.123289159414172
1776443414662510300,17.94751025390625,-0.30052433079779145,0.44850225771702823,-0.5240169329065829
1776443414687526400,17.9725263671875,0.33542905544042584,-0.4738427429396659,0.12321765273734926
1776443414712542200,17.997542236328126,0.502387796357274,-0.5651456466306001,0.03728073305897414
1776443414737558300,18.022558349609376,-0.5014250888049602,-0.41941535250768064,-0.8644243612814694
1776443414762574300,18.04757421875,0.4215788141518831,1.2453586650297046,-0.20759163394793867
1776443414787590400,18.07259033203125,-0.4153483953297138,1.4909879148185252,1.8759949478983877
1776443414812606200,18.097606201171875,0.23806933592855928,0.4759370118051767,2.0239424066141245
1776443414837622500,18.12262255859375,-0.4505664237052202,-0.1125859302163124,1.1407838995724915
1776443414862638600,18.147638671875,0.572004937940836,-0.8585506469424814,0.7277630704075098
1776443414887654400,18.172654296875,-0.05199614469707012,-0.4657463110499084,0.7424782628498972
1776443414912670500,18.19767041015625,-0.07812368864417076,0.13563647787086666,0.528463463986665
1776443414937685500,18.222685546875,-0.6065051734358072,0.39910453201532364,0.32912031068503855
1776443414962701300,18.247701416015627,-0.6493062042862177,-0.14988142245300112,-0.5343925617747008
1776443414987717400,18.27271728515625,-0.43266602535545823,-1.4648328983426093,-1.888814389722049
1776443415012733400,18.2977333984375,-0.5831348192423582,-1.5328364672496915,-1.6312290369406341
1776443415037749200,18.322749267578125,-0.9427648344814776,0.7885082656841724,0.815132434041798
1776443415062761500,18.347761474609374,-0.11263327648937702,-0.19379541951399296,0.553587822240591
1776443415087777500,18.372777587890624,-0.4665817389607429,0.03586827244516462,-0.18478169011622667
1776443415112793600,18.397793701171874,0.02440028176307678,-0.03778183271521702,0.7593868736833334
1776443415137809700,18.4228095703125,-0.31971652252376076,0.1638049530610442,0.43380525851845736
1776443415162825500,18.447825439453126,1.1087474238425492,0.1255999904297758,-0.9801824187278747
1776443415187841500,18.472841552734376,0.728161714336276,-0.6186737501353025,-1.85505591250509
1776443415212856600,18.497856689453126,0.765840579867363,-0.8474067371156067,-1.7443889676526187
1776443415237872600,18.52287255859375,0.6968149744361639,-0.1726844250872731,-0.013432605285942553
1776443415262888700,18.547888671875,0.07362345461547375,1.6069263703331351,0.6440265103176236
1776443415287904800,18.57290478515625,0.9137328012645244,1.300091833475232,-0.9276426686733961
1776443415312920600,18.597920654296875,1.07470954516232,0.9355039766330271,-2.0719082728818057
1776443415337936600,18.6229365234375,0.13015899630784988,0.040019218112155794,-0.6738255823843181
1776443415362952700,18.64795263671875,-0.01978840405344963,-0.7416537947244942,-0.5609731101863086
1776443415387968500,18.672968505859377,0.5401315438181161,-1.061091354176402,-0.4957319917298853
1776443415412984600,18.697984619140627,0.01724164218008518,-1.302979079349339,0.4887156832270324
1776443415438000600,18.723000732421873,0.10053191980719565,-0.49115898472592234,0.6010442776814103
1776443415463016700,18.7480166015625,-0.05256722258329391,-0.8916890194997191,0.36469665097892284
1776443415488031700,18.77303173828125,0.7276788992553949,-1.0677842028785496,-1.187641512337327
1776443415513047800,18.7980478515625,0.4587053064972162,-2.2373311825335023,-1.3379843417569994
1776443415538064000,18.82306396484375,-0.7018003616333007,1.507852686510235,2.000643217960745
1776443415563079700,18.84807958984375,-0.20207213987410066,2.220032257208228,1.9777555327177048
1776443415588095700,18.873095703125,1.247397769641876,0.5027234945850446,2.0291838143989445
1776443415613111800,18.89811181640625,-0.09099953683018684,-0.5110872721740976,2.3108155209392307
1776443415638127600,18.923127685546874,0.511729625198245,-1.1320425939079373,0.904414061038196
1776443415663143700,18.948143798828124,-0.1642430522173643,0.21396010953392833,-0.08213029393702745
1776443415688159700,18.97315966796875,0.3076712799429893,1.5117267514646053,0.6968018226936459
1776443415713175600,18.998175537109375,0.5928320373922586,0.9097076374016702,0.9693569272004068
1776443415738191600,19.023191650390626,-0.4979191265106201,-1.415119896146655,-0.2883680290579796
1776443415763206700,19.04820654296875,-0.5352805966556072,-1.1748325919076799,0.5921254965581
1776443415788222500,19.073222412109374,-1.2380091790497303,-1.386787681762129,0.9521287290237843
1776443415813238500,19.098238525390624,-0.24641747755706309,0.18295359790623186,0.32650194488018747
1776443415838254600,19.123254638671874,-1.178642797845602,-0.2629502225491218,1.5852258490480482
1776443415863270700,19.148270751953124,-2.12720784303844,-1.1751375662036239,0.9419757299304008
1776443415888286500,19.173286376953126,1.4979624300062655,-1.0575003439471125,0.1046812945716083
1776443415913302800,19.198302734375,1.5740017135918138,-0.42026959471683945,0.4110914685375988
1776443415938318800,19.22331884765625,0.9049971216231584,0.9036619274966419,-0.14290624967813492
1776443415963334700,19.248334716796876,0.27448388061225415,1.0924183664627372,-0.61513505461514
1776443415988350700,19.273350830078126,1.3729466418057679,0.6214120890580117,-0.11657193111255765
1776443416013366800,19.29836669921875,0.3553349483937025,0.27642741589546205,0.5120265623182058
1776443416038382800,19.3233828125,-0.7642489267617464,0.37576424416657533,1.6541200831845402
1776443416063398700,19.348398681640624,-1.1934954990625382,0.2089450395845808,1.8190106395252048
1776443416088414500,19.37341455078125,-0.4096083903729915,-0.4130114768147468,0.42817938146069645
1776443416113430500,19.398430419921876,-0.3266822698831558,-0.5852955774728208,1.655480996274203
1776443416138446600,19.423446533203126,0.15143091691732405,-0.2210928840233013,-0.13855010029524564
1776443416163462700,19.448462646484376,0.12031038698852062,-0.14201207731738685,-0.49143663262352344
1776443416188478500,19.473478515625,0.5941781913042068,-0.24347331386394797,-0.21283011912330985
1776443416213494500,19.49849462890625,1.0969874279439449,-0.5761391151361167,-0.46717999711483715
1776443416238510600,19.523510498046875,0.032389526951313016,0.1573962550625205,-0.5707759806677699
1776443416263526400,19.5485263671875,-0.2468967855066061,0.7191806085664778,-0.4165620089031756
1776443416288542500,19.57354248046875,-1.0407014770984648,0.18408185301749036,0.12981325161010027
1776443416313558500,19.59855859375,-0.2442605917841196,0.2661123033092357,-0.16043182336613535
1776443416338574300,19.62357421875,-0.30995442244410515,-0.08015453688465059,-0.9588215046606957
1776443416363589600,19.648589599609377,-0.04938040924072265,-0.39891215124838053,-0.6605941987589001
1776443416388605700,19.673605712890627,-0.28326807557046413,-0.5016441749157384,-0.09905191038250923
1776443416413621500,19.69862158203125,0.023778934994339942,-0.24875258770743383,-0.35536388222724197
1776443416438637600,19.723637451171875,0.2712467983871698,-0.024385805713152513,0.17604104203879833
1776443416463653600,19.748653564453125,0.47342239863574503,0.3983943379193544,-0.0015383154831826685
1776443416488669700,19.773669677734375,-0.24198446354568004,0.4336951126748696,0.5732742272242903
1776443416513685500,19.798685546875,-0.06452069522738456,0.17375720541793852,0.30854324047192927
1776443416538701600,19.82370166015625,0.583590161794424,0.11663670344445853,-0.42912513787820933
1776443416563717600,19.848717529296874,0.24196575884521007,0.2606626413349062,-0.7726171613302082
1776443416588733400,19.8737333984375,-0.9009826252847909,-0.07494783508703112,0.7141430527906865
1776443416613749500,19.89874951171875,-0.06620879444479942,-0.21884799117334186,0.4318853233065456
1776443416638765600,19.923765625,-0.09430325455069541,-0.0683621730864048,0.8457840312846004
1776443416663781600,19.94878173828125,-0.5568704971730709,-1.021200657814741,-0.144925407480821
1776443416688796400,19.97379638671875,0.1195528466194868,0.7001832818254828,1.0002744088377804
1776443416713812500,19.9988125,-0.4151870672881603,0.4355046097822487,0.6093040834393352
1776443416738828500,20.02382861328125,-0.5710691183954477,-0.2775014018025249,0.7045930610917508
1776443416763844600,20.0488447265625,-1.0794155308961868,0.08171645243912935,0.5667372997362167
1776443416788860700,20.073860595703124,-0.3524538399994373,0.15316515683140605,0.8824076886743306
1776443416813876700,20.098876708984374,-0.6984779392123222,-0.046802192783169445,0.3189655580259859
1776443416838892500,20.123892578125,-0.15708675072193146,0.0840370774064213,-0.018475129497796297
1776443416863908600,20.14890869140625,0.27312428269684313,0.1914848775492981,0.22935732942372558
1776443416888924700,20.173924560546876,-0.09259528158903121,0.2910860193124041,-0.3731842010781169
1776443416913940500,20.1989404296875,0.3126321172207594,0.3225053495246917,-1.140218082383275
1776443416938956500,20.22395654296875,0.19776129093766212,0.19087523948466403,-0.057793725059926505
1776443416963972600,20.24897265625,-0.36562954791486263,0.13520084466626867,0.5170528660476208
1776443416988988700,20.27398876953125,0.04335749568939209,0.15218359844814985,0.09247077842652797
1776443417014003500,20.29900341796875,0.44324411799311636,0.3811611713066697,0.03572159398347139
1776443417039019500,20.32401953125,-0.20804712263047695,-0.21300273574385792,1.1115272638194262
1776443417064035600,20.34903564453125,0.04361526984274387,-0.17695159927876666,1.2788640442684291
1776443417089051600,20.3740517578125,0.3541834402710199,0.16003243051869795,-0.09172259040772915
1776443417114067500,20.3990673828125,0.28847791917324067,0.09414645655378699,-0.21229294350668787
1776443417139083500,20.42408349609375,-0.8201257122844458,-1.0443738820008932,-1.5228091403625905
1776443417164099600,20.449099609375,0.3834562965065241,-0.9006005671646445,-1.5594339667961001
1776443417189115600,20.47411572265625,0.2010217540383339,0.199306620683521,0.40651100887954233
1776443417214131700,20.499131591796875,0.5584212337464094,0.2160237275328487,0.8908369327150285
1776443417239147800,20.524147705078125,-0.4175742546856403,-0.07202135318107902,0.07759908024817705
1776443417264163800,20.549163818359375,0.22111469399631023,0.5011161689862609,-0.3391990024331957
1776443417289179600,20.5741796875,-0.5944745439022779,1.0046876952353865,-0.7480140504714101
1776443417314195700,20.59919580078125,0.5749135188639164,1.6523454747274517,-0.3074942428756505
1776443417339211800,20.624211669921873,-0.8045756764531136,1.2220659061171113,0.9449030886191874
1776443417364226600,20.6492265625,-1.2016560091644526,0.8287501866362988,0.7681593051385134
1776443417389242600,20.67424267578125,-0.6508394052028655,1.1663637465089558,0.18192233689604326
1776443417414258700,20.6992587890625,-0.8393558979332446,0.48938094220273193,-0.08024760372927411
1776443417439274500,20.7242744140625,-0.8622732476621866,-0.010480440949462353,1.506119432976842
1776443417464290600,20.74929052734375,-0.3812438811540603,-0.36968835831899194,0.5539511391276494
1776443417489306600,20.774306640625,-0.17865151679813862,-0.17630436915010214,-0.10283312768796458
1776443417514322700,20.79932275390625,0.6384697529733181,-0.20322087151780724,-0.05937226295564323
1776443417539338500,20.82433837890625,0.16316402480900286,-0.16412419334435835,-0.649507718207687
1776443417564354600,20.8493544921875,0.21721125681698322,-0.592690108170919,-0.8192690954551101
1776443417589370600,20.87437060546875,0.41233167785704133,-0.6793007989250123,-0.09772147462950087
1776443417614386400,20.899386474609376,0.06814239285588264,-0.22656616433523594,-0.3216957867074758
1776443417639402800,20.92440283203125,1.388469205108285,-0.46074156156517565,-1.091717524717003
1776443417664418800,20.949418701171876,0.39182606544494625,-0.4047209836576134,-0.631780557532981
1776443417689435000,20.974434814453126,0.44059857192039487,-1.0696890135865658,0.7745046555772424
1776443417714449700,20.99944970703125,1.074732341516018,-0.46142004534862935,0.5384996682999655
1776443417739465700,21.0244658203125,0.47275545915961265,-0.03889247910454869,-0.5027129731910303
1776443417764481500,21.0494814453125,0.6448281820893287,-0.5465973788313567,-1.1201607982605695
1776443417789497600,21.07449755859375,-0.08747954601049422,-0.3058881959185004,-1.4177248179480433
1776443417814513700,21.099513671875,0.4267623542696237,-0.6926292862493545,-2.978554038494825
1776443417839529700,21.12452978515625,0.36149405554533004,0.5464139850884676,-0.6301085326675325
1776443417864545500,21.149545654296876,0.4917810621470213,0.4070095329862088,0.651990182673186
1776443417889561600,21.1745615234375,-0.31539924384653567,-0.1191194236382842,1.0788693682555108
1776443417914577700,21.19957763671875,-0.19565467404723166,-0.10883804892487824,1.186010550134629
1776443417939593500,21.224593505859374,-0.6244312907487154,-0.5077661283947527,1.7385713674150407
1776443417964609500,21.249609619140625,0.11213994001448153,-1.1839891273096204,1.6520540905654428
1776443417989625600,21.27462548828125,-0.36726562468409535,-0.8761535236503928,2.2469069662608203
1776443418014641700,21.2996416015625,-0.2670937703609466,0.16488266529515386,1.880653295098245
1776443418039657500,21.324657470703126,0.2852121953755617,-0.08813925202824174,2.1373896298348902
1776443418064676400,21.34967626953125,0.008480243575572966,-0.42387795793972904,1.3560891766376792
1776443418089692400,21.3746923828125,-0.12542962969839572,-0.6425001044679433,0.38273850362598894
1776443418114708200,21.399708251953125,0.08997486995756626,-0.07247304247133433,0.6152164492882788
1776443418139724300,21.424724365234376,-0.04525193113386631,-0.19698442481365053,0.13713658023551106
1776443418164740400,21.449740234375,0.19027473457455635,-0.19287812200598417,-0.36412363686393945
1776443418189756400,21.47475634765625,-0.0957329950928688,0.26983508669203143,-0.3281110605772585
1776443418214772200,21.499772216796874,0.2830149775922298,0.4433901023350656,-0.15025454834802077
1776443418239788300,21.524788330078124,0.12343407196700572,0.04068212073398754,-0.2667703105602413
1776443418264804400,21.549804443359374,0.16536065807044506,0.3056148223372176,-0.030518326251953838
1776443418289820200,21.574820068359376,-0.05324176084399223,0.2493130163354799,0.18301690893340855
1776443418314836200,21.599836181640626,-0.20916531300544738,-0.005403082886245102,0.09628516734922304
1776443418339852300,21.624852294921876,-0.022955343651771543,-0.34832459470760074,-0.12747421420328317
1776443418364868000,21.6498681640625,-0.18361995286047458,-0.3975327161213383,-0.1356539587286301
1776443418389884200,21.67488427734375,0.397930812060833,0.7307917705789208,-1.8765819540061055
1776443418414899500,21.6998994140625,-0.06684709234833718,1.5124902831830083,-0.27868737845038993
1776443418439915300,21.724915283203124,0.6690864250332117,1.1459685356687754,-1.232261575308442
1776443418464931300,21.749931396484374,-0.11406067894399166,-0.21655315823443233,-0.47059265510253606
1776443418489947400,21.774947509765624,1.6154864011466503,-1.2190035959370433,-0.3294298880908638
1776443418514963500,21.79996337890625,0.865730110117793,-0.10884898131084628,-0.9356185429234057
1776443418539979300,21.824979248046876,-0.5836579663336277,0.4629348703583702,-0.7905570879727601
1776443418564995300,21.849995361328126,0.6907879692316055,-0.657674292724207,-1.9585820456922054
1776443418590011400,21.875011474609376,-0.915695625770092,-0.15029692618502302,0.11407985856849699
1776443418615027200,21.900027099609375,0.3155278386622667,-0.11834750768402591,0.7633280125245452
1776443418640043300,21.925043212890625,-0.31463702730238435,-0.08469784287009388,0.3124372522357851
1776443418665059300,21.950059326171875,0.3186789961695671,0.2967607222142629,-0.6391890071585774
1776443418690075100,21.9750751953125,0.2910428012251854,-0.5498571478122845,-0.6863597775258123
1776443418715091200,22.00009130859375,-0.15002689533829688,-0.8046146932892501,-1.1988875673644244
1776443418740107300,22.025107177734377,-0.46194355776607987,-1.1387111118864268,-0.8197825979351997
1776443418765123300,22.050123291015623,-0.004686696511507034,-1.094277292202413,-1.1883677807852626
1776443418790138400,22.075138427734377,0.5510030664443969,-0.109377407365432,-1.2175655259579419
1776443418815154400,22.100154541015623,0.30045243460536003,-0.1485627776024863,-0.3902284940551966
1776443418840170500,22.12517041015625,-0.10287702162861824,-0.17207602913165465,-0.1648127783967182
1776443418865186300,22.150186279296875,0.03139350165128708,0.4298639735467732,0.7263534228052944
1776443418890202400,22.175202392578125,0.560630141967535,0.29330031609470025,1.0216860301788895
1776443418915218400,22.200218505859375,0.7767056727528572,0.5362276682473719,1.0989340319670735
1776443418940234200,22.225234130859373,0.29247780246436594,0.085375952194212,1.260046531073749
1776443418965250300,22.250250244140624,0.1491764159888029,0.6096249859567732,1.1613511059787123
1776443418990266400,22.275266357421874,-0.3101426384925842,-0.09888804332399741,1.9578382415875792
1776443419015282400,22.300282470703124,-0.43175417120754717,-0.16728483106605707,1.9488516559250653
1776443419040298200,22.32529833984375,-0.09721534260511398,0.16648005402181296,0.4973156441921368
1776443419065309700,22.350309814453126,-0.20407704995572565,0.17171868532765655,0.5722050636228173
1776443419090325800,22.37532568359375,-0.1719382828950882,0.07591722810845822,0.9235880595203488
1776443419115341600,22.400341552734375,0.05363046790063381,0.13899148738719522,1.209392667831108
1776443419140357600,22.425357666015625,-0.008756137907505035,0.1554527197793126,1.1009116156503558
1776443419165373000,22.450373046875,0.054819969946146005,0.41853528173752125,1.287909812772274
1776443419190388700,22.475388671875,-0.09280454042553901,-0.16167700112164018,0.29963019496966153
1776443419215404800,22.50040478515625,-0.2920949406266212,0.16856537239588795,-1.4729372943431138
1776443419240420900,22.5254208984375,0.03571078032851219,0.1596247447669506,-1.3750257861673831
1776443419265437000,22.55043701171875,-0.26883506107032296,0.36490561755448575,-0.44841465249881146
1776443419290452700,22.57545263671875,-0.3958347165644169,-0.11524331285730004,0.8727101782634854
1776443419315468800,22.60046875,-0.19580957234799862,0.09716134739555418,0.4444439222369343
1776443419340484900,22.62548486328125,-0.5998819559037685,0.6336307154443115,-0.2826552043691277
1776443419365500700,22.650500732421875,-0.4841992287158966,-0.7901454384319484,-0.35980624858886
1776443419390516700,22.675516845703125,-0.27606092067062854,-1.4464944008365272,-0.9802373637855052
1776443419415532800,22.70053271484375,-0.3808797240167856,-0.345586073121801,-1.4676020707949995
1776443419440548600,22.725548583984374,-0.1439659878641367,0.09326901613213122,-0.8852946422874927
1776443419465564700,22.750564697265624,0.29065526321232316,-0.133128805898875,-1.1994883097365499
1776443419490580700,22.775580810546874,0.13552724534273147,0.18557875877805052,-0.5514544634737074
1776443419515596800,22.8005966796875,-0.20662614991664885,0.404546869199723,-0.3393191947467625
1776443419540612600,22.825612548828126,0.37218846803903577,-0.049165341717936094,-0.25461481253802776
1776443419565628700,22.850628662109376,0.7509399478554725,-0.7402334065325558,-0.6696401133932173
1776443419590644000,22.87564404296875,0.2551005502283573,-1.5111653181895612,-0.46339200300872324
1776443419615659800,22.90065966796875,0.013064648756384849,-1.2135424079217016,-0.19637100562304258
1776443419640675800,22.92567578125,0.18370412401258945,-0.6868563288711012,0.17787600238099693
1776443419665692000,22.95069189453125,0.013855506873130797,-0.20280790680274366,0.475687567088753
1776443419690707700,22.975707763671874,0.027330489996075628,-0.7502748350102454,0.8677071092791855
1776443419715723800,23.000723876953124,-0.03358253612816334,-0.17118446885310112,-0.08395794775560497
1776443419740739800,23.02573974609375,-0.25254034435153006,-1.0550343922249972,-1.0113697302825748
1776443419765756000,23.050755859375,-0.6917880861848592,-1.061802790381387,-0.8025294114477932
1776443419790771700,23.075771728515626,0.5285287843078375,-1.5988345415532588,-0.6571399666517973
1776443419815787800,23.100787841796876,-0.5912748710781336,-1.6739133095435796,-0.8646079742200672
1776443419840803800,23.125803955078126,-1.052687682968378,-0.6375904859207571,-1.6130251255996524
1776443419865819600,23.150819580078124,0.7192214520335197,-1.0663917256068438,-0.9650745737060904
1776443419890835700,23.175835693359375,-0.917838483017683,-0.7628425670951604,0.1992639505855739
1776443419915851800,23.200851806640625,0.3292752089858055,-0.779553755660355,-0.35905367665588855
1776443419940867600,23.22586767578125,0.072095514395833,0.20395229106489568,-0.258968185441941
1776443419965883600,23.250883544921876,-0.40258360630273815,0.24887656114697454,0.01948313749656081
1776443419990899700,23.275899658203127,-0.34410920550227164,0.48261049821972846,1.038338985750824
1776443420015914800,23.300914794921876,0.34343642080724235,0.39723143161982294,2.3459721745163202
1776443420040930800,23.325930908203127,1.1552642603456973,-0.6547792288698255,2.4462680936105548
1776443420065948000,23.350947998046873,-0.03670154493153095,0.012358765509352087,1.2465962440006435
1776443420090964000,23.3759638671875,0.43530514168739315,0.1539020562712103,1.6350919959791004
1776443420115980000,23.40097998046875,1.0038538016945122,-2.1108815621376036,1.4385510406166315
1776443420140996000,23.42599609375,-0.13889759855866432,-0.02403634382151067,2.902354011389613
1776443420166012000,23.451011962890625,1.6767442951858043,1.8240470262572168,3.612691899743676
1776443420191028000,23.476028076171875,-0.26037001506388185,1.2944516356311737,2.782327409778535
1776443420216044000,23.5010439453125,1.477836172300577,0.6572462035052478,1.218742899174243
1776443420241060000,23.52606005859375,1.7286089224576948,-0.12124562201201915,-0.5476815208062529
1776443420266076000,23.551075927734374,1.3833137220412492,0.4392926038883626,-1.4438424250230193
1776443420291092000,23.576092041015624,1.970949359834194,-0.6830310714945197,-1.6939187173485755
1776443420316108000,23.60110791015625,0.45453006663918494,0.06401449927091599,-1.1234133703157305
1776443420341123800,23.626123779296876,0.45626726569533343,0.5627526870794594,-0.9562450783014297
1776443420366140000,23.651139892578126,0.5147685545027255,-0.03234247293919325,-0.9227034587055444
1776443420391156000,23.676156005859376,-0.5791799441367388,-0.035462943047285075,-0.27652883044332266
1776443420416171800,23.701171875,-0.8009358586460351,-0.1248684886842966,-0.4613093515157699
1776443420441187800,23.726187744140624,-0.5487783761322498,-0.844034411138296,-0.7053142149731516
1776443420466203000,23.751202880859374,-1.6827794836968182,0.2706681217163801,0.4014820748016238
1776443420491218700,23.77621875,-1.2087877607405184,-0.5340840803474187,-0.1302180330187082
1776443420516234800,23.80123486328125,-0.5900912142515182,-0.6277008139386773,-1.0356403943166137
1776443420541251000,23.8262509765625,-0.5111807591438293,-0.8816516096100211,0.25953502554446456
1776443420566267100,23.85126708984375,-2.1156875011146066,-0.41633097662627694,1.7953265432074665
1776443420591283000,23.876282958984376,-1.3110720771729945,-0.3495616256892681,1.094743448409438
1776443420616299000,23.901299072265626,-0.9149953685462474,-0.9613272038713097,0.18998978015333412
1776443420641315000,23.926315185546876,-1.034970239970088,-0.6466746867388486,0.40919337983131404
1776443420666331000,23.951330810546875,-0.4341045337259769,-0.33227906697690485,0.5851332995831966
1776443420691347000,23.976346923828125,0.15116905111074447,0.36683483205139633,0.43016777879893775
1776443420716364000,24.001364013671875,0.32953356766104697,0.2368622982263565,0.5499000736385583
1776443420741378800,24.02637890625,-0.3055284226953983,0.512843139398098,1.0144956072181464
1776443420766395000,24.051394775390627,0.22763211306631564,0.7088476497963071,1.0043892237454652
1776443420791411000,24.076410888671877,0.23566870452761648,1.0858014325410128,1.3760726648718118
1776443420816427000,24.101427001953127,0.5576999337345362,-0.26400544895678757,1.6691659688860176
1776443420841442800,24.12644287109375,-0.06648644234240055,-1.162646771812439,1.4036241041421889
1776443420866459000,24.151458984375,-0.29354513943493366,-0.16096943737417457,0.7942629567533731
1776443420891475000,24.176474853515625,0.4617389751046896,0.6902265359565615,-0.49044016893208026
1776443420916490800,24.20149072265625,0.16553192298412323,1.0785177052736281,-0.18505904575288296
1776443420941506800,24.2265068359375,1.006495256114006,1.1496294693291187,-0.12544015109241008
1776443420966523000,24.25152294921875,0.37505145625472064,-0.273648598831892,0.7474778247028588
1776443420991539000,24.2765390625,-2.6512761408060785,-1.4893392708286641,3.242428846809268
1776443421016554800,24.3015546875,-0.5080722717344761,0.37319092307984825,0.36171968099474905
1776443421041570800,24.32657080078125,-1.4558242469787597,0.306332724815607,0.5295376690894364
1776443421066585600,24.351585693359375,-1.2451549591511488,0.8625120248541236,1.9331535899251697
1776443421091601700,24.3766015625,-0.4660620990008115,0.6256953193351626,2.3270447712063786
1776443421116617700,24.40161767578125,-0.4197372779384255,0.5060416426897049,1.4353823474526404
1776443421141633500,24.426633544921874,0.46390667453259227,0.15446926169991493,-0.21379063471853732
1776443421166649600,24.451649658203124,-0.23761340885460375,-0.10883344581499695,0.36291444373726844
1776443421191665700,24.476665771484374,-0.17053996040448546,0.38410423902124163,0.2531792267769575
1776443421216680400,24.501680419921875,-0.6761492030262947,0.2853339220590889,-0.9487064994901419
1776443421241696500,24.526696533203125,-0.6989741982966661,-0.26592706466913224,-1.0387193633705376
1776443421266712600,24.551712646484376,-0.44870179887712,-0.29236192099973557,-0.8358253857195377
1776443421291728400,24.576728271484374,0.14762743298113346,-0.2910020308233797,-2.021336315768957
1776443421316744400,24.601744384765624,1.1108248877037317,-0.3700459030523896,-3.254372382581234
1776443421341760500,24.626760498046874,0.5808674588322639,-0.5607075911179185,-2.152951940625906
1776443421366776600,24.651776611328124,0.8778151001870632,-0.8856050234109163,-0.7211509587913751
1776443421391792600,24.676792724609374,0.5661135418146849,-1.1816682831466196,-0.26167232983410355
1776443421416808700,24.70180859375,0.20915654517710208,-0.6932606429554522,0.15914426777362822
1776443421441824800,24.72682470703125,0.8725760304898023,-0.46566301668062804,0.47690731814205645
1776443421466840600,24.751840576171876,0.32169629816412926,-0.200593080297485,0.4104313971936702
1776443421491856600,24.776856689453126,0.2178688439428806,0.19502799351625144,0.1736848343014717
1776443421516872700,24.801872802734376,-0.1403138950973749,0.21110797150582075,-0.06751870799958705
1776443421541888500,24.826888427734374,0.03891176832690835,0.40859979785233735,0.1406628546655178
1776443421566904600,24.851904541015625,0.4229167847573757,0.7028669679515064,0.26437574357390403
1776443421591920600,24.876920654296875,-0.08597542505785823,0.6458817827954888,0.0782785869449377
1776443421616936700,24.901936767578125,-0.3037678427636623,0.9193022719599306,0.2149900736361742
1776443421641952500,24.926952392578126,-0.44331301851086313,0.7279111736413091,-0.09271861570775508
1776443421666968600,24.951968505859377,-0.7385564132310449,0.5553677644599229,-0.11425006403625011
1776443421691983400,24.9769833984375,-0.250024562138319,0.3282084565371275,0.09048398852348327
1776443421716999400,25.00199951171875,-0.3587543283831328,0.39336127565559,-0.12523732199668883
1776443421742015500,25.027015380859375,-0.43517124964203685,0.2723170214345679,-0.43555707062184806
1776443421767031600,25.052031494140625,-0.2505482937514782,0.21517142155244945,-0.30980478484034535
1776443421792047600,25.077047607421875,0.28784597794525324,0.614135887509957,-0.3688116850823164
1776443421817063700,25.102063720703125,0.5656517695218324,0.647965457201749,-0.9528630346477032
1776443421842079700,25.127079833984375,-0.3753986257245764,0.628745646816492,-0.7331658062338828
1776443421867095600,25.152095458984373,-0.7330652684688568,0.14740721435919404,-0.2827279773443937
1776443421892111600,25.177111572265623,-0.8573854756206274,0.20992014996074138,-0.23165362366735934
1776443421917127700,25.202127685546873,0.6940121919751167,0.052700639704614874,0.18244857099354267
1776443421942143700,25.227143798828124,0.7494868264377117,-0.5626167857401073,0.13265315121114254
1776443421967159600,25.25215966796875,0.57335869063735,-0.9196045428421348,0.5433949295282363
1776443421992175600,25.277175537109375,0.5810153428703546,-0.6675890260823071,-0.04949322196543216
1776443422017191700,25.302191650390625,-0.9107605074554681,-0.27244061128161845,-0.704724140125513
1776443422042207500,25.32720751953125,-1.9435867211341857,-0.12169709210656583,-0.1946072108209133
1776443422067224600,25.352224609375,-0.9533049331963062,-0.526700107575953,0.6017319676846266
1776443422092240600,25.37724072265625,-0.0222205631038174,-0.9585185761913657,0.9798509948164223
1776443422117256700,25.402256591796874,2.137901086488366,-0.03808225870020687,1.1937450899094342
1776443422142272500,25.4272724609375,0.7038426811158657,0.41985140583738684,0.14748247155249117
1776443422167288600,25.45228857421875,0.5554138686239719,0.507048116318509,-0.7543056248962878
1776443422192303600,25.4773037109375,-0.08620704185664653,0.05608071059696376,-1.2287000834345816
1776443422217319400,25.5023193359375,-0.2599912448793649,-0.5302157875467092,-0.493894693300128
1776443422242335500,25.52733544921875,-0.18793836404886097,-0.06646664166338741,-0.5219973367124796
1776443422267351600,25.5523515625,-0.4423621109941974,-1.4537649763613938,-0.4915677116572857
1776443422292367400,25.577367431640624,0.34121059798393394,-0.34938919173181054,0.09868775324523449
1776443422317383400,25.602383544921874,-1.6328940475434064,-1.5363561658084393,0.8818342727005481
1776443422342399500,25.6273994140625,-0.22319266931414602,-1.599893402956426,0.5295680642277002
1776443422367415600,25.65241552734375,0.48887416172437365,0.14218553418815136,0.09724164609014987
1776443422392431600,25.677431640625,0.15124503895640373,-0.21923545612096784,-0.5565004948168992
1776443422417447700,25.70244775390625,0.6244236919641495,0.9387588867757469,-0.16105623887479303
1776443422442463700,25.727463623046877,0.12564992138557135,0.48227315602414306,-0.2742015565395355
1776443422467479600,25.7524794921875,-0.05855031558088958,0.6855523336004465,-0.15527823999524115
1776443422492495600,25.77749560546875,0.8471095807999371,2.0238719717264173,-0.29527883135974403
1776443422517511700,25.80251171875,-0.289147269802168,1.231168811635673,0.15370529159009455
1776443422542527700,25.82752783203125,-0.5219628499209881,-0.3936958779048174,0.20309154604971408
1776443422567543600,25.85254345703125,0.6144815591424703,0.7771648877624422,0.45066345433890814
1776443422592559600,25.8775595703125,-0.6390623851042241,0.1542004546958953,0.4803945757359266
1776443422617575700,25.90257568359375,-2.0702146207064387,-0.9832118495516479,-0.13305121061801908
1776443422642590500,25.927590576171873,-0.05384907908737659,1.1439531041931361,-0.015351882910728453
1776443422667606500,25.9526064453125,-0.35477249220535156,0.930343159803748,0.3586456803768873
1776443422692622600,25.97762255859375,-1.0037380663603543,-0.7764458527728915,-0.14113807096183298
1776443422717638400,26.002638427734375,-0.25458438086714597,-0.1510024623721838,-0.5951221941560506
1776443422742654500,26.027654541015625,-0.0467073906391859,0.930863018959388,0.145256027674675
1776443422767670500,26.05267041015625,-0.19915007841493934,-0.12414857691191136,-0.07056348252296447
1776443422792686300,26.077686279296874,-0.31583529717624187,-0.494668965608254,-0.057389528173208235
1776443422817702700,26.10270263671875,1.061343283110857,0.4646689641419798,0.26267653844058514
1776443422842718700,26.12771875,0.14831541524529457,-0.07033599391002207,-0.12098901690244673
1776443422867734800,26.15273486328125,0.4573626597166061,-1.324530255291611,-0.8410007425308227
1776443422892750600,26.17775048828125,0.40943770998120305,-1.3461711553439497,-0.6092617786675691
1776443422917766700,26.2027666015625,0.7595879492133856,-0.39363384551927444,-0.2246796930015087
1776443422942782700,26.22778271484375,0.7939777100712061,-0.6607476357549429,-0.4943821845561266
1776443422967798500,26.252798583984376,1.354238434204459,-0.4642347374431789,-0.07882569943368434
1776443422992814600,26.277814697265626,0.36348552162349224,-0.14249423481114207,-0.1369821203261614
1776443423017830700,26.30283056640625,0.030409751310944557,-1.1182384518958628,-0.5437894818037748
1776443423042846700,26.3278466796875,0.8264613450467586,-1.3283132809616625,-0.4844254386872053
1776443423067862000,26.352862060546876,0.6547154429186135,-0.9573292933415621,0.4994441441208124
1776443423092878000,26.377878173828126,0.2096171484261751,-1.1292204491592943,0.11288871255517005
1776443423117894100,26.40289404296875,0.40617834285907445,-0.14311392847890964,-0.08983166209459305
1776443423142909000,26.427908935546874,1.5341490111529825,0.1905303167708218,1.151874033385515
1776443423167925000,26.452925048828124,0.9328729705423117,-0.9824892343655228,1.5503332532346248
1776443423192941300,26.47794140625,0.582034749045968,-0.7807751141488551,0.9312678734332323
1776443423217957400,26.502957275390624,0.3151392046708614,-0.42233394336812197,0.3661731532722711
1776443423242973200,26.52797314453125,-0.08838774689659476,-0.3759811383202672,-0.3889969794988632
1776443423267989200,26.5529892578125,0.8463766634155064,-0.8787069344602525,-0.7911550538659096
1776443423293005300,26.57800537109375,0.9199936152249574,-0.5891269357966259,-0.8994546850651503
1776443423318021000,26.603021240234376,0.059411389389634126,0.44148346499614416,0.23866028755903243
1776443423343037200,26.628037109375,-0.0462239910364151,0.35249724074974653,0.7556488561987876
1776443423368053200,26.65305322265625,-0.06944222340807318,0.2282244894688949,1.5964911932975052
1776443423393069300,26.6780693359375,-0.33328897467181084,0.43838155345804986,2.020858761385083
1776443423418085000,26.703085205078125,0.8088029387593269,0.12243391848113387,1.5767331843823194
1776443423443101200,26.72810107421875,-0.0977373937178403,0.16854818379906936,1.9529694665074346
1776443423468117200,26.7531171875,0.5577648156642914,0.13664032115116714,0.8752981489300727
1776443423493133000,26.778133056640623,0.21159341693520545,0.6217231277685612,1.0000251833170652
1776443423518149000,26.803149169921873,0.5317547606170178,-0.10100538253784179,-0.8355652734786272
1776443423543165200,26.828165283203123,0.8874047663092612,-0.16928922969102858,-1.516177301132679
1776443423568181000,26.853180908203125,0.9546365471262485,-1.32189742256999,-1.6427561008661984
1776443423593197000,26.878197021484375,0.8387327245336026,-0.876643645254895,-1.5095055682837961
1776443423618212000,26.903212158203125,0.6126105776388198,-0.39822767611555754,-0.6315554435402154
1776443423643228200,26.928228271484375,0.5232043013494462,0.26558760358169675,-0.4105734360128641
1776443423668244200,26.953244140625,0.8982534925818443,0.8236041289847343,-0.30911621805429457
1776443423693260300,26.97826025390625,0.6332020417034626,1.1166679877087473,-0.2481727967917919
1776443423718276400,27.0032763671875,0.567045854228735,0.9911253260899334,-0.6159633221328258
1776443423743292200,27.028292236328124,0.5628500830393284,0.4556336074342951,-0.7405810509264469
1776443423768308200,27.05330810546875,0.45741643573045726,-0.187221667146869,-0.7336012750416994
1776443423793324300,27.07832421875,0.23722134079709647,-0.3373843176940456,-0.5374930120080709
1776443423818340000,27.103340087890626,-0.08756488620638847,-0.41794984653238204,-0.5888958669871092
1776443423843356200,27.128356201171876,-0.1654569580517709,-0.08106107553662732,-0.6327133814036846
1776443423868372200,27.153372314453126,-0.49653483254536984,0.052869274269789455,-0.8270569728523492
1776443423893388000,27.178387939453124,-0.4613712377708405,-0.28142144305678085,-0.5090297185897826
1776443423918404000,27.203404052734374,-0.3826281020540744,-0.5902805993437766,-0.3230558960795402
1776443423943420200,27.228420166015624,-0.3281855871181935,-0.4948921799048781,0.037460838866233824
1776443423968436200,27.253436279296874,-0.15444591735694557,-0.5610875303462147,0.7445441093385219
1776443423993452000,27.2784521484375,-0.8954735064744949,-0.4393378312695771,0.805255475410819
1776443424018468000,27.303468017578126,-0.29972759092953055,-0.924751185015589,0.3593126198530197
1776443424043484200,27.328484130859376,-0.3265829011619091,-1.4203537051469086,0.6909983971118927
1776443424068501000,27.3535009765625,-0.42343233306407924,-0.6419043305318802,1.098322475939989
1776443424093516000,27.37851611328125,-0.13684006324065848,0.026671007740614004,0.8470131346881389
1776443424118531800,27.40353173828125,0.25000936456918715,-1.3562299002826212,0.7119920853018761
1776443424143548000,27.4285478515625,0.12182605224847792,-0.7450335733558983,0.5588596251636743
1776443424168564000,27.45356396484375,-0.2810731593420729,-0.6797542417809367,0.293300224763155
1776443424193580000,27.478580078125,0.9615292292494326,-0.9845647985305637,-0.2188186920136213
1776443424218596000,27.50359619140625,-0.19515549235343932,-0.2839215710431337,-0.33355975443720814
1776443424243612200,27.528612060546877,-0.3952572089374065,-0.29515003561461345,-0.23820085335373878
1776443424268628200,27.553628173828123,-0.8425030368525535,0.17911036648154258,-0.5143196416914463
1776443424293644000,27.57864404296875,-0.2741267377376556,0.1953829444337636,-0.6860609407097101
1776443424318660000,27.60366015625,-0.5504525929547845,-0.27382631175266575,-0.5199158542633057
1776443424343676200,27.62867626953125,-0.11424144233837723,-0.7031716499865055,-0.8012912479549645
1776443424368692000,27.65369189453125,0.13102876487970352,0.553338596719876,0.5459983900249004
1776443424393708000,27.6787080078125,-0.051030076143890615,0.005089961816463619,0.6697159551084041
1776443424418724000,27.70372412109375,-0.9119089468382299,0.8027143395606428,0.6796937437653541
1776443424443740200,27.728740234375,-0.20984087417945266,0.7022815692789852,0.033219548034667964
1776443424468756000,27.753755859375,-0.005864946510642767,0.16369984871875493,0.5004220492422581
1776443424493772000,27.77877197265625,0.43192441320791836,0.2447348764986731,-0.05560322927832603
1776443424518788000,27.8037880859375,-0.6014264088667929,0.648328956751898,-0.6999211237579583
1776443424543804000,27.828803955078126,0.5382441226363182,1.256606473622471,-0.14559329680502414
1776443424568819000,27.85381884765625,-0.47245852203965183,1.2693060884587466,-0.2533738725662231
1776443424593835000,27.8788349609375,-0.22453955387845634,1.2024201984699814,0.0329828166693449
1776443424618851000,27.90385107421875,0.5446642188116908,1.0777382453337312,-0.0074538231372833245
1776443424643867100,27.9288671875,-0.028285306502878665,1.109443662478402,-0.2987397854685783
1776443424668883200,27.95388330078125,0.9068623309731483,0.5048853853266686,0.1779120966076851
1776443424693899000,27.97889892578125,0.8700805604122579,0.46393356253951784,0.27844693902432915
1776443424718915000,28.0039150390625,0.7948749511718749,-0.29112836061678826,-0.4261281480193138
1776443424743931100,28.02893115234375,0.6450524923644959,-0.6198185362562537,-0.3854097686618566
1776443424768947200,28.053947265625,0.6150558518990874,-0.49723034052886067,-0.25207272683978077
1776443424793963000,28.078962890625,0.7710393175542354,-0.5751829834550619,-0.09765957924127579
1776443424818979000,28.10397900390625,1.9776304450333118,0.22336174227073788,-0.31573125227987764
1776443424843995100,28.1289951171875,1.1666460705816746,-0.49202082571964706,-1.2580308073371649
1776443424869011000,28.154010986328124,1.3185400749661027,-0.532680204898864,-1.5035948829352854
1776443424894027000,28.179027099609375,1.63006656903252,0.21305581763796508,-0.7398837163120507
1776443424919043000,28.20404296875,1.0812300329722464,0.5681081862306222,-0.024686697489023208
1776443424944059100,28.22905908203125,0.85588851506114,0.3750299750752747,-0.19132745849788188
1776443424969075000,28.254074951171877,0.6428700337588786,-0.36306744234189386,-0.08844576069414616
1776443424994091000,28.279091064453127,0.6145113697588444,0.16665763907842338,-0.19233809684515
1776443425019105800,28.304105712890625,1.3299848674356936,0.02397158975591883,-0.7213087797015905
1776443425044121900,28.329121826171875,1.7180865055300294,-0.22516289167487993,-0.6364344477534294
1776443425069137400,28.354137451171876,1.0312849755860864,-0.4716974745392799,-0.549382187244296
1776443425094153500,28.379153564453127,0.6534031182110309,-0.09004296675771474,-0.2112941417276859
1776443425119169500,28.40416943359375,0.837352156895399,0.22791377955190836,0.010107552516460418
1776443425144185300,28.429185302734375,0.9787164378285408,-0.28764420829545706,0.06184650758206844
1776443425169201400,28.454201416015625,-0.09924268371425568,-0.37147681263834237,0.5984872866749763
1776443425194217500,28.479217529296875,0.625645196583122,0.015789616740867495,0.8160866660267114
1776443425219233500,28.504233642578125,0.9026876025717705,0.275258773974888,0.9164046508222817
1776443425244249300,28.529249267578123,0.43153263741135595,-0.0499619719883427,0.4104816660761833
1776443425269265400,28.554265380859373,-0.039261312416940926,-0.8220705627419054,0.4929904379367828
1776443425294281500,28.579281494140623,0.3815852419376373,-0.2526043677647598,0.7893067956507206
1776443425319297300,28.60429736328125,0.2860650858778506,-0.4413103003863245,0.10938918000161647
1776443425344313300,28.629313232421875,-0.3940555049974471,-0.7504053295221179,-0.08526654613614082
1776443425369328400,28.654328369140625,-0.8048795547705143,-0.18592950844448058,0.8378115911006927
1776443425394344400,28.679344482421875,-0.4440167828660458,-0.17831161731928585,0.285739434120059
1776443425419360500,28.704360595703125,-0.760111096304655,-0.6687129155457019,0.13851122958958148
1776443425444376600,28.72937646484375,-0.8885808974165469,0.1127754340395797,1.1321300529956817
1776443425469392400,28.754392333984374,-0.7200935586929321,0.24921613183226435,0.946833691355586
1776443425494408400,28.779408447265624,-0.6433493417084216,-0.31912787244822827,0.048908115553855894
1776443425519424500,28.804424560546874,-0.793906982922554,-0.15687323583541438,0.849092279049754
1776443425544440600,28.829440673828124,-0.5842739793401212,-0.16036926125762982,0.5605161601990462
1776443425569456400,28.854456298828126,-0.3067348758757114,0.17042939443578942,0.35853871287107464
1776443425594472400,28.879472412109376,-1.2902818026006222,-0.39445553716570136,0.12597791123092172
1776443425619488500,28.904488525390626,0.3711070294778794,0.1234940219933167,-0.17517536512017248
1776443425644504300,28.92950439453125,0.22477796574421224,0.42042814627941694,2.0819915677398444
1776443425669520400,28.954520263671874,0.14855981846041977,0.2884781749015674,0.8727952261984347
1776443425694536400,28.979536376953124,-0.8393721914809197,0.5291540400667116,-0.46303661369979376
1776443425719552500,29.004552490234374,-0.13374445357918738,-0.15676844202037898,-1.2420032171219586
1776443425744568300,29.029568359375,0.3161467012129724,-0.1781774695456028,-0.4292126700311899
1776443425769584400,29.05458447265625,0.19521277549862862,-0.06584945961311459,-0.9873428118765354
1776443425794600400,29.079600341796876,0.01074694639854133,-0.2731495632685721,-0.3344587491035461
1776443425819615500,29.104615478515626,0.11724325450286269,-0.11837415822893381,-0.4462596664220094
1776443425844631600,29.129631591796876,-0.5015245305914432,0.3444499086987227,0.003802314892411232
1776443425869647600,29.154647705078126,-0.8505506611645222,0.0734057932768017,-0.3583247778594494
1776443425894663400,29.179663330078125,-0.7962615101594478,0.9536854569464921,0.5855518172562122
1776443425919679500,29.204679443359375,0.17731705332398415,0.7154473403222859,-0.02016132901906967
1776443425944695600,29.229695556640625,-0.4214964696306735,0.9590353666070848,-0.21554770751893518
1776443425969711400,29.25471142578125,-0.10541972838137298,0.5508453185994178,0.14645429754853248
1776443425994727400,29.2797275390625,-0.21559278876967727,0.42355709195490926,0.2565980953097343
1776443426019743500,29.304743408203127,-0.28609898814745244,0.2154586775286123,-0.14455577045083046
1776443426044759600,29.329759521484377,-0.05416647447347641,0.48026214499529446,-0.09151683870255947
1776443426069775400,29.354775390625,0.025922376763820646,0.44666806455980984,-0.07529810982942581
1776443426094791400,29.37979150390625,0.5906978749077767,0.17461692751981317,-0.5828758760452271
1776443426119807500,29.404807373046875,0.29530513484477994,-0.0532557163041085,-0.31316344761848447
1776443426144823600,29.429823486328125,-0.21437340304255484,-0.16387326905690133,-0.1262760173946619
1776443426169839400,29.45483935546875,0.37011451130919154,0.32223508121594785,0.21418694055974483
1776443426194855400,29.47985546875,0.4233014001607895,-0.11684592574834823,0.055202831783890724
1776443426219871500,29.50487158203125,0.005160159242153167,-0.290412613562867,-0.16132044276893137
1776443426244887300,29.52988720703125,0.14899112254977226,-0.19312113698162137,-0.19503683440983294
1776443426269903400,29.5549033203125,1.1588928261063993,-1.6302897102639078,0.889568666344881
1776443426294918700,29.579918701171874,1.6509879226386546,-0.2841800027836114,-0.7081529455304145
1776443426319934500,29.6049345703125,0.7122901914656162,0.6872219473131,-0.5532207424938679
1776443426344950500,29.629950439453125,0.7258088675998151,-0.09059541300870477,-0.5960486613512039
1776443426369966600,29.654966552734376,-1.036112980264425,-0.29660803413689135,-0.5814508116781711
1776443426394982400,29.679982421875,-0.8627705296598375,-0.39432898817658424,-0.5316057075351477
1776443426419998500,29.70499853515625,-0.15659809042215347,-0.2655206758253276,-0.20876900716423988
1776443426445014500,29.7300146484375,0.10836202891096472,0.42705344617068763,-0.17741583752334117
1776443426470030600,29.755030517578124,0.3981811335600912,0.4439109113387763,-0.38634558820724485
1776443426495046400,29.78004638671875,1.0133165535014121,0.38268567746020854,-0.06237374632656574
1776443426520062500,29.8050625,-0.00804630913771689,0.4734454141851514,-0.0009346505016088485
1776443426545078500,29.83007861328125,0.38879699994735417,-0.08032065069917589,0.5068932910829782
1776443426570094300,29.85509423828125,0.2875871078133583,-0.0697548695538193,0.5957815348476171
1776443426595110400,29.8801103515625,0.45825339801125226,0.25450979952728375,0.7697299885213374
1776443426620126500,29.90512646484375,0.03775426885485649,-0.5449830389698967,1.2006231589853762
1776443426645142500,29.930142578125,-0.4821942821016535,0.6375996190752834,1.169099308952689
1776443426670158300,29.955158447265624,0.4869429744660854,0.8578579154379665,0.6442986052572727
1776443426695174400,29.98017431640625,-0.13027126104328782,0.5473919632751494,0.38784956302940843
1776443426720190500,30.0051904296875,-0.03207863437123597,0.4106003240197897,-0.6297580387294293
1776443426745206300,30.030206298828126,-0.03509820138812065,-0.31880167270116505,-0.9504133034080267
1776443426770222300,30.055222412109377,1.062652612143755,-0.18500640225019305,-0.3572247076630592
1776443426795237600,30.080237548828126,-0.24515202419850973,-0.059686461737658826,0.5498591571062803
1776443426820253400,30.10525341796875,0.00752400229666382,-0.4646941351158544,0.0982949545353651
1776443426845269500,30.13026953125,-0.5916296758651733,-0.845476134379208,-0.6207160696178674
1776443426870285600,30.15528564453125,-0.4818891982078552,-0.05695170301152393,0.16128829406499862
1776443426895301400,30.18030126953125,-0.16806991702914237,-0.09350313541525974,0.4322065911501646
1776443426920317400,30.2053173828125,0.6370995605986565,-0.16915058840531855,0.21241642375588415
1776443426945333500,30.23033349609375,0.1291431337961927,-0.6293992884196341,0.30569559595584866
1776443426970349600,30.255349609375,0.2532254040062427,-0.744549004709348,0.19518471844792365
1776443426995365400,30.280365478515623,0.03221424344964325,-0.7632387268058956,0.45748833192288874
1776443427020381400,30.30538134765625,-0.02766885510496795,-0.2404246668830514,0.0914455270320177
1776443427045397500,30.3303974609375,-0.1421101308643818,0.008487201326855574,-0.5751642787545919
1776443427070412500,30.35541259765625,-1.2925076619565485,-0.19798118076603857,-0.2523404378652572
1776443427095428600,30.3804287109375,-1.0245862085998059,-0.20467065020101144,-0.06879997998178004
1776443427120444700,30.405444580078125,-1.032011974686384,-0.28614719293704255,0.07418868728280067
1776443427145460500,30.43046044921875,-0.04074468284249305,-0.2666040871478617,0.32640169937610625
1776443427170476800,30.455476806640625,-0.0901074833612889,-0.0015134733028709887,0.8850918131917714
1776443427195492900,30.480492919921875,-0.15736491007618605,0.0386177903490141,-0.4303665162414312
1776443427220508700,30.5055087890625,-0.0819463887374848,-0.14300110662104562,-0.6523357812404632
1776443427245524700,30.530524658203124,-0.6373789620619267,-0.4125365527793765,-0.730313923934102
1776443427270540800,30.555540771484374,-0.26118542309999465,-0.21568947234349323,-0.5302016859561205
1776443427295555600,30.5805556640625,1.932732149642706,-0.19520455565955488,-2.465938862633705
1776443427320571600,30.605571533203126,0.06682846071310342,-1.6833327336654067,-3.141949533972144
1776443427345587700,30.630587646484376,0.7394470784604549,0.02147664940133691,-1.3466805661708117
1776443427370603800,30.655603759765626,1.612628089106083,1.450827169343829,-0.17436814039051532
1776443427395619600,30.68061962890625,0.10160860912799835,0.4568499609541148,0.6854518689006567
1776443427420635600,30.7056357421875,-1.2218985867261887,0.041344384035002436,0.522265047737956
1776443427445651700,30.730651611328124,1.0198100802391767,1.2256722600460053,1.1791454866707325
1776443427470667500,30.75566748046875,-1.3211392976790666,-0.012414804262237157,0.21252456030547617
1776443427495683600,30.78068359375,-1.204058978652954,0.34493575598690657,-0.5344447303533554
1776443427520699600,30.80569970703125,2.4076789813667534,2.2515856255963445,0.6232990718483925
1776443427545715700,30.8307158203125,0.6405518930096179,0.7726374734658747,0.9828291338443755
1776443427570731500,30.8557314453125,-0.9492769928544759,-0.3148930844226852,0.7265875968873501
1776443427595747600,30.88074755859375,-1.7464147743918002,-0.48898865494951604,1.0155383942693472
1776443427620764000,30.905763916015626,-0.49988129342906173,0.35684893315322697,1.756585893663764
1776443427645779700,30.93077978515625,0.05949278406277299,1.372924137713015,2.861467874249816
