time,seconds_elapsed,z,y,x
1776443396801195800,0.08619580078125,0.37675076723098755,0.05691017583012581,0.25329452753067017
1776443396826211800,0.1112119140625,0.4009733200073242,0.07007289677858353,0.2555384933948517
1776443396851227100,0.13622705078125,0.5920568704605103,0.22298607230186462,0.3316868543624878
1776443396876243000,0.161242919921875,0.5576538443565369,0.12914209067821503,0.40880078077316284
1776443396901259000,0.186259033203125,0.5414553284645081,0.0459345318377018,0.4631606340408325
1776443396926275000,0.211275146484375,0.6215518116950989,-0.051457278430461884,0.28110185265541077
1776443396951289900,0.236289794921875,0.8831387758255005,0.1348171830177307,0.18745532631874084
1776443396976306000,0.261305908203125,0.899484395980835,0.20854681730270386,0.1836811602115631
1776443397001322000,0.286322021484375,0.7953084111213684,0.34286072850227356,0.12645132839679718
1776443397026337000,0.3113369140625,0.8960217237472534,0.20711350440979004,0.08206558227539062
1776443397051356700,0.336356689453125,1.078877329826355,0.10877521336078644,0.0068323491141200066
1776443397076372700,0.361372802734375,1.292800784111023,0.3164113461971283,-0.013621379621326923
1776443397101389000,0.38638916015625,1.1748137474060059,0.22187593579292297,-0.10298975557088852
1776443397126403800,0.41140380859375,1.2176668643951416,0.19506776332855225,-0.07267832010984421
1776443397151420000,0.436419921875,1.4046742916107178,0.2922356426715851,-0.07140981405973434
1776443397176436000,0.46143603515625,1.1678556203842163,0.49169856309890747,-0.15065234899520874
1776443397201452000,0.4864521484375,0.7179149389266968,0.5808191299438477,-0.13186727464199066
1776443397226466800,0.511466796875,0.5386657118797302,0.5396047830581665,-0.12163548916578293
1776443397251483000,0.53648291015625,0.667292058467865,0.04577471315860748,0.047006670385599136
1776443397276498700,0.561498779296875,0.6780803203582764,-0.1292036771774292,0.2309602051973343
1776443397301514000,0.586513916015625,0.46752044558525085,-0.3885307013988495,0.30744650959968567
1776443397326530000,0.611530029296875,0.36855632066726685,-0.5216648578643799,0.41544193029403687
1776443397351545900,0.6365458984375,0.2802054286003113,-0.8045192360877991,0.42280763387680054
1776443397376562000,0.66156201171875,0.12864355742931366,-0.9504398703575134,0.49230480194091797
1776443397401577000,0.686576904296875,-0.06892091035842896,-1.0998765230178833,0.5238975882530212
1776443397426592800,0.7115927734375,-0.18834927678108215,-1.0764132738113403,0.3726249635219574
1776443397451608800,0.73660888671875,-0.07482755929231644,-1.106433629989624,0.3405231535434723
1776443397476625000,0.761625,0.2605729103088379,-0.9256359934806824,0.41216954588890076
1776443397501640000,0.786639892578125,0.2723997235298157,-0.8962530493736267,0.25871407985687256
1776443397526656000,0.811656005859375,0.5253826975822449,-0.7120063900947571,0.26175686717033386
1776443397551672000,0.836672119140625,0.7496559619903564,-0.5529729723930359,0.21428139507770538
1776443397576687900,0.86168798828125,-0.015288771130144596,-0.3829580247402191,-0.24752730131149292
1776443397601703000,0.886702880859375,-0.4459627568721771,0.1792072057723999,-0.11978252977132797
1776443397626719000,0.911718994140625,-0.22004204988479614,-0.1496828943490982,-0.3975849449634552
1776443397651734800,0.93673486328125,0.27833831310272217,0.28540152311325073,-0.036776527762413025
1776443397676749800,0.961749755859375,-0.10127267241477966,0.3445926308631897,0.08592298626899719
1776443397701766000,0.986765869140625,-0.19192668795585632,0.18187658488750458,0.24111782014369965
1776443397726782000,1.011781982421875,-0.24353870749473572,0.16367210447788239,0.12870845198631287
1776443397751798000,1.036798095703125,-0.15261949598789215,-0.01462438702583313,0.05660451576113701
1776443397776812800,1.061812744140625,-0.05849040672183037,0.018570981919765472,0.12148312479257584
1776443397801828900,1.086828857421875,-0.07784807682037354,0.006045160815119743,0.1685851365327835
1776443397826845000,1.111844970703125,-0.13356614112854004,-0.06945094466209412,0.1985791176557541
1776443397851861000,1.136861083984375,-0.015284408815205097,-0.06414204835891724,0.22654248774051666
1776443397876875800,1.161875732421875,0.13947151601314545,-0.27223867177963257,0.23368971049785614
1776443397901891800,1.186891845703125,0.27107322216033936,-0.2005939930677414,0.31101009249687195
1776443397926908000,1.211907958984375,0.4883522391319275,-0.30935558676719666,0.3893338441848755
1776443397951924000,1.236924072265625,0.5248813033103943,-0.1398158222436905,0.3365953266620636
1776443397976939000,1.26193896484375,0.8915920853614807,-0.060150161385536194,0.38404008746147156
1776443398001954800,1.286954833984375,0.9047456979751587,0.22665753960609436,0.34128642082214355
1776443398026971000,1.311970947265625,1.1645735502243042,0.4170670509338379,0.13877511024475098
1776443398051983600,1.336983642578125,1.0026246309280396,0.4113367199897766,0.045934781432151794
1776443398076998700,1.36199853515625,1.124982237815857,0.308616578578949,-0.47909823060035706
1776443398102014700,1.3870146484375,1.3075358867645264,0.4588325321674347,-0.7472777962684631
1776443398127030500,1.412030517578125,1.7857400178909302,0.5248053073883057,-0.6566351652145386
1776443398152045800,1.4370458984375,1.4767451286315918,0.09235334396362305,-0.6158558130264282
1776443398177062000,1.462061767578125,0.8789576292037964,0.3651670813560486,-0.22185586392879486
1776443398202077700,1.48707763671875,0.9437562823295593,-0.3127843141555786,-0.39765268564224243
1776443398227093800,1.51209375,0.516297459602356,0.5069410800933838,0.09021499752998352
1776443398252108500,1.537108642578125,0.5916804671287537,0.18092915415763855,0.46090999245643616
1776443398277124600,1.56212451171875,1.1777915954589844,-0.11495235562324524,0.2311662882566452
1776443398302140700,1.587140625,1.2405893802642822,0.008444435894489288,0.4142613112926483
1776443398327156700,1.61215673828125,1.222989559173584,-0.0793374627828598,0.5236395001411438
1776443398352171800,1.637171875,0.9689663648605347,-0.45226868987083435,0.6009988188743591
1776443398377187800,1.662187744140625,0.7090988159179688,-0.5188190937042236,0.3525773286819458
1776443398402204000,1.687203857421875,0.9367077946662903,-0.4888116419315338,0.14937236905097961
1776443398427219700,1.7122197265625,0.7591939568519592,-0.4272926151752472,-0.060086581856012344
1776443398452234800,1.73723486328125,1.7085250616073608,-0.3325980007648468,-0.010289419442415237
1776443398477250600,1.76225048828125,1.3930057287216187,-0.7694705128669739,-0.03607596084475517
1776443398502266600,1.7872666015625,0.8948438763618469,-0.9467242360115051,-0.07460062950849533
1776443398527282700,1.81228271484375,0.8960131406784058,-0.8687086701393127,-0.3213367164134979
1776443398552297500,1.83729736328125,1.2295372486114502,-0.4661315381526947,-0.39227500557899475
1776443398577313500,1.8623134765625,0.8375819325447083,-0.11662512272596359,-0.04341574013233185
1776443398602329900,1.887329833984375,0.31676122546195984,-0.21892033517360687,-0.08019878715276718
1776443398627346000,1.912345947265625,0.34536534547805786,0.004559306427836418,-0.1602974534034729
1776443398652360700,1.937360595703125,0.5699598789215088,0.4194634258747101,-0.14328806102275848
1776443398677376800,1.962376708984375,0.6124077439308167,0.6471768617630005,-0.05088212341070175
1776443398702392600,1.987392578125,0.2864495515823364,0.05594893917441368,-0.014048143289983273
1776443398727408600,2.01240869140625,0.3871612548828125,-0.3439420461654663,-0.1428583711385727
1776443398752423700,2.037423583984375,0.5935254096984863,0.15589721500873566,-0.11485077440738678
1776443398777439500,2.062439453125,1.0947538614273071,0.06257456541061401,-0.08818000555038452
1776443398802455600,2.08745556640625,1.3343232870101929,0.3788302540779114,-0.03731422871351242
1776443398827471600,2.1124716796875,0.8259556889533997,0.036743927747011185,0.17483343183994293
1776443398852486700,2.137486572265625,0.7494248747825623,-0.1252828985452652,0.30647534132003784
1776443398877502700,2.162502685546875,1.2832812070846558,-0.2666468918323517,0.3174920678138733
1776443398902518800,2.187518798828125,0.8228098154067993,-0.030718084424734116,0.5142264366149902
1776443398927534600,2.21253466796875,0.9352080821990967,0.08070871978998184,0.6271746158599854
1776443398952550700,2.237550537109375,1.3378674983978271,0.19642925262451172,0.6534044742584229
1776443398977565700,2.262565673828125,1.1027984619140625,0.13481993973255157,0.42693641781806946
1776443399002581500,2.28758154296875,0.7038337588310242,0.4196757376194,0.4591531753540039
1776443399027597600,2.31259765625,0.5916321873664856,0.23501503467559814,0.49401214718818665
1776443399052613400,2.33761328125,0.6196995973587036,0.022187571972608566,0.46882164478302
1776443399077628400,2.36262841796875,0.7742195129394531,-0.14382782578468323,0.3404635190963745
1776443399102644200,2.387644287109375,0.7005789279937744,-0.23160012066364288,0.24314388632774353
1776443399127660300,2.412660400390625,0.5493316054344177,-0.08936112374067307,0.3107920289039612
1776443399152676400,2.43767626953125,0.8529164791107178,0.13187214732170105,0.4210411608219147
1776443399177691100,2.462691162109375,0.5485888719558716,-0.506706178188324,0.3714441657066345
1776443399202707200,2.487707275390625,0.7025815844535828,-0.3691835105419159,0.3122301697731018
1776443399227723300,2.51272314453125,0.8303738236427307,-0.2875407636165619,0.43991196155548096
1776443399252739000,2.537739013671875,0.7526288032531738,-0.2262016236782074,0.3880845606327057
1776443399277755100,2.562755126953125,0.7079183459281921,0.18898725509643555,0.5355202555656433
1776443399302770400,2.5877705078125,0.6241940855979919,0.3817465901374817,0.298294335603714
1776443399327786200,2.6127861328125,0.6654403805732727,0.536950945854187,0.20921878516674042
1776443399352802300,2.63780224609375,0.8485702276229858,0.6688154935836792,0.15858852863311768
1776443399377818400,2.662818359375,0.8524425029754639,0.6471496224403381,0.13530385494232178
1776443399402833200,2.687833251953125,0.8818701505661011,0.6634703874588013,0.19880487024784088
1776443399427849200,2.71284912109375,0.7640182375907898,0.5800686478614807,0.23767444491386414
1776443399452865300,2.737865234375,0.6170992851257324,0.5800275206565857,0.5722712278366089
1776443399477881000,2.762881103515625,0.8798328638076782,0.25996047258377075,0.6819274425506592
1776443399502896400,2.787896484375,0.8488656282424927,0.19123166799545288,0.7358554601669312
1776443399527912400,2.812912353515625,0.7903762459754944,0.3866015374660492,0.8385921120643616
1776443399552928300,2.83792822265625,0.8737368583679199,0.4181518256664276,1.0813584327697754
1776443399577944300,2.8629443359375,1.1839038133621216,0.39394471049308777,1.1754262447357178
1776443399602960400,2.88796044921875,1.192880392074585,0.2849428057670593,1.1150269508361816
1776443399627975200,2.91297509765625,1.0845744609832764,0.44641703367233276,0.8947737216949463
1776443399652991200,2.9379912109375,0.9897697567939758,0.4473780691623688,0.7653149962425232
1776443399678007300,2.96300732421875,1.0263326168060303,0.38652104139328003,0.8644887804985046
1776443399703023000,2.988023193359375,1.0118420124053955,0.24526053667068481,0.8767204284667969
1776443399728038400,3.013038330078125,0.8549295663833618,0.1791592836380005,0.5254972577095032
1776443399753054500,3.038054443359375,0.5543813109397888,0.15637359023094177,0.3596148192882538
1776443399778070300,3.0630703125,0.2533492147922516,-0.10409655421972275,-0.015521065331995487
1776443399803086300,3.08808642578125,0.28014761209487915,0.061323363333940506,-0.5103335976600647
1776443399828102400,3.113102294921875,0.29065370559692383,-0.2732200622558594,-0.3968438506126404
1776443399853117200,3.1381171875,0.48080021142959595,-0.12773898243904114,-0.34439578652381897
1776443399878133200,3.16313330078125,0.5111789107322693,0.09888431429862976,-0.4277338981628418
1776443399903149300,3.1881494140625,0.6946075558662415,0.3726276159286499,-0.4586406648159027
1776443399928165000,3.2131650390625,0.7426947951316833,0.4316520392894745,-0.47043004631996155
1776443399953181200,3.23818115234375,0.6635665893554688,0.48177582025527954,-0.4716673493385315
1776443399978196500,3.263196533203125,0.6213456988334656,0.4059222340583801,-0.4466392993927002
1776443400003212300,3.28821240234375,0.5479947328567505,0.21911416947841644,-0.19864343106746674
1776443400028228400,3.313228271484375,0.5038217306137085,-0.1233551949262619,-0.004294914193451405
1776443400053244000,3.338243896484375,0.516866147518158,-0.31743907928466797,0.10581868886947632
1776443400078259000,3.363259033203125,0.7115743160247803,-0.27728426456451416,0.21229055523872375
1776443400103274800,3.388274658203125,0.8344600796699524,0.29600241780281067,0.28465700149536133
1776443400128290800,3.413290771484375,1.2937214374542236,0.3941439092159271,0.17663070559501648
1776443400153307000,3.438306884765625,1.478787899017334,0.38739338517189026,0.19643080234527588
1776443400178323000,3.463322998046875,1.5818804502487183,0.34743544459342957,0.291046142578125
1776443400203338000,3.488337890625,1.3129485845565796,0.45562076568603516,0.1201157420873642
1776443400228354000,3.51335400390625,0.9451759457588196,0.3975779712200165,0.13692229986190796
1776443400253370000,3.5383701171875,0.9072954058647156,0.7070652842521667,0.06912264972925186
1776443400278386000,3.563385986328125,0.8741569519042969,0.7899560928344727,0.00020007696002721786
1776443400303402000,3.588402099609375,0.7984179258346558,0.5990490317344666,-0.07715450972318649
1776443400328416800,3.613416748046875,0.5325242280960083,0.33737504482269287,-0.060405340045690536
1776443400353432800,3.638432861328125,0.2929646372795105,0.28737205266952515,-0.014616280794143677
1776443400378449000,3.663448974609375,0.20070576667785645,0.1518135666847229,-0.007559841498732567
1776443400403465000,3.68846484375,0.2032133936882019,-0.04805682227015495,0.04185812175273895
1776443400428480800,3.713480712890625,0.06927239894866943,-0.05313625931739807,0.14390018582344055
1776443400453496000,3.73849609375,-0.08716114610433578,-0.2534336745738983,0.21521884202957153
1776443400478512000,3.76351220703125,-0.21036620438098907,-0.3626379370689392,0.15800604224205017
1776443400503528000,3.78852783203125,0.1494828164577484,-0.36998218297958374,0.2079494446516037
1776443400528544000,3.8135439453125,0.5651114583015442,-0.520208477973938,0.22312097251415253
1776443400553560000,3.83856005859375,0.5774144530296326,-0.5128820538520813,0.18511343002319336
1776443400578574800,3.863574951171875,0.2309367060661316,-0.23977966606616974,0.18908919394016266
1776443400603591000,3.8885908203125,0.9231524467468262,-0.5278526544570923,0.18152762949466705
1776443400628607000,3.91360693359375,1.3154855966567993,-0.31194692850112915,0.2425873726606369
1776443400653622800,3.938622802734375,1.456203818321228,-0.12529323995113373,0.42286011576652527
1776443400678638800,3.963638916015625,1.5187987089157104,0.027282455936074257,0.322465181350708
1776443400703654100,3.988654052734375,1.4853036403656006,0.3270833492279053,0.2267719954252243
1776443400728670000,4.013669921875,1.5400737524032593,0.42386195063591003,0.19652846455574036
1776443400753686000,4.03868603515625,1.1296824216842651,0.6118971109390259,0.1002841368317604
1776443400778702000,4.0637021484375,0.6461362838745117,0.6472466588020325,0.16622300446033478
1776443400803718000,4.0887177734375,0.9858395457267761,0.4510355591773987,0.05227107182145119
1776443400828733000,4.11373291015625,1.1534700393676758,0.2708570063114166,0.07038348913192749
1776443400853749000,4.1387490234375,1.3444797992706299,0.16804265975952148,0.127822607755661
1776443400878764800,4.163764892578125,1.654307246208191,-0.1628820300102234,0.10098373889923096
1776443400903780900,4.18878076171875,1.6930946111679077,-0.2512803077697754,-0.02932528406381607
1776443400928797000,4.213796875,1.4456413984298706,-0.1503351330757141,0.012721678242087364
1776443400953812000,4.23881201171875,1.1545217037200928,-0.30262547731399536,-0.030401282012462616
1776443400978828000,4.263828125,0.8107225298881531,-0.33285823464393616,-0.11753471195697784
1776443401003844000,4.288843994140625,0.8064359426498413,-0.23693101108074188,-0.18435916304588318
1776443401028860000,4.31385986328125,0.9456976652145386,-0.15973716974258423,-0.15332727134227753
1776443401053875700,4.338875732421875,1.0125422477722168,-0.16408242285251617,-0.1427600234746933
1776443401078890800,4.363890869140625,1.0467967987060547,-0.04044962674379349,-0.13748474419116974
1776443401103906600,4.388906494140625,0.9893171191215515,0.07371725887060165,-0.15564416348934174
1776443401128922600,4.413922607421875,0.9888710379600525,0.04703078791499138,-0.15444600582122803
1776443401153938700,4.438938720703125,0.9835227727890015,-0.1664273589849472,-0.24813763797283173
1776443401178954500,4.46395458984375,0.9359001517295837,-0.06645345687866211,-0.21643799543380737
1776443401203970600,4.488970458984375,0.8676455020904541,-0.23103128373622894,-0.2893369197845459
1776443401228985900,4.51398583984375,0.8015538454055786,-0.3149069845676422,-0.29829737544059753
1776443401254001700,4.539001708984375,0.8753079175949097,-0.3580440878868103,-0.2858102321624756
1776443401279017700,4.564017822265625,0.7582823038101196,-0.2942900061607361,-0.27699682116508484
1776443401304033800,4.58903369140625,0.932275116443634,-0.46558046340942383,-0.17219123244285583
1776443401329049600,4.614049560546875,1.1037155389785767,-0.36394402384757996,0.009355945512652397
1776443401354064600,4.639064697265625,1.1672104597091675,-0.1730303019285202,0.05852411687374115
1776443401379080700,4.664080810546875,1.3811781406402588,0.06744261085987091,0.059997450560331345
1776443401404096500,4.689096435546875,1.5895085334777832,0.28469038009643555,0.3146975040435791
1776443401429112600,4.714112548828125,1.2030577659606934,0.5426657795906067,0.5092150568962097
1776443401454128600,4.739128662109375,1.3614848852157593,0.3976993262767792,0.5255377888679504
1776443401479143700,4.764143798828125,1.2724659442901611,0.5334306359291077,0.6469483971595764
1776443401504159700,4.78915966796875,1.0982294082641602,0.38999009132385254,0.8350215554237366
1776443401529175800,4.81417578125,0.8274994492530823,0.3953457474708557,0.8537602424621582
1776443401554191600,4.839191650390625,0.8336478471755981,0.578180730342865,0.8124683499336243
1776443401579207700,4.864207763671875,0.6974332332611084,0.48789268732070923,0.7772141098976135
1776443401604223700,4.8892236328125,0.646331250667572,0.44908156991004944,0.7863585352897644
1776443401629238500,4.914238525390625,0.5557315945625305,0.1844358593225479,0.7778300046920776
1776443401654254600,4.939254638671875,0.5632075667381287,0.10369108617305756,0.7509368062019348
1776443401679270700,4.964270751953125,0.4375537931919098,-0.08839548379182816,0.5857897400856018
1776443401704286500,4.989286376953125,0.27502983808517456,-0.15901783108711243,0.5998117923736572
1776443401729302500,5.014302490234375,0.3435356914997101,-0.3579476475715637,0.3395061790943146
1776443401754317800,5.03931787109375,0.5441822409629822,-0.39605414867401123,0.1836586892604828
1776443401779333600,5.064333740234375,0.8320510387420654,-0.6517173647880554,0.04751182347536087
1776443401804349700,5.089349609375,0.8994931578636169,-0.5851370096206665,-0.03507131338119507
1776443401829365800,5.11436572265625,1.0822744369506836,-1.1082615852355957,-0.20589104294776917
1776443401854381800,5.1393818359375,1.204829454421997,-1.0317755937576294,-0.14309833943843842
1776443401879397600,5.164397705078125,1.185771107673645,-0.877689778804779,-0.16368378698825836
1776443401904412700,5.18941259765625,1.175069808959961,-0.7151053547859192,-0.41551753878593445
1776443401929428500,5.214428466796875,1.1496641635894775,-0.4644830822944641,-0.4348871409893036
1776443401954444500,5.239444580078125,1.19511878490448,-0.4051329493522644,-0.42864999175071716
1776443401979460600,5.264460693359375,1.2833911180496216,-0.3776261508464813,-0.32253894209861755
1776443402004476700,5.2894765625,1.249796986579895,-0.3565669357776642,-0.1710415929555893
1776443402029492700,5.31449267578125,1.1891690492630005,-0.3367130160331726,-0.11266618967056274
1776443402054507800,5.3395078125,1.278913140296936,-0.23931264877319336,0.01753333956003189
1776443402079523800,5.36452392578125,1.379538655281067,-0.1805775910615921,0.18448564410209656
1776443402104540000,5.389539794921875,1.4221447706222534,-0.21359896659851074,0.32327747344970703
1776443402129555700,5.4145556640625,1.3787142038345337,-0.19129809737205505,0.4269412159919739
1776443402154571800,5.43957177734375,1.1835936307907104,-0.1420121192932129,0.4795282185077667
1776443402179586800,5.4645869140625,1.014868974685669,-0.0392598919570446,0.4430259168148041
1776443402204602600,5.4896025390625,0.9582899212837219,0.10622807592153549,0.4013039767742157
1776443402229618700,5.51461865234375,0.8791980743408203,0.20686669647693634,0.35601571202278137
1776443402254634800,5.539634765625,0.8073920607566833,0.26254069805145264,0.3728095591068268
1776443402279650800,5.56465087890625,0.8772240877151489,0.28422170877456665,0.4302489757537842
1776443402304667000,5.5896669921875,0.8885111212730408,0.2578773498535156,0.4571194648742676
1776443402329682000,5.614681884765625,0.8983824253082275,0.17956659197807312,0.4164251983165741
1776443402354697700,5.63969775390625,0.958511233329773,0.16101355850696564,0.3440346419811249
1776443402379713800,5.6647138671875,1.0092504024505615,0.1367320418357849,0.25134432315826416
1776443402404729900,5.689729736328125,1.0252621173858643,0.0553981214761734,0.18887072801589966
1776443402429745700,5.71474560546875,1.0322315692901611,-0.02124752476811409,0.1599922627210617
1776443402454761700,5.73976171875,0.658591091632843,0.04940350726246834,0.14837734401226044
1776443402479776800,5.76477685546875,0.2244870811700821,0.026622429490089417,-0.030477695167064667
1776443402504792600,5.78979248046875,0.3566727936267853,0.31319883465766907,0.11406508088111877
1776443402529808600,5.81480859375,0.564369261264801,0.1660735011100769,0.2465852051973343
1776443402554824700,5.83982470703125,0.5974316000938416,0.06495478004217148,0.2933855652809143
1776443402579840800,5.8648408203125,0.5478797554969788,0.01223044004291296,0.23092594742774963
1776443402604856800,5.88985693359375,0.5106399655342102,0.03315582871437073,0.1782556027173996
1776443402629871900,5.914871826171875,0.47799310088157654,0.12656210362911224,0.21510614454746246
1776443402654887700,5.9398876953125,0.39789533615112305,0.036377180367708206,0.2602623999118805
1776443402679903700,5.96490380859375,0.3080815374851227,-0.03917675465345383,0.4624687135219574
1776443402704919800,5.989919921875,0.23099397122859955,-0.10722316801548004,0.510897696018219
1776443402729936000,6.014935791015625,0.2937662601470947,-0.08228277415037155,0.4407773017883301
1776443402754951700,6.03995166015625,0.2849575877189636,-0.04482448846101761,0.4310820996761322
1776443402779966700,6.064966796875,0.4391322433948517,0.17152568697929382,0.5753997564315796
1776443402804982800,6.089982666015625,0.4973050057888031,-0.062684565782547,0.5392882227897644
1776443402829998800,6.114998779296875,0.5766922235488892,-0.12845660746097565,0.5804170966148376
1776443402855015000,6.140014892578125,0.7090649604797363,-0.19871556758880615,0.4976200759410858
1776443402880031000,6.165031005859375,0.7680787444114685,-0.04411784186959267,0.4760730564594269
1776443402905046800,6.190046875,0.8270735740661621,0.07798796147108078,0.46266746520996094
1776443402930061800,6.215061767578125,0.8550266623497009,0.19353921711444855,0.4629637897014618
1776443402955078000,6.240077880859375,0.8467543721199036,0.020296745002269745,0.33718353509902954
1776443402980093700,6.26509375,0.8210293054580688,0.03270433470606804,0.2770479917526245
1776443403005109800,6.29010986328125,0.9718875288963318,-0.05943844094872475,0.17283321917057037
1776443403030125800,6.315125732421875,1.1826242208480835,0.08881764858961105,0.2511981725692749
1776443403055143000,6.340142822265625,1.3498897552490234,0.03134038671851158,0.23669500648975372
1776443403080158000,6.365157958984375,1.3984642028808594,0.1382247656583786,0.22749164700508118
1776443403105173800,6.390173828125,1.4901682138442993,0.11763040721416473,0.20663456618785858
1776443403130189800,6.41518994140625,1.5938621759414673,0.16709530353546143,0.2166636884212494
1776443403155206000,6.440205810546875,1.6024826765060425,0.15888355672359467,0.13126005232334137
1776443403180221700,6.4652216796875,1.5403366088867188,0.286083847284317,0.06302156299352646
1776443403205237800,6.49023779296875,1.5621018409729004,0.26308056712150574,-0.018679656088352203
1776443403230253000,6.515253173828125,1.4249110221862793,0.24284154176712036,-0.03432123735547066
1776443403255268900,6.540268798828125,1.1574004888534546,0.383506178855896,-0.025471899658441544
1776443403280285000,6.565284912109375,1.110805630683899,0.3324929475784302,-0.04387550428509712
1776443403305301000,6.590301025390625,1.0988242626190186,0.24183598160743713,0.005057307425886393
1776443403330316800,6.61531689453125,0.8751431107521057,0.13403809070587158,0.018080126494169235
1776443403355332900,6.640332763671875,0.6139597296714783,0.011746310628950596,0.02771441638469696
1776443403380348000,6.665347900390625,0.4303360879421234,-0.04358852654695511,0.10927509516477585
1776443403405363700,6.69036376953125,0.29198864102363586,0.0061911894008517265,0.2642623484134674
1776443403430379800,6.7153798828125,0.27874869108200073,0.04385925084352493,0.4264500141143799
1776443403455395800,6.740395751953125,0.2998798191547394,-0.05608994886279106,0.4063512980937958
1776443403480412000,6.765411865234375,0.23413649201393127,-0.10879497230052948,0.31165727972984314
1776443403505427700,6.790427734375,0.23861031234264374,-0.1151323989033699,0.30065760016441345
1776443403530443000,6.815443115234375,0.8912989497184753,-0.002790020778775215,0.41431725025177
1776443403555458800,6.840458740234375,1.014224648475647,0.2263905107975006,0.4560660123825073
1776443403580475000,6.865474853515625,0.6816157102584839,0.19458864629268646,0.23611892759799957
1776443403605491000,6.890490966796875,0.5437750220298767,0.25986137986183167,0.19099245965480804
1776443403630507000,6.915507080078125,0.8229286670684814,0.2570316195487976,0.2956528961658478
1776443403655522800,6.940522705078125,1.140061616897583,0.5362351536750793,0.48012155294418335
1776443403680537900,6.965537841796875,1.1096235513687134,0.7610085606575012,0.5632250308990479
1776443403705554000,6.990553955078125,1.3972002267837524,0.5569591522216797,0.4383944869041443
1776443403730569700,7.01556982421875,1.468455195426941,0.4917156398296356,0.3504813611507416
1776443403755585800,7.040585693359375,1.3325140476226807,0.40427321195602417,0.23408424854278564
1776443403780601900,7.065601806640625,1.0676826238632202,0.4108629524707794,0.19432449340820312
1776443403805618000,7.090617919921875,0.9729090929031372,0.42202097177505493,0.16092197597026825
1776443403830634000,7.115634033203125,0.8532156944274902,0.46057918667793274,0.11265657097101212
1776443403855649000,7.14064892578125,0.7499556541442871,0.2686278522014618,0.05373387411236763
1776443403880664800,7.165664794921875,0.9357481598854065,0.1045236587524414,0.040278077125549316
1776443403905681000,7.190680908203125,1.235828161239624,0.32736703753471375,0.09094003587961197
1776443403930697000,7.215697021484375,1.4952671527862549,0.4164818227291107,0.107402004301548
1776443403955712800,7.240712646484375,1.7360872030258179,0.30153688788414,0.15883341431617737
1776443403980728800,7.265728759765625,1.9877698421478271,0.25882938504219055,0.15624305605888367
1776443404005743900,7.290743896484375,1.9761778116226196,0.2943805158138275,0.1891356110572815
1776443404030760000,7.315760009765625,1.9286662340164185,0.33985376358032227,0.23122739791870117
1776443404055775200,7.340775146484375,1.927115797996521,0.12168847769498825,0.22864682972431183
1776443404080791300,7.365791259765625,1.8837741613388062,0.0902152806520462,0.2859150767326355
1776443404105807400,7.390807373046875,1.7480919361114502,0.05130622535943985,0.3072967529296875
1776443404130823200,7.4158232421875,1.2122734785079956,0.024983219802379608,0.31531229615211487
1776443404155838200,7.440838134765625,1.1217743158340454,-0.02964797616004944,0.2623840570449829
1776443404180854000,7.46585400390625,1.123091220855713,0.026886381208896637,0.28609803318977356
1776443404205870000,7.4908701171875,1.0750762224197388,0.0045643094927072525,0.2514092028141022
1776443404230886100,7.51588623046875,1.1199572086334229,0.012562425807118416,0.2998567223548889
1776443404255902200,7.540902099609375,1.112967610359192,0.12853261828422546,0.2854704260826111
1776443404280918000,7.56591796875,1.1135482788085938,0.2702086567878723,0.2504095137119293
1776443404305933300,7.590933349609375,0.8972524404525757,0.029976725578308105,0.12453915923833847
1776443404330949400,7.615949462890625,0.7087413668632507,0.5658188462257385,0.24466563761234283
1776443404355965200,7.640965087890625,0.5496097207069397,0.1866222769021988,0.17754843831062317
1776443404380981200,7.665981201171875,0.46748191118240356,0.3200094997882843,0.2176719605922699
1776443404405997300,7.690997314453125,0.36339887976646423,0.15782088041305542,0.14258113503456116
1776443404431013000,7.71601318359375,0.4081682562828064,0.11123064905405045,0.14053188264369965
1776443404456029200,7.741029296875,0.5321537852287292,0.15724676847457886,0.13290263712406158
1776443404481044200,7.766044189453125,0.5547618865966797,0.003956310451030731,0.04365464672446251
1776443404506060000,7.79106005859375,0.7507631182670593,0.4011629521846771,0.16098330914974213
1776443404531076000,7.816076171875,0.9548376798629761,0.3780111074447632,0.09589748084545135
1776443404556092200,7.841092041015625,0.9446409940719604,0.23979532718658447,-0.0029569698963314295
1776443404581108000,7.86610791015625,1.246455430984497,0.4933074414730072,-0.0026544202119112015
1776443404606124300,7.891124267578125,1.1880598068237305,0.11863143742084503,-0.3012374937534332
1776443404631139300,7.916139404296875,0.9426127076148987,-0.09135428816080093,-0.374091237783432
1776443404656155100,7.941155029296875,0.8115769028663635,0.300884872674942,-0.2658257484436035
1776443404681171200,7.966171142578125,0.781341016292572,-0.31262966990470886,-0.39236530661582947
1776443404706187300,7.991187255859375,0.5681248307228088,-0.44426560401916504,-0.33569079637527466
1776443404731203000,8.016203125,0.5120381712913513,-0.511100172996521,-0.30235493183135986
1776443404756219100,8.04121923828125,0.5379648208618164,-0.5940732359886169,-0.31142815947532654
1776443404781235200,8.066235107421875,0.43938180804252625,-0.37007081508636475,-0.4181331396102905
1776443404806250000,8.09125,0.5899342894554138,0.023428387939929962,-0.3762306571006775
1776443404831266000,8.11626611328125,0.5414445400238037,0.49920713901519775,-0.09833762049674988
1776443404856282000,8.1412822265625,0.5596402883529663,0.7109601497650146,0.2730903923511505
1776443404881298200,8.166298095703125,0.42084088921546936,0.574056088924408,0.3213895857334137
1776443404906314200,8.191314208984375,0.3418797552585602,0.36993902921676636,0.36662498116493225
1776443404931330300,8.216330322265625,0.33532625436782837,0.14097534120082855,0.32679346203804016
1776443404956345000,8.241344970703125,0.34613415598869324,0.0051637571305036545,0.33984649181365967
1776443404981361200,8.266361083984375,0.16333290934562683,0.03925358131527901,0.3442869484424591
1776443405006377200,8.291377197265625,0.40377721190452576,-0.08474118262529373,0.23665013909339905
1776443405031393300,8.316393310546875,0.6653872132301331,-0.198577418923378,0.19952362775802612
1776443405056408600,8.34140869140625,0.8185815811157227,-0.18644335865974426,0.14798866212368011
1776443405081424600,8.366424560546875,0.962543785572052,0.06007345765829086,0.11051218956708908
1776443405106440700,8.391440673828125,1.1128084659576416,-0.018820740282535553,0.020947638899087906
1776443405131455700,8.416455810546875,1.0924161672592163,-0.05062345415353775,-0.06575034558773041
1776443405156471800,8.441471923828125,0.72172611951828,-0.26475685834884644,-0.24577213823795319
1776443405181487900,8.46648779296875,0.31165578961372375,-0.26404595375061035,-0.18494261801242828
1776443405206503700,8.491503662109375,0.45922714471817017,-0.2954053282737732,-0.04055807739496231
1776443405231519700,8.516519775390625,0.7832667231559753,-0.19719171524047852,0.089241623878479
1776443405256535800,8.541535888671875,0.640353262424469,0.19297848641872406,0.23014146089553833
1776443405281551600,8.566551513671875,0.7954434752464294,0.3408316373825073,0.3622796833515167
1776443405306566700,8.591566650390625,0.7823130488395691,0.39288219809532166,0.4167729616165161
1776443405331582700,8.616582763671875,0.8877875208854675,0.3134610950946808,0.5122767090797424
1776443405356598500,8.6415986328125,0.9321216940879822,0.11712648719549179,0.6707547903060913
1776443405381614600,8.666614501953125,1.089179277420044,-0.03141288086771965,0.5336209535598755
1776443405406630700,8.691630615234375,1.2529515027999878,-0.0008094720542430878,0.29533106088638306
1776443405431646500,8.716646484375,1.3566033840179443,-0.02227078750729561,0.07758191227912903
1776443405456661800,8.741661865234375,1.52461838722229,0.172698974609375,-0.15740302205085754
1776443405481677800,8.766677734375,1.6210300922393799,0.22880372405052185,-0.31512951850891113
1776443405506693600,8.791693603515625,1.5793063640594482,0.1337699592113495,-0.1947997361421585
1776443405531709700,8.816709716796876,1.5198028087615967,0.06748589873313904,-0.1426447331905365
1776443405556725800,8.841725830078126,1.3485597372055054,-0.031832657754421234,-0.21962620317935944
1776443405581741800,8.866741943359376,1.1306185722351074,-0.220675528049469,-0.27711936831474304
1776443405606757600,8.891757568359376,1.022585391998291,-0.41287216544151306,-0.30271250009536743
1776443405631772700,8.916772705078126,1.0145069360733032,-0.4697469472885132,-0.42407500743865967
1776443405656788500,8.94178857421875,0.8131482005119324,-0.49414166808128357,-0.42010852694511414
1776443405681804500,8.966804443359376,0.511322021484375,-0.5441614389419556,-0.36695659160614014
1776443405706820600,8.991820556640626,0.5279068350791931,-0.45580852031707764,-0.2991305887699127
1776443405731836700,9.016836669921876,0.6517209410667419,-0.3540346622467041,-0.2835215926170349
1776443405756852700,9.041852783203124,0.677567183971405,-0.15503910183906555,-0.1763412207365036
1776443405781868800,9.066868896484374,0.7857629060745239,-0.010582364164292812,-0.030055169016122818
1776443405806883600,9.091883544921876,0.8920166492462158,0.13914960622787476,0.104478619992733
1776443405831899600,9.116899658203126,0.9101098775863647,0.29652246832847595,0.2232288122177124
1776443405856915700,9.141915771484374,0.950964629650116,0.36737704277038574,0.287862092256546
1776443405881931800,9.166931884765624,1.004895806312561,0.4007876515388489,0.19390887022018433
1776443405906947600,9.191947509765624,0.7641881108283997,0.22161951661109924,0.14720693230628967
1776443405931963600,9.216963623046874,0.028559915721416473,-0.15731710195541382,0.04357811436057091
1776443405956979700,9.241979736328124,0.15941408276557922,-0.32164615392684937,0.0029202564619481564
1776443405981994800,9.266994873046874,0.27339258790016174,-0.1436045914888382,-0.13363434374332428
1776443406007010800,9.2920107421875,0.3599298596382141,0.08155297487974167,-0.21683740615844727
1776443406032027000,9.31702685546875,0.4216664731502533,0.043130919337272644,-0.10303135216236115
1776443406057043500,9.34204345703125,0.41190651059150696,0.09022866934537888,0.017724018543958664
1776443406082059500,9.3670595703125,0.4196445643901825,0.07392580807209015,0.09490829706192017
1776443406107075600,9.39207568359375,0.47480159997940063,-0.06932009011507034,-0.10999221354722977
1776443406132091600,9.417091552734375,0.5906916856765747,-0.014138326980173588,-0.22674785554409027
1776443406157106700,9.442106689453125,0.70356684923172,0.16507288813591003,-0.22039031982421875
1776443406182122800,9.467122802734375,0.8143037557601929,0.1739598512649536,-0.28202536702156067
1776443406207138600,9.492138671875,0.8652058243751526,0.27121779322624207,-0.2532309293746948
1776443406232154600,9.517154541015625,0.9428516030311584,-0.14316396415233612,-0.33099696040153503
1776443406257170700,9.542170654296875,1.1296180486679077,-0.18672829866409302,-0.2844688296318054
1776443406282186800,9.567186767578125,1.1866542100906372,-0.4022211730480194,-0.19187769293785095
1776443406307202600,9.59220263671875,1.1210166215896606,-0.2537507712841034,-0.028282247483730316
1776443406332217600,9.617217529296875,1.097371220588684,-0.20810066163539886,0.06812097132205963
1776443406357233700,9.642233642578125,1.1857309341430664,-0.12815506756305695,0.21607863903045654
1776443406382249500,9.66724951171875,1.3394932746887207,-0.267587274312973,0.2927868962287903
1776443406407265500,9.692265625,1.4004429578781128,-0.057030919939279556,0.4264499247074127
1776443406432281900,9.71728173828125,1.3386197090148926,-0.006729130167514086,0.526607096195221
1776443406457297700,9.742297607421875,1.2924962043762207,-0.08533531427383423,0.3728369176387787
1776443406482313700,9.767313720703125,1.3450965881347656,-0.0033278856426477432,0.32461968064308167
1776443406507328800,9.792328857421875,1.3354572057724,0.04906609654426575,0.3767451345920563
1776443406532344600,9.817344482421875,1.2733113765716553,0.010133118368685246,0.3250349164009094
1776443406557360600,9.842360595703125,1.291285753250122,-0.00677604041993618,0.19362156093120575
1776443406582376700,9.867376708984375,1.378326416015625,0.15193778276443481,0.18784166872501373
1776443406607392500,9.892392578125,1.2124592065811157,0.29574349522590637,0.24849721789360046
1776443406632408600,9.91740869140625,0.9438905119895935,0.014415932819247246,0.10118881613016129
1776443406657424600,9.942424560546876,0.8821288347244263,0.06249940022826195,0.004543650429695845
1776443406682439700,9.967439697265625,0.8489171266555786,0.1175495982170105,-0.03403989225625992
1776443406707455700,9.992455810546875,0.6126193404197693,0.14421074092388153,-0.0009207334369421005
1776443406732471800,10.017471923828126,0.41681739687919617,0.1412251889705658,0.036703404039144516
1776443406757487600,10.042487548828126,0.43246427178382874,0.05479064956307411,0.04665900766849518
1776443406782503700,10.067503662109376,0.38839107751846313,-0.08751237392425537,0.04425554350018501
1776443406807519700,10.092519775390626,0.29565900564193726,-0.17324945330619812,0.031341906636953354
1776443406832535800,10.117535888671876,0.19845841825008392,-0.16022589802742004,0.07490494102239609
1776443406857550600,10.142550537109376,0.21888940036296844,-0.05422794073820114,0.1793668270111084
1776443406882566700,10.167566650390626,0.18888835608959198,0.035302966833114624,0.1848432421684265
1776443406907582700,10.192582763671876,0.35035499930381775,-0.05773720517754555,0.061343055218458176
1776443406932598500,10.2175986328125,0.6663952469825745,-0.13394491374492645,0.03793768584728241
1776443406957614600,10.242614501953126,0.7786019444465637,0.036252789199352264,0.05243140086531639
1776443406982630700,10.267630615234374,0.7722960710525513,-0.08804438263177872,-0.05373452231287956
1776443407007646500,10.292646484375,1.1904175281524658,-0.11551914364099503,-0.031385790556669235
1776443407032662500,10.31766259765625,1.1759014129638672,-0.07487555593252182,-0.02342038042843342
1776443407057677300,10.34267724609375,1.1715834140777588,-0.39709797501564026,0.04492788016796112
1776443407082693400,10.367693359375,1.5335924625396729,-0.612617552280426,0.21121609210968018
1776443407107709400,10.39270947265625,1.5547208786010742,-0.4304036796092987,0.4171619117259979
1776443407132725200,10.417725341796874,1.2619761228561401,-0.4437696039676666,0.5608466863632202
1776443407157741300,10.4427412109375,1.1478955745697021,-0.514512300491333,0.4501419961452484
1776443407182757400,10.46775732421875,1.1795240640640259,-0.23924480378627777,0.497051864862442
1776443407207773200,10.492773193359374,1.220373511314392,-0.20884178578853607,0.5773468017578125
1776443407232788200,10.517788330078124,1.0815112590789795,-0.0921526700258255,0.6204373836517334
1776443407257804300,10.54280419921875,1.2139861583709717,-0.09319004416465759,0.6477883458137512
1776443407282820400,10.5678203125,1.2763962745666504,-0.17343324422836304,0.601315438747406
1776443407307836400,10.59283642578125,1.3948289155960083,-0.4871642589569092,0.48969677090644836
1776443407332852500,10.6178525390625,1.3983837366104126,-0.4556230902671814,0.5158557891845703
1776443407357868500,10.64286865234375,1.4684661626815796,-0.3436514139175415,0.4910101592540741
1776443407382884400,10.66788427734375,1.5176116228103638,-0.2820747494697571,0.4003446400165558
1776443407407899400,10.6928994140625,1.6738704442977905,-0.14107687771320343,0.32265549898147583
1776443407432915200,10.717915283203125,1.6631046533584595,0.053601186722517014,0.30741214752197266
1776443407457931300,10.74293115234375,1.4040017127990723,0.08435890078544617,0.12029554694890976
1776443407482947300,10.767947265625,1.1242464780807495,0.45528966188430786,0.08923395723104477
1776443407507963400,10.79296337890625,0.9175957441329956,0.327467143535614,-0.03923492133617401
1776443407532979200,10.817979248046875,0.8771870732307434,0.22572192549705505,-0.21131770312786102
1776443407557995300,10.842995361328125,0.9484703540802002,0.29466819763183594,-0.14503447711467743
1776443407583011300,10.86801123046875,1.173598051071167,0.28121185302734375,-0.05276687815785408
1776443407608026400,10.8930263671875,1.3540637493133545,0.10956190526485443,0.2617046535015106
1776443407633042400,10.91804248046875,1.5792933702468872,-0.12249796092510223,0.28822359442710876
1776443407658058500,10.94305859375,1.550112247467041,-0.11241404712200165,0.2659066617488861
1776443407683074300,10.96807421875,1.3474534749984741,-0.1289711892604828,0.2080146074295044
1776443407708090400,10.99309033203125,1.252287745475769,0.09229923784732819,0.298374205827713
1776443407733106400,11.0181064453125,1.2242324352264404,-0.027130842208862305,0.0849081352353096
1776443407758122200,11.043122314453125,1.0479657649993896,0.3491893410682678,0.3077441453933716
1776443407783137300,11.06813720703125,1.096323013305664,0.3304063677787781,0.17292112112045288
1776443407808153300,11.0931533203125,1.0357887744903564,0.4317254424095154,0.13428090512752533
1776443407833169200,11.118169189453125,1.1349478960037231,0.3313371241092682,0.18622203171253204
1776443407858185200,11.143185302734375,1.2058409452438354,0.40836015343666077,0.26191431283950806
1776443407883201300,11.168201171875,1.2462072372436523,0.03174913674592972,0.3691709637641907
1776443407908217300,11.19321728515625,1.5455987453460693,-0.22000809013843536,0.30719292163848877
1776443407933233200,11.218233154296875,1.4333076477050781,-0.16983914375305176,0.26033884286880493
1776443407958249200,11.243249267578125,1.373932957649231,-0.2280421108007431,0.29786941409111023
1776443407983264300,11.26826416015625,1.2885597944259644,-0.06634822487831116,0.36666956543922424
1776443408008280300,11.2932802734375,1.1375031471252441,0.10779349505901337,0.3655671775341034
1776443408033296400,11.31829638671875,0.8527190089225769,0.15982641279697418,0.4884858727455139
1776443408058312400,11.3433125,0.6524724960327148,0.23130369186401367,0.559361457824707
1776443408083328300,11.368328369140626,0.6255487203598022,0.23379077017307281,0.5460248589515686
1776443408108344300,11.39334423828125,0.681155264377594,0.21304857730865479,0.5230762362480164
1776443408133360400,11.4183603515625,0.6282739639282227,0.0749041736125946,0.49099278450012207
1776443408158376200,11.443376220703126,0.4783475995063782,0.03581486642360687,0.4425819516181946
1776443408183391200,11.46839111328125,0.38739585876464844,-0.16447052359580994,0.21405194699764252
1776443408208407300,11.4934072265625,0.405918151140213,-0.24345384538173676,0.0629911720752716
1776443408233423400,11.51842333984375,0.3489845395088196,-0.10080249607563019,0.033688995987176895
1776443408258439400,11.543439453125,0.31639811396598816,-0.11982429772615433,0.028960686177015305
1776443408283455500,11.56845556640625,0.2873784303665161,-0.2607605755329132,-0.16474133729934692
1776443408308471300,11.59347119140625,0.16375982761383057,-0.3448750376701355,-0.17226840555667877
1776443408333487400,11.6184873046875,0.2610642910003662,-0.13262265920639038,0.02090623788535595
1776443408358503400,11.64350341796875,0.7223626375198364,-0.21589282155036926,-0.012964753434062004
1776443408383518200,11.668518310546874,0.9641555547714233,-0.30080851912498474,-0.19851678609848022
1776443408408534300,11.6935341796875,0.8933396935462952,-0.05327245220541954,-0.23721525073051453
1776443408433550300,11.71855029296875,0.8667964935302734,-0.11319656670093536,-0.4609732925891876
1776443408458566400,11.74356640625,0.90342777967453,-0.016896558925509453,-0.40804678201675415
1776443408483582200,11.768582275390624,0.8442070484161377,0.06362903863191605,-0.419944167137146
1776443408508598300,11.793598388671874,0.7298951148986816,0.2546788156032562,-0.5097032785415649
1776443408533614300,11.8186142578125,0.9020000100135803,0.37386688590049744,-0.443543940782547
1776443408558630100,11.843630126953125,0.9245133399963379,0.24876542389392853,-0.41857996582984924
1776443408583645400,11.8686455078125,1.0253769159317017,-0.24365326762199402,-0.45932623744010925
1776443408608661500,11.89366162109375,1.1656293869018555,-0.2742510437965393,-0.3127928078174591
1776443408633677300,11.91867724609375,1.111881971359253,-0.49468180537223816,-0.2508231997489929
1776443408658693400,11.943693359375,1.1307892799377441,-0.5619673132896423,-0.10902352631092072
1776443408683709400,11.96870947265625,1.2066431045532227,-0.4237123131752014,0.12019916623830795
1776443408708725200,11.993725341796875,1.2540063858032227,-0.2967451810836792,0.13128848373889923
1776443408733741300,12.0187412109375,1.4123637676239014,-0.23834021389484406,0.08533527702093124
1776443408758757400,12.04375732421875,1.3165764808654785,-0.04305816441774368,0.15429286658763885
1776443408783772200,12.068772216796875,0.8508601784706116,0.042057279497385025,0.09365607798099518
1776443408808788200,12.093788330078125,0.46432340145111084,0.396800696849823,0.14939479529857635
1776443408833804300,12.11880419921875,0.30704987049102783,0.5441606640815735,0.23469045758247375
1776443408858820000,12.143820068359375,0.443355530500412,0.28036901354789734,0.29732486605644226
1776443408883836200,12.168836181640625,0.6419388651847839,0.07258722931146622,0.2691865861415863
1776443408908852200,12.193852294921875,0.7959470748901367,-0.11865197122097015,0.2780506908893585
1776443408933868300,12.218868408203125,0.8720019459724426,-0.10009045898914337,0.19143347442150116
1776443408958884400,12.24388427734375,0.9505395889282227,-0.08834373950958252,0.08769167214632034
1776443408983899400,12.2688994140625,1.1374014616012573,-0.1085522398352623,0.21654219925403595
1776443409008915500,12.29391552734375,1.2253408432006836,-0.13304449617862701,0.3189682960510254
1776443409033931300,12.31893115234375,1.1635528802871704,-0.1383916139602661,0.27739137411117554
1776443409058946800,12.34394677734375,1.1373788118362427,-0.16002722084522247,0.2786969840526581
1776443409083962600,12.368962646484375,0.9860299825668335,-0.09950892627239227,0.38403552770614624
1776443409108978700,12.393978759765625,0.8492926359176636,-0.05973998084664345,0.3783671259880066
1776443409133994800,12.418994873046875,0.7671303749084473,-0.030424408614635468,0.2897978127002716
1776443409159010800,12.4440107421875,0.5322869420051575,0.1885042041540146,0.23215632140636444
1776443409184025900,12.46902587890625,0.41433054208755493,0.05539663881063461,0.1257762908935547
1776443409209042000,12.4940419921875,0.45380470156669617,0.01573672890663147,0.16475796699523926
1776443409234057700,12.5190576171875,0.4960232675075531,-0.031162835657596588,0.20074906945228577
1776443409259073800,12.54407373046875,0.6030636429786682,-0.03663066774606705,0.3955370783805847
1776443409284089900,12.56908984375,0.5434852838516235,0.05698388069868088,0.3672131299972534
1776443409309106000,12.59410595703125,0.5852748155593872,-0.05086427181959152,0.3009309768676758
1776443409334121700,12.619121826171876,0.5778715014457703,0.01008981466293335,0.32382673025131226
1776443409359137800,12.6441376953125,0.5615420341491699,-0.20206786692142487,0.28773033618927
1776443409384152800,12.66915283203125,0.6054794192314148,-0.375590980052948,0.2129536122083664
1776443409409168600,12.694168701171876,0.7073192596435547,-0.5100095272064209,0.1863563358783722
1776443409434184700,12.719184814453126,0.7950786352157593,-0.6763677000999451,0.22338280081748962
1776443409459200800,12.74420068359375,0.8751891851425171,-0.703628420829773,0.16924746334552765
1776443409484216600,12.769216552734376,0.7263621687889099,-0.6423694491386414,0.035049594938755035
1776443409509232600,12.794232666015626,0.6813379526138306,-0.4043634235858917,0.06347604095935822
1776443409534248700,12.819248779296874,0.8104006052017212,-0.10519124567508698,0.13022728264331818
1776443409559264800,12.8442646484375,0.8601071834564209,0.1311623454093933,0.175189808011055
1776443409584280800,12.86928076171875,0.909340500831604,0.21117521822452545,0.40618622303009033
1776443409609296000,12.8942958984375,1.0428637266159058,0.41185900568962097,0.6293638348579407
1776443409634311700,12.919311767578124,1.0239288806915283,0.3156405985355377,0.6876718401908875
1776443409659327700,12.94432763671875,0.950049877166748,0.37152841687202454,0.8009213209152222
1776443409684343800,12.96934375,0.9085572957992554,0.3847680687904358,0.7344204783439636
1776443409709359900,12.99435986328125,0.899553120136261,-0.021044496446847916,0.5383724570274353
1776443409734375700,13.019375732421874,0.8780590295791626,0.16076822578907013,0.6517012715339661
1776443409759391700,13.044391845703124,0.8526788353919983,0.032786689698696136,0.5923697352409363
1776443409784407800,13.06940771484375,0.9058759808540344,0.20030948519706726,0.7079760432243347
1776443409809422800,13.0944228515625,1.0485895872116089,0.13218127191066742,0.7475085854530334
1776443409834439000,13.11943896484375,1.0897282361984253,-0.09494542330503464,0.6531379222869873
1776443409859455000,13.144455078125,1.0747183561325073,-0.06930015981197357,0.6839897036552429
1776443409884470800,13.169470703125,1.143247365951538,-0.061483051627874374,0.7752653956413269
1776443409909486800,13.19448681640625,1.1612402200698853,-0.06957903504371643,0.8749127984046936
1776443409934503000,13.2195029296875,1.1678320169448853,-0.09892398118972778,0.8690382838249207
1776443409959518700,13.244518798828125,1.0944139957427979,-0.1607469618320465,0.8447558879852295
1776443409984534800,13.26953466796875,1.0036145448684692,-0.01651027239859104,0.8870753049850464
1776443410009550800,13.29455078125,0.8049699068069458,-0.2371421903371811,0.7623957395553589
1776443410034565600,13.319565673828125,0.7328791618347168,-0.16687412559986115,0.7400330305099487
1776443410059582700,13.344582763671875,0.7295571565628052,-0.24656717479228973,0.7075159549713135
1776443410084598500,13.3695986328125,0.7125430107116699,-0.22030842304229736,0.6399713754653931
1776443410109614600,13.394614501953125,0.5747425556182861,-0.20886579155921936,0.5914793014526367
1776443410134630700,13.419630615234375,0.5538692474365234,-0.18285728991031647,0.4338494539260864
1776443410159646700,13.444646728515625,0.5552042722702026,-0.11441592872142792,0.25617432594299316
1776443410184662500,13.46966259765625,0.5598781108856201,-0.008189944550395012,0.01803845353424549
1776443410209678600,13.4946787109375,0.5773987770080566,0.10412099957466125,-0.1809139847755432
1776443410234694700,13.519694580078125,0.6250464916229248,0.19323496520519257,-0.3381188213825226
1776443410259709700,13.544709716796875,0.6464119553565979,0.3675636947154999,-0.4505915939807892
1776443410284725800,13.569725830078125,0.7194291353225708,0.4589765965938568,-0.5815259218215942
1776443410309741800,13.594741943359375,0.8591132760047913,0.6162717938423157,-0.5899004340171814
1776443410334757600,13.619757568359375,0.8261252641677856,0.7132540345191956,-0.5473231077194214
1776443410359773700,13.644773681640626,0.7677343487739563,0.7725858092308044,-0.5523797869682312
1776443410384789800,13.669789794921876,0.757218599319458,0.8728580474853516,-0.4891420006752014
1776443410409805600,13.6948056640625,0.7045468688011169,0.8204582333564758,-0.4438335597515106
1776443410434821600,13.719821533203126,0.6548344492912292,0.7499099969863892,-0.4057064950466156
1776443410459837700,13.744837646484376,0.5920626521110535,0.552251398563385,-0.35493019223213196
1776443410484852500,13.7698525390625,0.5357719659805298,0.4724469482898712,-0.2743024230003357
1776443410509868500,13.79486865234375,0.44120925664901733,0.24264097213745117,-0.24600312113761902
1776443410534884600,13.819884521484376,0.2536599040031433,0.052782099694013596,-0.2545247972011566
1776443410559900700,13.844900634765626,0.1795850694179535,-0.0521429181098938,-0.18870222568511963
1776443410584916500,13.86991650390625,0.2872452735900879,-0.04379363730549812,-0.020824728533625603
1776443410609932500,13.8949326171875,0.38655510544776917,-0.025176865980029106,0.11796826869249344
1776443410634948600,13.919948486328124,0.40191084146499634,0.010173340328037739,0.15525685250759125
1776443410659964700,13.944964599609374,0.5081344842910767,0.04982674866914749,0.06663446873426437
1776443410684980700,13.969980712890624,0.7462149858474731,0.23366855084896088,0.16220791637897491
1776443410709995800,13.994995849609374,0.9261706471443176,0.3167586326599121,0.20502060651779175
1776443410735011600,14.020011474609374,1.024006962776184,0.34265777468681335,0.22886596620082855
1776443410760027600,14.045027587890624,1.1080418825149536,0.13884814083576202,0.28925198316574097
1776443410785043700,14.070043701171874,0.9027481079101562,0.24371540546417236,0.27991631627082825
1776443410810059500,14.0950595703125,0.8216745853424072,0.22388403117656708,0.22150182723999023
1776443410835075600,14.12007568359375,0.6387529373168945,0.07003017514944077,0.16107089817523956
1776443410860091600,14.145091552734375,0.4167774021625519,-0.16582943499088287,0.06007082015275955
1776443410885107700,14.170107666015625,0.4615108370780945,-0.19508492946624756,0.10279083997011185
1776443410910123500,14.19512353515625,0.5914860963821411,-0.13911207020282745,0.15744787454605103
1776443410935138800,14.220138916015625,0.6925362944602966,0.00024407822638750076,0.06451597809791565
1776443410960154600,14.245154541015625,0.8604398369789124,0.19995218515396118,-0.13368895649909973
1776443410985170700,14.270170654296875,1.0810816287994385,0.4495058059692383,-0.24103619158267975
1776443411010186800,14.295186767578125,1.2058435678482056,0.5671205520629883,-0.3624346852302551
1776443411035202800,14.320202880859375,1.3188111782073975,0.7177628874778748,-0.34850701689720154
1776443411060218400,14.34521826171875,1.395071029663086,0.7364569306373596,-0.24863672256469727
1776443411085234400,14.370234375,1.3557565212249756,0.5438756346702576,-0.27324050664901733
1776443411110250500,14.39525048828125,1.211193323135376,0.4932921826839447,-0.24593347311019897
1776443411135266600,14.4202666015625,1.0873827934265137,0.259914755821228,-0.2150350958108902
1776443411160282400,14.445282470703125,1.0385807752609253,0.11664538830518723,-0.13532380759716034
1776443411185297400,14.47029736328125,0.9186514616012573,-0.08969536423683167,-0.0226459763944149
1776443411210313500,14.4953134765625,0.7823194265365601,-0.20565125346183777,0.09642209112644196
1776443411235329300,14.520329345703125,0.7878287434577942,-0.40657153725624084,0.044045474380254745
1776443411260345300,14.545345458984375,0.7694406509399414,-0.6906233429908752,0.03745309263467789
1776443411285361400,14.570361328125,0.8742866516113281,-0.517315149307251,0.11124508827924728
1776443411310377500,14.59537744140625,1.0551608800888062,-0.5952911376953125,0.10383298993110657
1776443411335393500,14.6203935546875,1.2058558464050293,-0.5710018277168274,0.116078682243824
1776443411360409600,14.64540966796875,1.3967483043670654,-0.38139432668685913,0.2623522877693176
1776443411385425400,14.67042529296875,1.644563913345337,-0.29268956184387207,0.33597472310066223
1776443411410440400,14.6954404296875,1.8290088176727295,-0.22892189025878906,0.3301211893558502
1776443411435456500,14.72045654296875,1.917819619178772,-0.21268796920776367,0.34659191966056824
1776443411460472300,14.745472412109375,1.807403802871704,-0.3616606593132019,0.2949203848838806
1776443411485488400,14.77048828125,1.665850043296814,-0.5634616613388062,0.182911217212677
1776443411510504400,14.79550439453125,1.5348879098892212,-0.6861022710800171,0.027169950306415558
1776443411535520500,14.8205205078125,1.5718858242034912,-0.6615128517150879,0.005526694934815168
1776443411560536300,14.845536376953126,1.5609536170959473,-0.7313772439956665,-0.08228763937950134
1776443411585552400,14.870552490234376,1.730258584022522,-0.6531345248222351,-0.0699535682797432
1776443411610568400,14.895568359375,1.8420610427856445,-0.4887717366218567,0.013044493272900581
1776443411635583500,14.92058349609375,1.9791818857192993,-0.42179667949676514,0.018607396632432938
1776443411660599600,14.945599609375,2.1767659187316895,-0.20990358293056488,0.1558033525943756
1776443411685615600,14.97061572265625,2.2534024715423584,-0.005757355131208897,0.29281920194625854
1776443411710631400,14.99563134765625,2.162078857421875,0.17422261834144592,0.42865094542503357
1776443411735647500,15.0206474609375,1.921897530555725,0.22150695323944092,0.5234582424163818
1776443411760663600,15.04566357421875,1.6233218908309937,0.5492791533470154,0.7176876664161682
1776443411785679400,15.070679443359374,1.2638429403305054,0.6972495913505554,0.7324946522712708
1776443411810695400,15.0956953125,1.0478686094284058,0.8260359764099121,0.7529336214065552
1776443411835711500,15.12071142578125,0.9100481271743774,0.8464241027832031,0.8274382948875427
1776443411860727600,15.1457275390625,0.7879980802536011,0.7581751942634583,0.8570173978805542
1776443411885742300,15.170742431640624,0.48623931407928467,0.5596956014633179,0.8259328603744507
1776443411910758400,15.19575830078125,0.30574169754981995,0.4812830984592438,0.795657217502594
1776443411935774200,15.220774169921874,0.21440723538398743,0.35835742950439453,0.6523054838180542
1776443411960790300,15.245790283203124,0.10408449918031693,0.15519492328166962,0.5087242722511292
1776443411985806600,15.270806640625,-0.009937699884176254,0.06136784702539444,0.35251739621162415
1776443412010822700,15.29582275390625,0.1199026107788086,-0.043780162930488586,0.13017164170742035
1776443412035838500,15.32083837890625,0.2778770923614502,0.05094067379832268,-0.01030021347105503
1776443412060854300,15.345854248046875,0.3611924350261688,-0.07661324739456177,-0.11271141469478607
1776443412085870300,15.370870361328125,0.4657907485961914,-0.1367468535900116,-0.17010748386383057
1776443412110885000,15.395885009765625,0.43396255373954773,-0.17360934615135193,-0.20983676612377167
1776443412135901200,15.420901123046875,0.22047367691993713,-0.12902337312698364,-0.11436180770397186
1776443412160917000,15.4459169921875,0.058419253677129745,0.13073600828647614,0.04506981745362282
1776443412185933000,15.47093310546875,0.17258420586585999,0.13044361770153046,0.04965180903673172
1776443412210949000,15.49594921875,0.5365802645683289,0.16426007449626923,0.11455857753753662
1776443412235965200,15.520965087890625,0.8738160729408264,0.18283909559249878,0.2290469855070114
1776443412260981000,15.54598095703125,1.0880482196807861,0.3749764859676361,0.23068217933177948
1776443412285997000,15.5709970703125,1.388780951499939,0.4925650358200073,0.14195479452610016
1776443412311013000,15.59601318359375,1.7451698780059814,0.6065126657485962,-0.05490629002451897
1776443412336029000,15.62102880859375,1.7858192920684814,0.5999829769134521,-0.03312496840953827
1776443412361044200,15.646044189453125,1.7607089281082153,0.527342677116394,0.20021328330039978
1776443412386060300,15.671060302734375,1.9327236413955688,0.45511528849601746,0.2958000600337982
1776443412411076000,15.696076171875,1.9613265991210938,0.41298091411590576,0.28204020857810974
1776443412436092200,15.721092041015625,1.7421692609786987,0.5549373626708984,0.3031732738018036
1776443412461108200,15.746108154296875,1.7067369222640991,0.6903674006462097,0.20048534870147705
1776443412486124000,15.7711240234375,1.6458756923675537,0.7446925044059753,0.03726763278245926
1776443412511140000,15.79614013671875,1.3276339769363403,0.6977174878120422,0.08470730483531952
1776443412536156200,15.82115625,0.9933597445487976,0.5510822534561157,0.20195774734020233
1776443412561172200,15.846172119140626,0.6842597126960754,0.25075802206993103,0.19357025623321533
1776443412586188000,15.87118798828125,0.5939365029335022,-0.124610036611557,0.19143739342689514
1776443412611203000,15.896203125,0.7955742478370667,-0.10036765784025192,0.10058198869228363
1776443412636219100,15.92121923828125,1.0752582550048828,0.1294744312763214,0.06704975664615631
1776443412661235200,15.946235107421876,1.0887600183486938,0.35253840684890747,0.06146290898323059
1776443412686251300,15.971251220703126,0.7146255970001221,0.4974053204059601,0.11574132740497589
1776443412711267300,15.996267333984376,0.5715587139129639,0.4232270419597626,0.1341066062450409
1776443412736283100,16.021283203125,0.9036088585853577,0.5335731506347656,0.20815429091453552
1776443412761299200,16.04629931640625,0.8930299878120422,0.08964991569519043,0.05443648621439934
1776443412786315300,16.071315185546876,0.8500750660896301,-0.033687442541122437,-0.0082778325304389
1776443412811331000,16.0963310546875,0.7887935638427734,-0.08105241507291794,-0.152287557721138
1776443412836347100,16.12134716796875,0.5628579258918762,-0.14781787991523743,-0.2838082015514374
1776443412861362200,16.146362060546874,0.3785994052886963,-0.40464457869529724,-0.13825136423110962
1776443412886378000,16.1713779296875,0.4631766080856323,-0.5015460252761841,-0.2519688308238983
1776443412911394000,16.19639404296875,0.47624555230140686,-0.10964478552341461,-0.25012704730033875
1776443412936410000,16.22141015625,0.492075651884079,-0.08509109914302826,-0.24854697287082672
1776443412961426200,16.24642626953125,0.5857805609703064,-0.16447606682777405,-0.27218136191368103
1776443412986442000,16.27144189453125,0.6260121464729309,-0.2138361632823944,-0.3839476704597473
1776443413011458000,16.2964580078125,0.6402105093002319,-0.24107025563716888,-0.42157694697380066
1776443413036474000,16.32147412109375,0.624748170375824,-0.23136530816555023,-0.37244802713394165
1776443413061490400,16.346490478515626,0.5929614901542664,-0.061547983437776566,-0.3618110716342926
1776443413086506500,16.371506591796877,0.6954993009567261,-0.021416638046503067,-0.39505669474601746
1776443413111521500,16.396521484375,0.8224391341209412,-0.03494798392057419,-0.360664963722229
1776443413136537600,16.42153759765625,0.9637094736099243,-0.0557999387383461,-0.17382250726222992
1776443413161553700,16.4465537109375,1.11456298828125,-0.015969477593898773,-0.10817765444517136
1776443413186569500,16.471569580078125,1.2205328941345215,-0.057887084782123566,-0.014743299223482609
1776443413211585500,16.49658544921875,1.3049534559249878,-0.2712894380092621,0.06704172492027283
1776443413236601600,16.5216015625,1.2909021377563477,-0.17589722573757172,0.09510897845029831
1776443413261617700,16.54661767578125,1.2156951427459717,-0.21297980844974518,0.11169057339429855
1776443413286633500,16.571633544921873,1.1937676668167114,-0.15040385723114014,0.010901955887675285
1776443413311649500,16.5966494140625,1.251478672027588,-0.136404886841774,-0.1192808747291565
1776443413336665600,16.62166552734375,1.3201286792755127,-0.1352299451828003,-0.109735868871212
1776443413361680400,16.646680419921875,1.3257203102111816,-0.15963105857372284,-0.09223465621471405
1776443413386696700,16.67169677734375,1.2901586294174194,-0.09294158965349197,-0.08142013847827911
1776443413411712800,16.696712646484375,1.3419570922851562,-0.015202978625893593,-0.026552356779575348
1776443413436728600,16.721728515625,1.4334385395050049,-0.09175276756286621,0.049292419105768204
1776443413461744600,16.74674462890625,1.3786362409591675,-0.19479475915431976,0.12565037608146667
1776443413486760700,16.7717607421875,1.2956746816635132,-0.15332792699337006,0.17760007083415985
1776443413511776500,16.796776611328124,1.25093412399292,-0.1522854119539261,0.12436813116073608
1776443413536792600,16.82179248046875,1.2698262929916382,-0.11596529185771942,0.10217258334159851
1776443413561808600,16.84680859375,1.181565284729004,-0.05854494869709015,0.09963738173246384
1776443413586824700,16.87182470703125,0.9526195526123047,-0.062288716435432434,-0.030049260705709457
1776443413611839500,16.896839599609375,0.8501901030540466,0.020335476845502853,-0.1722853034734726
1776443413636855600,16.92185546875,0.7499852180480957,0.08959518373012543,-0.2303384393453598
1776443413661871600,16.94687158203125,0.4906465709209442,0.14500382542610168,-0.19197632372379303
1776443413686887400,16.971887451171874,0.3023195266723633,0.16502466797828674,-0.18002130091190338
1776443413711903500,16.996903564453124,0.5241555571556091,-0.047619886696338654,-0.10374637693166733
1776443413736919600,17.02191943359375,0.7151933312416077,-0.22687004506587982,-0.03430062532424927
1776443413761935400,17.046935302734376,0.6209052205085754,-0.4232766926288605,0.03169598802924156
1776443413786951400,17.071951416015626,0.8612313270568848,-0.3205674886703491,0.10308442264795303
1776443413811967500,17.096967529296876,1.2296664714813232,-0.475968599319458,0.030184879899024963
1776443413836983800,17.12198388671875,1.5536009073257446,-0.310406357049942,0.3780271112918854
1776443413861998600,17.14699853515625,1.6657768487930298,-0.35684967041015625,0.46691107749938965
1776443413887014700,17.1720146484375,1.4843387603759766,-0.3622329831123352,0.44133806228637695
1776443413912030500,17.197030517578124,1.4135825634002686,-0.21895726025104523,0.4064992368221283
1776443413937046500,17.222046630859374,1.2995351552963257,-0.1081075519323349,0.49736836552619934
1776443413962062600,17.2470625,1.3625766038894653,-0.5119593143463135,0.334861695766449
1776443413987078700,17.27207861328125,1.521547794342041,-0.5248681306838989,0.18763305246829987
1776443414012094500,17.297094482421876,1.6855528354644775,-0.2924427092075348,0.29760944843292236
1776443414037110500,17.322110595703126,1.8767050504684448,-0.25128069519996643,0.38571372628211975
1776443414062129400,17.34712939453125,1.9621578454971313,-0.3124915063381195,0.4249891936779022
1776443414087145200,17.372145263671875,2.160168170928955,-0.16954287886619568,0.4623241424560547
1776443414112161300,17.397161376953125,2.16048264503479,-0.2747972309589386,0.2844630777835846
1776443414137176600,17.422176513671875,2.172976493835449,-0.15399298071861267,0.39232778549194336
1776443414162192400,17.4471923828125,1.9353535175323486,0.0947193056344986,0.4483124613761902
1776443414187208400,17.47220849609375,1.6392290592193604,0.2279156595468521,0.40919700264930725
1776443414212224500,17.497224609375,1.4153087139129639,0.3605732321739197,0.26881372928619385
1776443414237240300,17.522240234375,1.1155691146850586,0.5502804517745972,0.09954674541950226
1776443414262256400,17.54725634765625,1.0844340324401855,0.6435044407844543,0.07187920063734055
1776443414287272400,17.5722724609375,1.2935922145843506,0.6135745048522949,0.20245876908302307
1776443414312288300,17.597288330078126,1.4012178182601929,0.6264270544052124,0.2805975377559662
1776443414337304300,17.62230419921875,1.1907881498336792,0.7221279740333557,0.24096634984016418
1776443414362320400,17.6473203125,1.1511272192001343,0.7858673930168152,0.21529348194599152
1776443414387336400,17.67233642578125,0.9699292778968811,0.701222836971283,0.38819071650505066
1776443414412351500,17.6973515625,0.9452596306800842,0.6057494878768921,0.4423292279243469
1776443414437367600,17.722367431640624,0.9549852013587952,0.48891013860702515,0.37619373202323914
1776443414462383600,17.747383544921874,0.6772484183311462,0.1998041868209839,0.6698620319366455
1776443414487399400,17.7723994140625,0.840310275554657,0.029030796140432358,0.3303013741970062
1776443414512415500,17.79741552734375,0.7458698153495789,-0.19859911501407623,0.28763002157211304
1776443414537431600,17.822431640625,0.8145335912704468,-0.3986111283302307,0.11471542716026306
1776443414562447400,17.847447265625,0.735914409160614,-0.2969490885734558,0.012064785696566105
1776443414587463400,17.87246337890625,0.8047727942466736,-0.4988199472427368,0.13053199648857117
1776443414612479500,17.8974794921875,0.652243435382843,-0.680968701839447,-0.08039595186710358
1776443414637495600,17.92249560546875,0.547937273979187,-0.04003514349460602,-0.07593894004821777
1776443414662510300,17.94751025390625,0.42352452874183655,-0.03423197567462921,0.006965803448110819
1776443414687526400,17.9725263671875,0.5591995120048523,-0.05794212594628334,0.06682450324296951
1776443414712542200,17.997542236328126,0.7616549134254456,0.002798834815621376,0.11464669555425644
1776443414737558300,18.022558349609376,1.053226113319397,-0.19622424244880676,0.2212800234556198
1776443414762574300,18.04757421875,0.7660115957260132,-0.08845902979373932,0.1724577248096466
1776443414787590400,18.07259033203125,0.2327260673046112,-0.2799484431743622,0.04620984569191933
1776443414812606200,18.097606201171875,0.017484311014413834,-0.17616550624370575,0.0010119765065610409
1776443414837622500,18.12262255859375,0.03742846101522446,-0.5135473608970642,-0.11850704252719879
1776443414862638600,18.147638671875,0.22944211959838867,-0.49850374460220337,-0.16684859991073608
1776443414887654400,18.172654296875,0.3312651813030243,-0.6512037515640259,-0.07446012645959854
1776443414912670500,18.19767041015625,0.3735010325908661,-0.7618200182914734,0.08098991960287094
1776443414937685500,18.222685546875,0.45554426312446594,-0.9850351810455322,0.1760127991437912
1776443414962701300,18.247701416015627,0.6775916814804077,-1.0548701286315918,0.04520042985677719
1776443414987717400,18.27271728515625,0.9036759734153748,-0.9720454216003418,-0.14316852390766144
1776443415012733400,18.2977333984375,1.1565496921539307,-0.7508512735366821,-0.20929987728595734
1776443415037749200,18.322749267578125,1.0701978206634521,-0.634350061416626,-0.23644289374351501
1776443415062761500,18.347761474609374,0.7369479537010193,-0.39138156175613403,-0.23118239641189575
1776443415087777500,18.372777587890624,0.6787664294242859,-0.2665751278400421,-0.3839080035686493
1776443415112793600,18.397793701171874,0.47236958146095276,-0.13560952246189117,-0.3953268229961395
1776443415137809700,18.4228095703125,0.4727453291416168,-0.32151731848716736,-0.48921018838882446
1776443415162825500,18.447825439453126,0.40745609998703003,0.02026762068271637,-0.4400695562362671
1776443415187841500,18.472841552734376,0.6143118143081665,0.28534114360809326,-0.27821165323257446
1776443415212856600,18.497856689453126,0.7972019910812378,0.552621066570282,-0.28558480739593506
1776443415237872600,18.52287255859375,0.6723042130470276,0.7139931917190552,-0.20671404898166656
1776443415262888700,18.547888671875,0.2837780714035034,0.6700750589370728,-0.17247027158737183
1776443415287904800,18.57290478515625,0.355610191822052,0.6114770770072937,-0.09840025752782822
1776443415312920600,18.597920654296875,0.8855137228965759,0.6311149001121521,0.19783484935760498
1776443415337936600,18.6229365234375,0.9117248058319092,0.6428205966949463,0.3203071653842926
1776443415362952700,18.64795263671875,1.0999610424041748,0.44468244910240173,0.23815172910690308
1776443415387968500,18.672968505859377,1.2357991933822632,0.46934136748313904,0.22653807699680328
1776443415412984600,18.697984619140627,1.2386133670806885,0.4062381386756897,0.27433550357818604
1776443415438000600,18.723000732421873,1.329480767250061,0.2092393934726715,0.4685249626636505
1776443415463016700,18.7480166015625,1.6429857015609741,-0.18595582246780396,0.5655084252357483
1776443415488031700,18.77303173828125,2.087679862976074,-0.3985884189605713,0.6741936802864075
1776443415513047800,18.7980478515625,2.3780250549316406,-0.33595943450927734,0.8339425325393677
1776443415538064000,18.82306396484375,2.0232181549072266,-0.5199083089828491,0.8090833425521851
1776443415563079700,18.84807958984375,1.7474945783615112,-0.8320860862731934,0.9639607667922974
1776443415588095700,18.873095703125,1.3213903903961182,-0.5348171591758728,0.8645135164260864
1776443415613111800,18.89811181640625,0.7849886417388916,0.1497822403907776,0.4806169271469116
1776443415638127600,18.923127685546874,0.5958672761917114,0.7118428349494934,0.187897190451622
1776443415663143700,18.948143798828124,0.6421359777450562,0.46996229887008667,0.1405099779367447
1776443415688159700,18.97315966796875,0.6347401142120361,0.2524469494819641,0.27374425530433655
1776443415713175600,18.998175537109375,0.5723392963409424,0.22444169223308563,0.4283936619758606
1776443415738191600,19.023191650390626,0.6539745330810547,0.3607116937637329,0.36137819290161133
1776443415763206700,19.04820654296875,0.5620030760765076,0.5285537838935852,0.026334980502724648
1776443415788222500,19.073222412109374,0.6032535433769226,0.38523760437965393,-0.2574370801448822
1776443415813238500,19.098238525390624,0.5847751498222351,0.1610468178987503,-0.1980162113904953
1776443415838254600,19.123254638671874,0.6117386221885681,0.060708481818437576,-0.3342510163784027
1776443415863270700,19.148270751953124,0.7644594311714172,-0.40382325649261475,-0.624821662902832
1776443415888286500,19.173286376953126,0.8418402075767517,-0.40907326340675354,-0.5684986114501953
1776443415913302800,19.198302734375,1.1682713031768799,-0.39121371507644653,-0.3514992594718933
1776443415938318800,19.22331884765625,1.4513400793075562,-0.0016622534021735191,0.04599553346633911
1776443415963334700,19.248334716796876,1.6820411682128906,0.35717883706092834,0.36567509174346924
1776443415988350700,19.273350830078126,1.7694096565246582,0.6801660060882568,0.629741907119751
1776443416013366800,19.29836669921875,1.8121140003204346,0.6579159498214722,0.6270933747291565
1776443416038382800,19.3233828125,1.831536889076233,0.35842084884643555,0.5595996975898743
1776443416063398700,19.348398681640624,1.8337228298187256,-0.06880007684230804,0.4441251754760742
1776443416088414500,19.37341455078125,1.9078987836837769,-0.3644847869873047,0.4040317237377167
1776443416113430500,19.398430419921876,1.6653697490692139,-0.45245248079299927,0.351049542427063
1776443416138446600,19.423446533203126,1.6440993547439575,-0.4345921277999878,0.34007641673088074
1776443416163462700,19.448462646484376,1.5727157592773438,-0.3092033267021179,0.361009806394577
1776443416188478500,19.473478515625,1.6509066820144653,-0.2232125997543335,0.49541622400283813
1776443416213494500,19.49849462890625,1.7723393440246582,0.1407853364944458,0.6813167333602905
1776443416238510600,19.523510498046875,1.8201767206192017,0.15731170773506165,0.681681752204895
1776443416263526400,19.5485263671875,1.598795771598816,0.24526476860046387,0.5529890656471252
1776443416288542500,19.57354248046875,1.3353391885757446,-0.04601525142788887,0.3372076451778412
1776443416313558500,19.59855859375,1.1282142400741577,-0.0928930938243866,0.2172330617904663
1776443416338574300,19.62357421875,0.9134042263031006,-0.04328029602766037,0.07937061041593552
1776443416363589600,19.648589599609377,0.7899829149246216,0.053660713136196136,-0.0841013640165329
1776443416388605700,19.673605712890627,0.8399251699447632,-0.02451966516673565,-0.21797968447208405
1776443416413621500,19.69862158203125,0.8414596915245056,-0.009770398028194904,-0.3206748962402344
1776443416438637600,19.723637451171875,0.8865203857421875,0.1685132384300232,-0.35290369391441345
1776443416463653600,19.748653564453125,0.9385467767715454,0.37120550870895386,-0.35245656967163086
1776443416488669700,19.773669677734375,1.0440199375152588,0.3169352412223816,-0.369003564119339
1776443416513685500,19.798685546875,1.1093989610671997,0.3387439548969269,-0.2895895540714264
1776443416538701600,19.82370166015625,0.9513739943504333,0.40254634618759155,-0.1788647472858429
1776443416563717600,19.848717529296874,0.6182853579521179,0.44034630060195923,-0.24719533324241638
1776443416588733400,19.8737333984375,0.42479318380355835,0.16425856947898865,-0.31726911664009094
1776443416613749500,19.89874951171875,0.3714490234851837,-0.0657937228679657,-0.1837516725063324
1776443416638765600,19.923765625,0.1573396474123001,-0.052252430468797684,-0.135996013879776
1776443416663781600,19.94878173828125,0.4617235064506531,-0.21913430094718933,-0.07933641225099564
1776443416688796400,19.97379638671875,0.5664806365966797,-0.202754408121109,0.16680791974067688
1776443416713812500,19.9988125,0.8240364193916321,-0.15978315472602844,0.4060995578765869
1776443416738828500,20.02382861328125,1.207924246788025,-0.01834879256784916,0.5106557607650757
1776443416763844600,20.0488447265625,1.450371503829956,-0.18914997577667236,0.5735576152801514
1776443416788860700,20.073860595703124,1.6506561040878296,-0.2072983831167221,0.6540197730064392
1776443416813876700,20.098876708984374,1.7397537231445312,-0.343455970287323,0.561138927936554
1776443416838892500,20.123892578125,1.7112693786621094,-0.35269367694854736,0.46284547448158264
1776443416863908600,20.14890869140625,1.702319860458374,-0.30555036664009094,0.4084260165691376
1776443416888924700,20.173924560546876,1.7784767150878906,-0.20328085124492645,0.32106801867485046
1776443416913940500,20.1989404296875,1.9752507209777832,-0.11196376383304596,0.38129884004592896
1776443416938956500,20.22395654296875,2.038072109222412,-0.05506449565291405,0.4263100326061249
1776443416963972600,20.24897265625,2.017108678817749,-0.09779597818851471,0.3260143995285034
1776443416988988700,20.27398876953125,1.9946541786193848,-0.11543965339660645,0.287202924489975
1776443417014003500,20.29900341796875,1.9852393865585327,0.002474904991686344,0.34804728627204895
1776443417039019500,20.32401953125,1.9484950304031372,-0.17096544802188873,0.2925574481487274
1776443417064035600,20.34903564453125,1.6976706981658936,-0.23163117468357086,0.16207736730575562
1776443417089051600,20.3740517578125,1.3415067195892334,-0.16484394669532776,0.030379485338926315
1776443417114067500,20.3990673828125,1.1305437088012695,-0.0064187501557171345,-0.08481455594301224
1776443417139083500,20.42408349609375,1.2262060642242432,0.05036499723792076,-0.11928264051675797
1776443417164099600,20.449099609375,1.5925219058990479,0.2592361271381378,-0.1590459793806076
1776443417189115600,20.47411572265625,1.6701704263687134,0.14301982522010803,-0.28899478912353516
1776443417214131700,20.499131591796875,1.5559674501419067,0.2909303605556488,-0.28415578603744507
1776443417239147800,20.524147705078125,1.4743542671203613,0.3070407807826996,-0.24200071394443512
1776443417264163800,20.549163818359375,1.5382890701293945,0.5235688090324402,-0.18082331120967865
1776443417289179600,20.5741796875,1.4265239238739014,0.5438233613967896,-0.10522167384624481
1776443417314195700,20.59919580078125,1.6462209224700928,0.7969115972518921,0.1463165134191513
1776443417339211800,20.624211669921873,1.4854685068130493,0.7061514854431152,0.45747652649879456
1776443417364226600,20.6492265625,1.2128193378448486,0.36036568880081177,0.5593464374542236
1776443417389242600,20.67424267578125,1.0040664672851562,0.19069123268127441,0.664709210395813
1776443417414258700,20.6992587890625,1.088301181793213,0.05413123220205307,0.72292160987854
1776443417439274500,20.7242744140625,0.7371410131454468,-0.15509311854839325,0.6892659068107605
1776443417464290600,20.74929052734375,0.5392846465110779,-0.15940827131271362,0.6548687219619751
1776443417489306600,20.774306640625,0.3971700966358185,-0.17796310782432556,0.6152194142341614
1776443417514322700,20.79932275390625,0.4440268278121948,0.017611868679523468,0.6568682789802551
1776443417539338500,20.82433837890625,0.6616718769073486,0.13920991122722626,0.612223744392395
1776443417564354600,20.8493544921875,0.6549925804138184,0.3322567939758301,0.5965543389320374
1776443417589370600,20.87437060546875,0.38383325934410095,0.2711988687515259,0.42197689414024353
1776443417614386400,20.899386474609376,0.22698451578617096,0.09609401226043701,0.27521204948425293
1776443417639402800,20.92440283203125,0.4097418189048767,0.21231621503829956,0.2789393961429596
1776443417664418800,20.949418701171876,0.578285813331604,0.1394389420747757,0.1249866634607315
1776443417689435000,20.974434814453126,0.2900915741920471,-0.05137030407786369,0.00978078506886959
1776443417714449700,20.99944970703125,0.2426796406507492,-0.23172728717327118,0.03395066782832146
1776443417739465700,21.0244658203125,0.38384315371513367,-0.3579269051551819,0.021762702614068985
1776443417764481500,21.0494814453125,0.5123499631881714,-0.32061463594436646,-0.002051522023975849
1776443417789497600,21.07449755859375,0.3491533398628235,-0.08206794410943985,-0.2130005657672882
1776443417814513700,21.099513671875,0.8775481581687927,0.4860472083091736,-0.13076956570148468
1776443417839529700,21.12452978515625,1.080162763595581,0.8483071327209473,0.07480547577142715
1776443417864545500,21.149545654296876,1.4280749559402466,1.127193570137024,0.27780845761299133
1776443417889561600,21.1745615234375,1.8596476316452026,1.120866060256958,0.35375022888183594
1776443417914577700,21.19957763671875,2.2183547019958496,1.0712438821792603,0.28127196431159973
1776443417939593500,21.224593505859374,2.2460811138153076,0.8136081099510193,0.11324453353881836
1776443417964609500,21.249609619140625,2.2912299633026123,0.676217257976532,-0.03270375356078148
1776443417989625600,21.27462548828125,2.3709657192230225,0.5253565311431885,-0.36298394203186035
1776443418014641700,21.2996416015625,2.2268495559692383,0.2703804671764374,-0.4262133538722992
1776443418039657500,21.324657470703126,1.9670825004577637,-0.19950982928276062,-0.372689425945282
1776443418064676400,21.34967626953125,1.8490098714828491,-0.36799925565719604,-0.5177927017211914
1776443418089692400,21.3746923828125,1.5362509489059448,-0.482541024684906,-0.6309052109718323
1776443418114708200,21.399708251953125,1.2644191980361938,-0.5081467628479004,-0.6060425639152527
1776443418139724300,21.424724365234376,1.0525321960449219,-0.6292698979377747,-0.5322288870811462
1776443418164740400,21.449740234375,1.0017668008804321,-0.5054190158843994,-0.49696481227874756
1776443418189756400,21.47475634765625,1.0038621425628662,-0.41080421209335327,-0.4292948544025421
1776443418214772200,21.499772216796874,1.0484615564346313,-0.2816544473171234,-0.2633918523788452
1776443418239788300,21.524788330078124,1.2658804655075073,-0.10783419758081436,-0.19950981438159943
1776443418264804400,21.549804443359374,1.545337438583374,0.10853725671768188,-0.1588107794523239
1776443418289820200,21.574820068359376,1.5301687717437744,0.1804613322019577,-0.07687358558177948
1776443418314836200,21.599836181640626,1.3813562393188477,0.18525300920009613,-0.005386274307966232
1776443418339852300,21.624852294921876,1.3570759296417236,0.2713892459869385,-0.04976614564657211
1776443418364868000,21.6498681640625,1.1898759603500366,0.19694042205810547,-0.13016414642333984
1776443418389884200,21.67488427734375,0.5715101957321167,0.07948713004589081,-0.10901149362325668
1776443418414899500,21.6998994140625,0.6096383929252625,-0.11064815521240234,-0.08030783385038376
1776443418439915300,21.724915283203124,0.4709804058074951,0.0158829428255558,0.028549710288643837
1776443418464931300,21.749931396484374,0.5692734122276306,-0.12541453540325165,-0.10278008133172989
1776443418489947400,21.774947509765624,0.5500390529632568,0.05407252907752991,-0.20263585448265076
1776443418514963500,21.79996337890625,0.48042935132980347,0.2647973299026489,-0.11099492013454437
1776443418539979300,21.824979248046876,0.6245097517967224,0.2310473918914795,0.014247698709368706
1776443418564995300,21.849995361328126,0.9275521636009216,0.2577425539493561,0.10496297478675842
1776443418590011400,21.875011474609376,0.9000941514968872,0.07455845922231674,-0.022151418030261993
1776443418615027200,21.900027099609375,0.9411532282829285,0.006495153531432152,-0.001946866512298584
1776443418640043300,21.925043212890625,1.0403105020523071,-0.24267826974391937,0.03020372986793518
1776443418665059300,21.950059326171875,1.1384495496749878,-0.17270725965499878,0.22969147562980652
1776443418690075100,21.9750751953125,1.2566827535629272,-0.18854671716690063,0.10242626816034317
1776443418715091200,22.00009130859375,1.5246150493621826,-0.1625707745552063,-0.03107275441288948
1776443418740107300,22.025107177734377,1.7451099157333374,-0.2366715520620346,-0.2812693119049072
1776443418765123300,22.050123291015623,1.8643289804458618,-0.11797688156366348,-0.37001755833625793
1776443418790138400,22.075138427734377,1.93843674659729,0.1233050599694252,-0.236366406083107
1776443418815154400,22.100154541015623,1.9635772705078125,0.2782231867313385,-0.168707013130188
1776443418840170500,22.12517041015625,2.139065742492676,0.24334442615509033,-0.156367689371109
1776443418865186300,22.150186279296875,2.240133047103882,0.08022991567850113,-0.1233045682311058
1776443418890202400,22.175202392578125,2.121614933013916,-0.0003687003627419472,0.0758984237909317
1776443418915218400,22.200218505859375,1.968194603919983,-0.02222171239554882,0.25586363673210144
1776443418940234200,22.225234130859373,1.8659309148788452,-0.13111726939678192,0.35524216294288635
1776443418965250300,22.250250244140624,1.7989816665649414,-0.22932344675064087,0.4168680012226105
1776443418990266400,22.275266357421874,1.4768813848495483,-0.27993565797805786,0.42788493633270264
1776443419015282400,22.300282470703124,1.159584879875183,-0.35995620489120483,0.3338726758956909
1776443419040298200,22.32529833984375,1.0998973846435547,-0.30640310049057007,0.3356773257255554
1776443419065309700,22.350309814453126,1.0862547159194946,-0.3352191746234894,0.324030339717865
1776443419090325800,22.37532568359375,0.9806708097457886,-0.36729133129119873,0.290143758058548
1776443419115341600,22.400341552734375,0.7716765999794006,-0.3872578740119934,0.28342753648757935
1776443419140357600,22.425357666015625,0.6547643542289734,-0.38320472836494446,0.31671983003616333
1776443419165373000,22.450373046875,0.5682874917984009,-0.40912583470344543,0.31901654601097107
1776443419190388700,22.475388671875,0.40753352642059326,-0.4532718062400818,0.2781042158603668
1776443419215404800,22.50040478515625,0.5395016670227051,-0.5522232055664062,0.27356472611427307
1776443419240420900,22.5254208984375,0.6996042728424072,-0.39320388436317444,0.2425829917192459
1776443419265437000,22.55043701171875,0.7952908277511597,-0.352886825799942,0.20165544748306274
1776443419290452700,22.57545263671875,0.7761517763137817,-0.3858645260334015,0.14010773599147797
1776443419315468800,22.60046875,0.675866961479187,-0.20712898671627045,0.14437393844127655
1776443419340484900,22.62548486328125,0.8015428781509399,-0.13344208896160126,0.11594834923744202
1776443419365500700,22.650500732421875,0.8736538887023926,-0.2080802619457245,-0.02638038992881775
1776443419390516700,22.675516845703125,0.8015207052230835,-0.16139504313468933,-0.13611488044261932
1776443419415532800,22.70053271484375,0.779936671257019,-0.054452527314424515,-0.1769208312034607
1776443419440548600,22.725548583984374,0.84695965051651,0.01780693046748638,-0.12982414662837982
1776443419465564700,22.750564697265624,1.0693604946136475,0.1766798049211502,-0.027006492018699646
1776443419490580700,22.775580810546874,1.3291611671447754,0.24549561738967896,-0.03063851036131382
1776443419515596800,22.8005966796875,1.6872026920318604,0.18172547221183777,0.062011461704969406
1776443419540612600,22.825612548828126,2.0331027507781982,0.04689175635576248,0.0849887803196907
1776443419565628700,22.850628662109376,2.2374918460845947,0.08641038089990616,0.2895529866218567
1776443419590644000,22.87564404296875,2.3996670246124268,-0.12512823939323425,0.41870662569999695
1776443419615659800,22.90065966796875,2.4618375301361084,-0.3035163879394531,0.4982827603816986
1776443419640675800,22.92567578125,2.5334692001342773,-0.3876807689666748,0.5311052799224854
1776443419665692000,22.95069189453125,2.5369412899017334,-0.44254884123802185,0.5902441740036011
1776443419690707700,22.975707763671874,2.381437301635742,-0.39191168546676636,0.6377227306365967
1776443419715723800,23.000723876953124,2.223464250564575,-0.35627445578575134,0.511428952217102
1776443419740739800,23.02573974609375,2.3477039337158203,-0.15637901425361633,0.44807904958724976
1776443419765756000,23.050755859375,2.690824508666992,-0.27551305294036865,0.36464548110961914
1776443419790771700,23.075771728515626,2.4718117713928223,0.15389172732830048,0.4759323298931122
1776443419815787800,23.100787841796876,2.6902754306793213,0.18778543174266815,0.254603773355484
1776443419840803800,23.125803955078126,2.5108141899108887,0.3150314390659332,0.4408096373081207
1776443419865819600,23.150819580078124,2.7165305614471436,0.6217081546783447,0.3067125380039215
1776443419890835700,23.175835693359375,2.7883822917938232,0.46895650029182434,0.6061603426933289
1776443419915851800,23.200851806640625,2.7821731567382812,0.4606241285800934,0.706292450428009
1776443419940867600,23.22586767578125,2.733259677886963,0.46591269969940186,0.6823499798774719
1776443419965883600,23.250883544921876,2.8471648693084717,0.31705039739608765,0.8068850040435791
1776443419990899700,23.275899658203127,2.8477933406829834,0.10548413544893265,0.9185921549797058
1776443420015914800,23.300914794921876,2.391357898712158,-0.008545896038413048,0.900718092918396
1776443420040930800,23.325930908203127,2.24653697013855,0.024892982095479965,0.6563032865524292
1776443420065948000,23.350947998046873,1.9574460983276367,-0.14624649286270142,0.6764973402023315
1776443420090964000,23.3759638671875,1.5998305082321167,0.29321643710136414,0.6595085859298706
1776443420115980000,23.40097998046875,1.594364047050476,0.4882715344429016,0.2992365062236786
1776443420140996000,23.42599609375,1.6222633123397827,-0.033440928906202316,0.4538205862045288
1776443420166012000,23.451011962890625,1.440232276916504,-0.01308322325348854,0.9255113005638123
1776443420191028000,23.476028076171875,1.2779948711395264,-0.9293884038925171,0.8553770184516907
1776443420216044000,23.5010439453125,1.363470435142517,-0.74562007188797,1.0871673822402954
1776443420241060000,23.52606005859375,1.309319257736206,-0.7547779083251953,1.0205059051513672
1776443420266076000,23.551075927734374,1.3750884532928467,-0.4821620285511017,1.2674330472946167
1776443420291092000,23.576092041015624,1.5199806690216064,-0.1257876604795456,1.4619070291519165
1776443420316108000,23.60110791015625,1.4334346055984497,-0.019104598090052605,1.5090370178222656
1776443420341123800,23.626123779296876,1.3562133312225342,0.13112273812294006,1.4607925415039062
1776443420366140000,23.651139892578126,1.3342119455337524,0.24248714745044708,1.4831957817077637
1776443420391156000,23.676156005859376,1.246423363685608,0.12676602602005005,1.480520486831665
1776443420416171800,23.701171875,1.2683247327804565,0.04705243557691574,1.3659054040908813
1776443420441187800,23.726187744140624,1.3912553787231445,0.08432518690824509,1.2226660251617432
1776443420466203000,23.751202880859374,1.4088327884674072,-0.2262311577796936,1.1389402151107788
1776443420491218700,23.77621875,1.3610721826553345,-0.3024730384349823,0.9764096736907959
1776443420516234800,23.80123486328125,1.3953715562820435,-0.1527470350265503,0.7222142219543457
1776443420541251000,23.8262509765625,1.3327518701553345,0.24612054228782654,0.694270133972168
1776443420566267100,23.85126708984375,1.1126160621643066,-0.24098382890224457,0.4476318657398224
1776443420591283000,23.876282958984376,1.053864598274231,-0.43530556559562683,0.37334853410720825
1776443420616299000,23.901299072265626,1.0902236700057983,-0.41263988614082336,0.33020561933517456
1776443420641315000,23.926315185546876,1.067020297050476,-0.45554015040397644,0.17147193849086761
1776443420666331000,23.951330810546875,1.075980305671692,-0.4964812994003296,0.030087927356362343
1776443420691347000,23.976346923828125,1.1809601783752441,-0.6825827360153198,0.03809890151023865
1776443420716364000,24.001364013671875,1.228332757949829,-0.7482417225837708,0.25945428013801575
1776443420741378800,24.02637890625,1.1464725732803345,-0.86247718334198,0.44975200295448303
1776443420766395000,24.051394775390627,1.1155157089233398,-0.8916685581207275,0.48929059505462646
1776443420791411000,24.076410888671877,1.0881727933883667,-1.0566611289978027,0.6017377972602844
1776443420816427000,24.101427001953127,0.9690058827400208,-1.0463666915893555,0.7750213146209717
1776443420841442800,24.12644287109375,0.787699818611145,-0.9516552090644836,0.8093878626823425
1776443420866459000,24.151458984375,0.7617540955543518,-1.0992904901504517,0.6236609220504761
1776443420891475000,24.176474853515625,0.8938677310943604,-0.962154746055603,0.7601543068885803
1776443420916490800,24.20149072265625,0.9791956543922424,-1.1365642547607422,0.9845931529998779
1776443420941506800,24.2265068359375,1.040401577949524,-1.0522946119308472,1.3084384202957153
1776443420966523000,24.25152294921875,0.9301961660385132,-0.9033880829811096,1.4298303127288818
1776443420991539000,24.2765390625,0.7024117112159729,-1.4192456007003784,1.1181021928787231
1776443421016554800,24.3015546875,0.8204289674758911,-1.336535096168518,1.1103403568267822
1776443421041570800,24.32657080078125,0.8370816707611084,-1.5382733345031738,0.9421783685684204
1776443421066585600,24.351585693359375,0.6527131795883179,-1.765697956085205,0.9317029714584351
1776443421091601700,24.3766015625,0.49225375056266785,-1.8834998607635498,0.8721242547035217
1776443421116617700,24.40161767578125,0.49931401014328003,-1.8906638622283936,0.9346545934677124
1776443421141633500,24.426633544921874,0.7198056578636169,-1.6636552810668945,1.0750901699066162
1776443421166649600,24.451649658203124,0.8569555282592773,-1.6471456289291382,1.0820679664611816
1776443421191665700,24.476665771484374,0.7662466764450073,-1.4435235261917114,1.1790052652359009
1776443421216680400,24.501680419921875,0.7099250555038452,-1.2644041776657104,1.2072898149490356
1776443421241696500,24.526696533203125,0.7649606466293335,-1.015282392501831,1.1195429563522339
1776443421266712600,24.551712646484376,0.7073716521263123,-0.757704496383667,1.0909780263900757
1776443421291728400,24.576728271484374,0.5823724269866943,-0.31305181980133057,1.09465491771698
1776443421316744400,24.601744384765624,0.4393545985221863,0.3705841898918152,1.074135661125183
1776443421341760500,24.626760498046874,0.31486645340919495,0.7892236113548279,0.9198352694511414
1776443421366776600,24.651776611328124,0.4203585088253021,0.951357901096344,0.7825512290000916
1776443421391792600,24.676792724609374,0.5055100917816162,0.9339965581893921,0.5709015130996704
1776443421416808700,24.70180859375,0.5311566591262817,0.8089502453804016,0.4105111360549927
1776443421441824800,24.72682470703125,0.5854859352111816,0.6378545165061951,0.4155990779399872
1776443421466840600,24.751840576171876,0.4884704053401947,0.3453657925128937,0.34731918573379517
1776443421491856600,24.776856689453126,0.35787755250930786,0.14061443507671356,0.2387448102235794
1776443421516872700,24.801872802734376,0.22545075416564941,-0.031207919120788574,0.13031801581382751
1776443421541888500,24.826888427734374,0.2440939098596573,-0.2308693528175354,0.12999959290027618
1776443421566904600,24.851904541015625,0.291488915681839,-0.38927319645881653,0.2691197991371155
1776443421591920600,24.876920654296875,0.3048135042190552,-0.5328532457351685,0.34508591890335083
1776443421616936700,24.901936767578125,0.2555600106716156,-0.6879205703735352,0.4403236210346222
1776443421641952500,24.926952392578126,0.22562871873378754,-0.7547650337219238,0.4963081181049347
1776443421666968600,24.951968505859377,0.20874473452568054,-0.7350905537605286,0.5274790525436401
1776443421691983400,24.9769833984375,0.23856498301029205,-0.6464013457298279,0.6758216619491577
1776443421716999400,25.00199951171875,0.23186181485652924,-0.5220755934715271,0.7364046573638916
1776443421742015500,25.027015380859375,0.20251643657684326,-0.31541723012924194,0.7793697714805603
1776443421767031600,25.052031494140625,0.13604794442653656,-0.16707196831703186,0.7854881286621094
1776443421792047600,25.077047607421875,-0.027257077395915985,0.02314656972885132,0.8563894033432007
1776443421817063700,25.102063720703125,-0.09301719814538956,0.09312408417463303,0.869989275932312
1776443421842079700,25.127079833984375,-0.31883808970451355,0.13508254289627075,0.8922200202941895
1776443421867095600,25.152095458984373,-0.4347502589225769,-0.0033201929181814194,0.7402973175048828
1776443421892111600,25.177111572265623,-0.45296260714530945,-0.13429726660251617,0.5935880541801453
1776443421917127700,25.202127685546873,-0.30573615431785583,-0.28845107555389404,0.47528886795043945
1776443421942143700,25.227143798828124,-0.10261156409978867,-0.3276331126689911,0.2910085916519165
1776443421967159600,25.25215966796875,-0.08968371152877808,-0.3570270240306854,0.042950913310050964
1776443421992175600,25.277175537109375,-0.22662904858589172,-0.08332211524248123,0.20729385316371918
1776443422017191700,25.302191650390625,-0.21386370062828064,0.2672789394855499,0.5760136246681213
1776443422042207500,25.32720751953125,-0.0861998051404953,0.2718355059623718,0.7243573665618896
1776443422067224600,25.352224609375,0.07896522432565689,0.22219234704971313,0.6446596384048462
1776443422092240600,25.37724072265625,0.19395358860492706,0.007539322599768639,0.4818004071712494
1776443422117256700,25.402256591796874,0.058395251631736755,-0.1902628242969513,0.4925897717475891
1776443422142272500,25.4272724609375,-0.16002100706100464,-0.23990961909294128,0.5858762264251709
1776443422167288600,25.45228857421875,-0.2674920856952667,-0.04180845990777016,0.5984652638435364
1776443422192303600,25.4773037109375,-0.13488048315048218,0.21703797578811646,0.7527492046356201
1776443422217319400,25.5023193359375,0.08570197224617004,0.4060874283313751,0.8068236708641052
1776443422242335500,25.52733544921875,0.2875300645828247,0.5069262981414795,0.9118977189064026
1776443422267351600,25.5523515625,0.3616834878921509,0.49522194266319275,0.9256446361541748
1776443422292367400,25.577367431640624,0.22168588638305664,0.5073475241661072,0.9089648723602295
1776443422317383400,25.602383544921874,0.07547221332788467,0.20896413922309875,0.630740761756897
1776443422342399500,25.6273994140625,0.014105045236647129,0.06986696273088455,0.4370843172073364
1776443422367415600,25.65241552734375,-0.15439373254776,0.10806397348642349,0.36114221811294556
1776443422392431600,25.677431640625,0.050888337194919586,0.2360687106847763,0.5600489377975464
1776443422417447700,25.70244775390625,0.21662773191928864,0.3194773197174072,0.7493747472763062
1776443422442463700,25.727463623046877,0.23173129558563232,0.3345162570476532,0.9851149916648865
1776443422467479600,25.7524794921875,0.22812356054782867,0.3982037305831909,1.2825177907943726
1776443422492495600,25.77749560546875,0.31308290362358093,0.5454543828964233,1.7755810022354126
1776443422517511700,25.80251171875,0.024590328335762024,0.3614228069782257,1.7481709718704224
1776443422542527700,25.82752783203125,-0.11762455850839615,0.2757810652256012,1.774734616279602
1776443422567543600,25.85254345703125,0.10673122853040695,0.22129201889038086,1.9753738641738892
1776443422592559600,25.8775595703125,0.1847318559885025,0.0014057373628020287,1.894569754600525
1776443422617575700,25.90257568359375,0.1622406393289566,-0.19761984050273895,1.8660072088241577
1776443422642590500,25.927590576171873,0.1353198140859604,-0.13938763737678528,2.0568532943725586
1776443422667606500,25.9526064453125,0.08548598736524582,-0.2805900573730469,2.0871689319610596
1776443422692622600,25.97762255859375,0.18514251708984375,-0.29579004645347595,2.0632119178771973
1776443422717638400,26.002638427734375,0.3580474257469177,-0.15105487406253815,2.243898630142212
1776443422742654500,26.027654541015625,0.28905028104782104,-0.16367726027965546,2.321183204650879
1776443422767670500,26.05267041015625,0.34470105171203613,-0.1603928804397583,2.333545684814453
1776443422792686300,26.077686279296874,0.3763848543167114,-0.14556193351745605,2.358010768890381
1776443422817702700,26.10270263671875,0.34688931703567505,-0.11368170380592346,2.3704676628112793
1776443422842718700,26.12771875,0.2311403602361679,-0.04785075783729553,2.2715628147125244
1776443422867734800,26.15273486328125,0.30403932929039,0.10283994674682617,2.1604177951812744
1776443422892750600,26.17775048828125,0.3029809594154358,0.1805722862482071,2.010754346847534
1776443422917766700,26.2027666015625,0.29054006934165955,0.22616450488567352,1.9229910373687744
1776443422942782700,26.22778271484375,0.46351951360702515,0.32501843571662903,1.8532836437225342
1776443422967798500,26.252798583984376,0.4491712152957916,0.3441220819950104,1.8210526704788208
1776443422992814600,26.277814697265626,0.2549108862876892,0.3364523649215698,1.6874613761901855
1776443423017830700,26.30283056640625,0.24573151767253876,0.4095950126647949,1.5232936143875122
1776443423042846700,26.3278466796875,0.2976778447628021,0.49907174706459045,1.4644771814346313
1776443423067862000,26.352862060546876,0.21109068393707275,0.3962605893611908,1.2570061683654785
1776443423092878000,26.377878173828126,0.24392007291316986,0.38383907079696655,1.1343879699707031
1776443423117894100,26.40289404296875,0.3266109526157379,0.33687108755111694,1.1292744874954224
1776443423142909000,26.427908935546874,0.2210691124200821,0.11230012029409409,0.9744570255279541
1776443423167925000,26.452925048828124,0.5097212791442871,0.15630042552947998,0.845325767993927
1776443423192941300,26.47794140625,0.368111789226532,0.14894695580005646,0.6602778434753418
1776443423217957400,26.502957275390624,0.1545289158821106,0.10259775817394257,0.6292724013328552
1776443423242973200,26.52797314453125,0.07123246788978577,0.10066245496273041,0.6834696531295776
1776443423267989200,26.5529892578125,0.15259896218776703,0.1964992880821228,0.6654187440872192
1776443423293005300,26.57800537109375,0.21782320737838745,0.23346291482448578,0.6133795976638794
1776443423318021000,26.603021240234376,0.1933967024087906,0.16529503464698792,0.7983813881874084
1776443423343037200,26.628037109375,0.19331151247024536,-0.03787926584482193,0.9602193236351013
1776443423368053200,26.65305322265625,-0.029512014240026474,-0.31161531805992126,0.8881579041481018
1776443423393069300,26.6780693359375,-0.29175323247909546,-0.6483624577522278,0.8764978051185608
1776443423418085000,26.703085205078125,-0.38683179020881653,-0.8187395930290222,0.9460954070091248
1776443423443101200,26.72810107421875,-0.5579230189323425,-1.1875050067901611,0.9028944373130798
1776443423468117200,26.7531171875,-0.5561273694038391,-1.285781979560852,1.0465011596679688
1776443423493133000,26.778133056640623,-0.7410311698913574,-1.2644424438476562,1.019735336303711
1776443423518149000,26.803149169921873,-0.5675946474075317,-1.1391794681549072,1.0947668552398682
1776443423543165200,26.828165283203123,-0.5992497801780701,-0.5969062447547913,1.1486166715621948
1776443423568181000,26.853180908203125,-0.39349499344825745,-0.28782689571380615,0.963944137096405
1776443423593197000,26.878197021484375,-0.31521010398864746,0.06526008993387222,0.9948999285697937
1776443423618212000,26.903212158203125,-0.19175471365451813,0.0820547491312027,0.9886461496353149
1776443423643228200,26.928228271484375,-0.017783915624022484,-0.00598832406103611,1.2054630517959595
1776443423668244200,26.953244140625,0.0021777672227472067,-0.01537294965237379,1.4243932962417603
1776443423693260300,26.97826025390625,-0.016806872561573982,-0.03208966553211212,1.6657847166061401
1776443423718276400,27.0032763671875,0.03139740973711014,-0.03411287069320679,1.8815739154815674
1776443423743292200,27.028292236328124,0.1250387281179428,-0.10527650266885757,1.9767894744873047
1776443423768308200,27.05330810546875,0.1962878704071045,-0.1072608232498169,2.01631498336792
1776443423793324300,27.07832421875,0.18142955005168915,-0.05422027409076691,1.9745643138885498
1776443423818340000,27.103340087890626,0.1977826952934265,-0.014761339873075485,1.9036922454833984
1776443423843356200,27.128356201171876,0.19245345890522003,0.061928555369377136,1.8776627779006958
1776443423868372200,27.153372314453126,0.164535254240036,0.2511652112007141,1.906418800354004
1776443423893388000,27.178387939453124,0.11293378472328186,0.32562121748924255,1.7681427001953125
1776443423918404000,27.203404052734374,0.06684274971485138,0.5252771377563477,1.7197874784469604
1776443423943420200,27.228420166015624,0.02840634621679783,0.5596033930778503,1.6161288022994995
1776443423968436200,27.253436279296874,-0.14943727850914001,0.5966377258300781,1.6034802198410034
1776443423993452000,27.2784521484375,-0.1530032902956009,0.3584282100200653,1.4801961183547974
1776443424018468000,27.303468017578126,-0.12291382253170013,0.38358211517333984,1.4327309131622314
1776443424043484200,27.328484130859376,-0.14961467683315277,0.260967880487442,1.226806402206421
1776443424068501000,27.3535009765625,-0.17490966618061066,0.06333787739276886,1.1644330024719238
1776443424093516000,27.37851611328125,-0.27169904112815857,0.05914880707859993,1.2433671951293945
1776443424118531800,27.40353173828125,-0.17657415568828583,-0.2652375400066376,0.9867841005325317
1776443424143548000,27.4285478515625,-0.16100530326366425,-0.30682021379470825,1.0808196067810059
1776443424168564000,27.45356396484375,-0.03242044150829315,-0.7225009799003601,0.8295549750328064
1776443424193580000,27.478580078125,0.00029327458469197154,-0.6081394553184509,0.8704211115837097
1776443424218596000,27.50359619140625,0.011736360378563404,-0.7200598120689392,0.8063247799873352
1776443424243612200,27.528612060546877,0.053804971277713776,-0.7216745615005493,0.7580263614654541
1776443424268628200,27.553628173828123,0.14448292553424835,-0.7563515305519104,0.6338092684745789
1776443424293644000,27.57864404296875,0.12493668496608734,-0.5453830361366272,0.6478446125984192
1776443424318660000,27.60366015625,0.02879924699664116,-0.4202078878879547,0.4437200725078583
1776443424343676200,27.62867626953125,0.07634066790342331,-0.23016224801540375,0.2978190779685974
1776443424368692000,27.65369189453125,-0.07461851090192795,-0.1618950068950653,0.11105525493621826
1776443424393708000,27.6787080078125,-0.1486993283033371,-0.08207525312900543,0.027696920558810234
1776443424418724000,27.70372412109375,-0.09235512465238571,-0.2596173584461212,0.0624345988035202
1776443424443740200,27.728740234375,-0.026147684082388878,-0.1655975878238678,0.273084431886673
1776443424468756000,27.753755859375,0.012491060420870781,-0.36644208431243896,0.1566464900970459
1776443424493772000,27.77877197265625,0.05026720464229584,-0.30021438002586365,0.17584039270877838
1776443424518788000,27.8037880859375,0.0050798323936760426,-0.1546877920627594,0.23222343623638153
1776443424543804000,27.828803955078126,-0.14725695550441742,-0.201671302318573,0.1661859005689621
1776443424568819000,27.85381884765625,-0.24915488064289093,-0.16993092000484467,0.40642887353897095
1776443424593835000,27.8788349609375,-0.25677311420440674,-0.2808510661125183,0.6282600164413452
1776443424618851000,27.90385107421875,-0.23340168595314026,-0.2769395709037781,0.9450912475585938
1776443424643867100,27.9288671875,-0.28954705595970154,-0.16501572728157043,1.168074369430542
1776443424668883200,27.95388330078125,-0.3792968988418579,-0.04769292101264,1.2579880952835083
1776443424693899000,27.97889892578125,-0.38946664333343506,0.02928394451737404,1.2863731384277344
1776443424718915000,28.0039150390625,-0.33766746520996094,0.25179508328437805,1.378005862236023
1776443424743931100,28.02893115234375,-0.24770691990852356,0.28880050778388977,1.3671669960021973
1776443424768947200,28.053947265625,-0.26604223251342773,0.34091219305992126,1.4466074705123901
1776443424793963000,28.078962890625,-0.29723984003067017,0.32773515582084656,1.4281977415084839
1776443424818979000,28.10397900390625,-0.22332194447517395,0.22787663340568542,1.2685675621032715
1776443424843995100,28.1289951171875,-0.1191454753279686,0.28771013021469116,1.3656738996505737
1776443424869011000,28.154010986328124,0.06987504661083221,0.36856189370155334,1.4905674457550049
1776443424894027000,28.179027099609375,0.06183868646621704,0.32600539922714233,1.494136095046997
1776443424919043000,28.20404296875,-0.014787085354328156,0.19956888258457184,1.6043682098388672
1776443424944059100,28.22905908203125,-0.12904442846775055,0.15914271771907806,1.7970130443572998
1776443424969075000,28.254074951171877,-0.1507694274187088,0.05102824047207832,1.8661510944366455
1776443424994091000,28.279091064453127,-0.27798008918762207,0.04010528326034546,1.8915129899978638
1776443425019105800,28.304105712890625,-0.17217059433460236,-0.0035445792600512505,1.8437838554382324
1776443425044121900,28.329121826171875,-0.11860749870538712,0.00008593127131462097,1.85886812210083
1776443425069137400,28.354137451171876,-0.08796676248311996,0.20481963455677032,2.0754926204681396
1776443425094153500,28.379153564453127,-0.1266433298587799,0.14437203109264374,1.9748616218566895
1776443425119169500,28.40416943359375,-0.15165624022483826,0.09196596592664719,2.0175468921661377
1776443425144185300,28.429185302734375,-0.14993295073509216,0.19356493651866913,2.190387487411499
1776443425169201400,28.454201416015625,-0.23383153975009918,0.11002127826213837,2.2285256385803223
1776443425194217500,28.479217529296875,-0.26432129740715027,0.019124899059534073,2.2108635902404785
1776443425219233500,28.504233642578125,-0.37035664916038513,-0.006080055609345436,2.149617910385132
1776443425244249300,28.529249267578123,-0.31700289249420166,0.052603673189878464,2.1453592777252197
1776443425269265400,28.554265380859373,-0.3567604124546051,0.11259394884109497,2.0952014923095703
1776443425294281500,28.579281494140623,-0.39660048484802246,0.1532796025276184,1.9756747484207153
1776443425319297300,28.60429736328125,-0.34194231033325195,0.23163485527038574,1.8632476329803467
1776443425344313300,28.629313232421875,-0.22151707112789154,0.3159146308898926,1.8977199792861938
1776443425369328400,28.654328369140625,-0.24231590330600739,0.09327450394630432,1.651292085647583
1776443425394344400,28.679344482421875,-0.2654203772544861,0.17781996726989746,1.4970287084579468
1776443425419360500,28.704360595703125,-0.17963780462741852,0.20018845796585083,1.3173692226409912
1776443425444376600,28.72937646484375,-0.2668936550617218,0.08706240355968475,1.09990394115448
1776443425469392400,28.754392333984374,-0.3458276093006134,0.04317312687635422,0.8524184226989746
1776443425494408400,28.779408447265624,-0.25777313113212585,0.22901995480060577,0.7425215840339661
1776443425519424500,28.804424560546874,-0.2760426998138428,0.16024449467658997,0.48849058151245117
1776443425544440600,28.829440673828124,-0.2633732259273529,-0.16193675994873047,0.3270309865474701
1776443425569456400,28.854456298828126,-0.16215816140174866,-0.14709846675395966,0.46161943674087524
1776443425594472400,28.879472412109376,-0.04732588306069374,-0.2352725863456726,0.4493577480316162
1776443425619488500,28.904488525390626,-0.03893077373504639,-0.10879853367805481,0.6577814817428589
1776443425644504300,28.92950439453125,-0.32420358061790466,-0.38546022772789,0.526255190372467
1776443425669520400,28.954520263671874,-0.5247941613197327,-0.3739303946495056,0.6481831669807434
1776443425694536400,28.979536376953124,-0.5735171437263489,-0.2947658598423004,0.6781424283981323
1776443425719552500,29.004552490234374,-0.41721200942993164,-0.10027816146612167,0.8206630349159241
1776443425744568300,29.029568359375,-0.524472713470459,0.11869709193706512,0.7845889329910278
1776443425769584400,29.05458447265625,-0.2196773886680603,0.21671955287456512,0.8724161386489868
1776443425794600400,29.079600341796876,-0.20865720510482788,0.2821758985519409,0.8385100364685059
1776443425819615500,29.104615478515626,-0.03280254825949669,0.320734441280365,0.9340512752532959
1776443425844631600,29.129631591796876,0.042889442294836044,0.2521202862262726,0.9104412198066711
1776443425869647600,29.154647705078126,0.15140880644321442,0.2696816325187683,1.0293655395507812
1776443425894663400,29.179663330078125,0.057433515787124634,0.14182649552822113,1.1543279886245728
1776443425919679500,29.204679443359375,0.08526384830474854,0.22706960141658783,1.3612475395202637
1776443425944695600,29.229695556640625,0.07152491807937622,0.18775686621665955,1.4708274602890015
1776443425969711400,29.25471142578125,0.07549699395895004,0.09853091835975647,1.562041163444519
1776443425994727400,29.2797275390625,0.1261707842350006,-0.053828783333301544,1.4907516241073608
1776443426019743500,29.304743408203127,0.08910438418388367,-0.05183200538158417,1.492972731590271
1776443426044759600,29.329759521484377,-0.09098943322896957,-0.13942846655845642,1.5051445960998535
1776443426069775400,29.354775390625,-0.3498779833316803,-0.2424340844154358,1.531238317489624
1776443426094791400,29.37979150390625,-0.49364686012268066,-0.25266969203948975,1.5988564491271973
1776443426119807500,29.404807373046875,-0.5485466718673706,-0.27360081672668457,1.5855201482772827
1776443426144823600,29.429823486328125,-0.5653871297836304,-0.34859922528266907,1.5538753271102905
1776443426169839400,29.45483935546875,-0.5731443762779236,-0.3559895157814026,1.6509414911270142
1776443426194855400,29.47985546875,-0.47355493903160095,-0.3619578182697296,1.7021398544311523
1776443426219871500,29.50487158203125,-0.45801323652267456,-0.2895110845565796,1.6673903465270996
1776443426244887300,29.52988720703125,-0.42136523127555847,-0.22323359549045563,1.5922032594680786
1776443426269903400,29.5549033203125,-0.2892533838748932,-0.39602911472320557,0.7243958115577698
1776443426294918700,29.579918701171874,-0.2618606388568878,0.037765178829431534,0.9624908566474915
1776443426319934500,29.6049345703125,-0.17907746136188507,0.15455934405326843,1.083632230758667
1776443426344950500,29.629950439453125,-0.0031427606008946896,0.382261723279953,1.2487095594406128
1776443426369966600,29.654966552734376,0.021944046020507812,0.18671271204948425,0.9564467668533325
1776443426394982400,29.679982421875,0.04727867245674133,0.27152925729751587,0.7785487174987793
1776443426419998500,29.70499853515625,0.09422224760055542,0.24373821914196014,0.6899198889732361
1776443426445014500,29.7300146484375,0.09454472362995148,0.28216642141342163,0.712909996509552
1776443426470030600,29.755030517578124,0.18168547749519348,0.4405195415019989,0.8421075940132141
1776443426495046400,29.78004638671875,0.24228273332118988,0.6800594329833984,1.03365159034729
1776443426520062500,29.8050625,0.3798789978027344,0.7634231448173523,1.016972303390503
1776443426545078500,29.83007861328125,0.52665114402771,0.8016322255134583,1.0666338205337524
1776443426570094300,29.85509423828125,0.6374418139457703,0.7715686559677124,1.076668620109558
1776443426595110400,29.8801103515625,0.5807260870933533,0.745918869972229,1.1219823360443115
1776443426620126500,29.90512646484375,0.5435048937797546,0.3247036039829254,1.1442111730575562
1776443426645142500,29.930142578125,0.4175451397895813,-0.07125668972730637,0.9853172302246094
1776443426670158300,29.955158447265624,0.10352358222007751,-0.14837263524532318,1.0652304887771606
1776443426695174400,29.98017431640625,-0.17362210154533386,-0.35391971468925476,1.0970056056976318
1776443426720190500,30.0051904296875,-0.1715669333934784,-0.10470820218324661,1.037118911743164
1776443426745206300,30.030206298828126,0.03609795495867729,0.094645194709301,0.9746817946434021
1776443426770222300,30.055222412109377,0.1012638658285141,0.26998406648635864,1.084787368774414
1776443426795237600,30.080237548828126,0.11610324680805206,0.0456298366189003,0.9586384296417236
1776443426820253400,30.10525341796875,0.20996372401714325,0.13339075446128845,0.7724621891975403
1776443426845269500,30.13026953125,0.05785166472196579,0.15187732875347137,0.562932550907135
1776443426870285600,30.15528564453125,-0.20646709203720093,-0.02651670202612877,0.6509625315666199
1776443426895301400,30.18030126953125,-0.14394424855709076,-0.0852692648768425,0.5038917660713196
1776443426920317400,30.2053173828125,-0.14395764470100403,-0.04926048219203949,0.514968991279602
1776443426945333500,30.23033349609375,-0.26305973529815674,-0.24527686834335327,0.32379940152168274
1776443426970349600,30.255349609375,-0.32061439752578735,-0.2586389482021332,0.1473320722579956
1776443426995365400,30.280365478515623,-0.22738781571388245,-0.3682212829589844,0.03953712806105614
1776443427020381400,30.30538134765625,-0.14483779668807983,-0.399304062128067,0.08129667490720749
1776443427045397500,30.3303974609375,-0.06496243178844452,0.026022613048553467,0.5647379159927368
1776443427070412500,30.35541259765625,0.1380690187215805,-0.06254984438419342,0.41148608922958374
1776443427095428600,30.3804287109375,0.37349942326545715,0.08630292862653732,0.48351848125457764
1776443427120444700,30.405444580078125,0.42308953404426575,-0.04371311515569687,0.525514543056488
1776443427145460500,30.43046044921875,0.3765955865383148,-0.04466162621974945,0.4900187849998474
1776443427170476800,30.455476806640625,0.04477446898818016,-0.36984187364578247,0.23316888511180878
1776443427195492900,30.480492919921875,-0.23946410417556763,-0.34689709544181824,0.21916523575782776
1776443427220508700,30.5055087890625,-0.2511054277420044,-0.22237089276313782,0.28353503346443176
1776443427245524700,30.530524658203124,-0.16099408268928528,-0.15248596668243408,0.30509766936302185
1776443427270540800,30.555540771484374,-0.26443853974342346,-0.176535502076149,0.2968151569366455
1776443427295555600,30.5805556640625,-0.28839096426963806,0.2717820703983307,0.4043009281158447
1776443427320571600,30.605571533203126,0.0793796181678772,0.4036712050437927,0.3278113007545471
1776443427345587700,30.630587646484376,0.17882387340068817,0.7635204195976257,0.4680180549621582
1776443427370603800,30.655603759765626,0.054872699081897736,0.8494572043418884,0.5663557648658752
1776443427395619600,30.68061962890625,-0.17761600017547607,0.7673601508140564,0.6835143566131592
1776443427420635600,30.7056357421875,-0.18895594775676727,0.5187333822250366,0.8180475831031799
1776443427445651700,30.730651611328124,-0.20607802271842957,0.4663524329662323,0.8417690396308899
1776443427470667500,30.75566748046875,-0.13675963878631592,0.47840455174446106,0.946261465549469
1776443427495683600,30.78068359375,-0.01651739701628685,0.6197775602340698,1.1965744495391846
1776443427520699600,30.80569970703125,0.003318914445117116,0.8713470697402954,1.278902292251587
1776443427545715700,30.8307158203125,0.2874393165111542,0.8283529877662659,1.3136848211288452
1776443427570731500,30.8557314453125,0.48974549770355225,0.7941132187843323,1.3890869617462158
1776443427595747600,30.88074755859375,0.5221394896507263,0.5916972756385803,1.3521357774734497
1776443427620764000,30.905763916015626,0.45806193351745605,0.27259477972984314,1.3844877481460571
1776443427645779700,30.93077978515625,-0.06302469968795776,-0.38808533549308777,1.1245853900909424
1776443427670795800,30.955795654296875,-0.4024730622768402,-0.7708984613418579,1.0494396686553955
1776443427695811800,30.980811767578125,-0.3218218684196472,-0.8772823214530945,1.2073036432266235
1776443427720827600,31.00582763671875,-0.1013404056429863,-0.7626489996910095,1.417663335800171
1776443427745843700,31.03084375,0.07404476404190063,-0.7121985554695129,1.5371228456497192
1776443427770858800,31.055858642578126,0.10904533416032791,-0.5494848489761353,1.681118369102478
1776443427795874600,31.08087451171875,-0.046682197600603104,-0.5801553726196289,1.5922056436538696
1776443427820890600,31.105890625,-0.1336948722600937,-0.5779991149902344,1.5785390138626099
