time,seconds_elapsed,z,y,x
1776444081854178000,0.073177978515625,-0.09772738378047943,0.12794701934680341,0.3635547874674201
1776444081879195000,0.09819482421875,-0.33230127880871296,-0.2006365541130304,-0.027296112802438436
1776444081904213000,0.123212890625,-0.7132955691158771,-0.6684891167271881,-0.3304817352313548
1776444081929230800,0.14823095703125,-0.709351215404272,-0.4126527995701879,-0.19497717664446682
1776444081954249200,0.173249267578125,-0.083110244885087,-0.08230192417688667,-0.03763999482542276
1776444081979266000,0.19826611328125,-0.38189620758295056,-0.0888228503782302,0.10188793752603233
1776444082004284200,0.2232841796875,-0.3826099088102579,-0.33861616104394193,-0.03372691303491592
1776444082029302000,0.248302001953125,-0.2778969039261341,-0.942905996517837,-0.3829427209611982
1776444082054320000,0.273320068359375,-0.008085691300034522,-0.973686042445898,-0.572422615363635
1776444082079337200,0.298337158203125,0.3913438348859548,-0.6872300575543194,-0.5454609586799517
1776444082104355000,0.32335498046875,0.3781909233242273,-0.3407517848331481,0.46407326327115295
1776444082129373200,0.348373291015625,0.6370394279092549,0.1527820392653346,1.0149883591711522
1776444082154391000,0.37339111328125,0.5970446866512298,0.08782806718721985,0.5773640903538093
1776444082179408100,0.398408203125,0.3610077333331108,0.25428192732185123,-0.012266009191982447
1776444082204426000,0.423426025390625,0.589175852972269,0.9121236855674535,0.5352643761731684
1776444082229444400,0.4484443359375,0.47348260439038276,1.7515270028389989,0.32281653436571356
1776444082254462200,0.473462158203125,0.29245091445744037,1.675586357322335,0.4851612056158483
1776444082279479300,0.498479248046875,0.454022701638937,1.9771036446802317,-0.2988535845739767
1776444082304497200,0.5234970703125,1.490539002007246,2.291695225405693,-0.45967093665897846
1776444082329515300,0.548515380859375,1.1766834804713726,0.7941372114818542,0.7588060050554573
1776444082354532400,0.573532470703125,0.4612573290675878,-0.3601989377008751,0.860967498825863
1776444082379550200,0.59855029296875,-0.39075931299626826,-1.4978174685776233,-1.1564343270383775
1776444082404568300,0.623568359375,-0.1176227553397417,-1.4122671370640396,-1.9612917430423198
1776444082429586200,0.648586181640625,-0.5074965176731348,-1.0494057386882603,0.35883857260048385
1776444082454603300,0.673603271484375,-1.7351824556291102,-1.8462595887176692,-0.4418382697831839
1776444082479621000,0.69862109375,-1.1058476107478141,-0.8661718625359237,-0.1618715007804334
1776444082504639200,0.72363916015625,-0.2766074486374855,0.2605347589052282,-0.02025105312913656
1776444082529657000,0.748656982421875,-0.147085581189394,0.3458573278112337,0.47751953175626694
1776444082554674200,0.773674072265625,-0.3418453522235155,0.18662417617775498,0.3823595873109996
1776444082579692000,0.798692138671875,-0.22870412621200084,0.2021178604456596,0.12477438066005705
1776444082604710100,0.823710205078125,-0.6030085634917021,-0.15541611409597098,0.27100612149909137
1776444082629728000,0.84872802734375,-0.22728256897628307,-0.34203554103337225,-0.1123287405848503
1776444082654745000,0.8737451171875,-0.09871873290538788,-0.3833457488041371,-0.44361360889263446
1776444082679763200,0.89876318359375,-0.3260761206835508,-0.1813245901986025,-0.44996137048415835
1776444082704781000,0.923781005859375,-0.4891255792021751,-0.39215624724738296,-0.33155871681310234
1776444082729798100,0.948798095703125,-1.0737731410950422,-0.8291589135676621,-0.267206875346601
1776444082754816000,0.97381591796875,-0.7131710659533739,-1.1161572617076336,-0.3494584210431203
1776444082779834400,0.99883447265625,-0.6327887847274541,-1.248568128595501,-0.45456725684441623
1776444082804852200,1.023852294921875,-0.60829030328691,-0.9504947711464017,-0.5808031979570165
1776444082829869300,1.048869384765625,0.06552490383386611,-0.31503914182987064,-0.3883120659746229
1776444082854887200,1.07388720703125,0.5831172835856676,-0.13334873225986957,-0.795801710627973
1776444082879905300,1.0989052734375,0.38054537749588485,-0.36899975500032306,-0.6555887916870414
1776444082904922400,1.12392236328125,0.1381044023543596,-0.2908552792964503,-0.70572053075172
1776444082929940200,1.148940185546875,0.15678922908008097,-0.12230557939372956,-0.6603698884837329
1776444082954957800,1.173957763671875,0.43367900179028507,-0.21297880687899887,-0.18631993253417312
1776444082979975700,1.1989755859375,0.5595704037815332,-0.48756033917944874,-0.7837300184316933
1776444083004992800,1.22399267578125,0.4066033633381128,-0.350491088559106,-0.7515771497804671
1776444083030010600,1.2490107421875,0.558125465670228,0.2018643423423171,-0.12342599825840443
1776444083055028700,1.27402880859375,0.5990992810934782,-0.022406367999501527,0.06588859518026001
1776444083080046600,1.299046630859375,0.6436065313398838,-0.13649269284140317,-0.06730697864477989
1776444083105063700,1.324063720703125,0.6623328591197729,0.06189973560664802,0.4302165863767266
1776444083130081500,1.34908154296875,0.8157850527316332,0.6709465198166668,0.7081861902128904
1776444083155099600,1.374099609375,0.6999971116036177,0.8960718376938253,0.6151315474838018
1776444083180116700,1.39911669921875,0.6086322485923766,1.4468844230674207,0.6612305239010602
1776444083205134600,1.424134521484375,1.2756962278872728,2.3113727164305744,0.8644109172780067
1776444083230153000,1.449153076171875,0.7166700139850377,1.4635099791757762,-0.1864650035606697
1776444083255170800,1.4741708984375,0.010168927314877509,0.14061733502335846,0.5061418151285499
1776444083280188000,1.49918798828125,-1.3084288691878319,-1.3731642300792037,0.04341854169424623
1776444083305205800,1.524205810546875,-1.5417963110357522,-1.7868068444043397,-0.7923321348212659
1776444083330223900,1.549223876953125,-0.4556827438056469,-0.5184466584935784,0.5654209564406425
1776444083355240700,1.57424072265625,-0.0469821159273386,-0.4302099374402314,0.4827606107475236
1776444083380258800,1.5992587890625,-0.2704600319236517,-0.8566928171813487,-0.15611960445651785
1776444083405276700,1.624276611328125,-0.6103565881669522,-0.3895533347399905,-0.6233936913292855
1776444083430294800,1.649294677734375,-0.055043257308006285,-0.08961557165849954,-0.2941927531560883
1776444083455312000,1.674311767578125,0.12426467757225036,0.22126341828461735,0.18785916133280842
1776444083480329700,1.699329833984375,-0.45638124746382236,-0.9428043627742677,0.4241794981695711
1776444083505347800,1.724347900390625,-0.991321652379632,-1.4079539500400424,0.08250550219127908
1776444083530364700,1.74936474609375,0.34262451990246773,-0.06850438086895737,0.5123291254613548
1776444083555382800,1.7743828125,0.07661679121255874,-0.3299455094628036,0.47823706890847534
1776444083580400600,1.799400634765625,0.06424713898301124,-0.7969074799127877,0.6744660722449421
1776444083605418800,1.824418701171875,0.022903905725479123,-0.5476446959272027,0.43861448543109
1776444083630435600,1.849435546875,-0.05151975935697555,0.2792198596255854,0.19399854087065904
1776444083655453700,1.87445361328125,-0.0925046806961298,0.33934111431762576,-0.27903007267452773
1776444083680471600,1.899471435546875,0.1174964986115694,0.0101380618191557,0.2142961000226438
1776444083705488600,1.924488525390625,-0.1850251434832811,0.10638714864142239,0.3007509974268265
1776444083730506800,1.9495068359375,-0.09580547580718994,0.10678635882576927,0.16250318628009408
1776444083755524600,1.974524658203125,0.07382745275497436,0.14254410183485597,-0.10350733715509995
1776444083780543000,1.99954296875,-0.18898937093913554,0.06185493748369626,-0.1051100413776934
1776444083805559600,2.0245595703125,-0.8006962046712637,1.2798645996131002,-0.507160052260384
1776444083830578000,2.049577880859375,-0.40102176381349564,0.6442020860802382,-0.6715636288017034
1776444083855595800,2.074595703125,0.03574351355433464,0.46861934573557223,-0.25673739418257024
1776444083880612900,2.09961279296875,0.31836744600236416,-0.013682013469748198,0.06229878139421344
1776444083905630700,2.124630615234375,0.6824345669060945,-0.550059355853498,-0.11140475760772824
1776444083930648800,2.14964892578125,0.6898650091677904,-0.6754957806188613,0.18954167105965314
1776444083955666000,2.174666015625,0.31810967184901234,-0.5689154840255156,0.8563561325728892
1776444083980683800,2.199683837890625,0.1337999831587076,-0.8631475462786853,0.48990964225195344
1776444084005702000,2.224701904296875,0.524739913418889,-1.1920330252945421,0.7478818023938685
1776444084030719700,2.2497197265625,-0.5261743301361799,0.12635039780512453,-0.06921922830715775
1776444084055736800,2.27473681640625,-0.4199754706084728,0.34768790423925966,-0.47199806492105123
1776444084080754700,2.299754638671875,-0.8706488618195056,2.4038272743746636,-0.6864812850136309
1776444084105772800,2.324772705078125,-0.7727069585055112,0.8866897499077021,-1.2051059304226188
1776444084130789600,2.34978955078125,0.09650047233402728,-0.1824839345678687,0.2528008949838579
1776444084155807700,2.374807861328125,-0.1401180802643299,-0.6604761253371835,-0.739944068197161
1776444084180825600,2.39982568359375,0.25124329027831555,-0.35828941428512334,-1.9385817524537443
1776444084205843700,2.42484375,-0.07243804422318935,0.4707421465758234,-3.036913873004913
1776444084230860800,2.44986083984375,-0.8462152623087167,-1.1750080215398222,-2.7596909228175877
1776444084255878700,2.474878662109375,-0.11798282082378864,-0.7584449166581034,-1.8464831683404743
1776444084280897000,2.49989697265625,0.8574304838061332,0.7991377231828868,0.4592953813448548
1776444084305913600,2.52491357421875,0.5720867710053921,0.4743904764829203,1.1153740023754537
1776444084330932000,2.549931884765625,0.3252501912534237,0.4040001951023936,0.7688304093331099
1776444084355949800,2.57494970703125,0.06329845995604992,0.4668286629265174,0.7565218396410346
1776444084380967000,2.599966796875,0.09973404742777348,0.4754612109869718,1.245871436857432
1776444084405984800,2.62498486328125,0.37328912275731563,0.8539149499658495,1.3356542913742362
1776444084431003000,2.6500029296875,0.6313496918350457,0.09526457386352122,1.2586121143564581
1776444084456020700,2.675020751953125,0.4645218838214874,0.4773256166193634,0.8616305658444762
1776444084481037800,2.700037841796875,0.42634032946527,0.5392400018058717,1.1601860807873308
1776444084506056000,2.725055908203125,0.49970776349306106,0.3864659997165203,1.3663929823786019
1776444084531073800,2.75007373046875,0.27809038067162034,0.36850071943700313,1.1043889363721013
1776444084556091000,2.7750908203125,0.16398761615157126,0.4799017141850665,0.9688438631117343
1776444084581108700,2.800108642578125,0.19343290634453295,0.265562396075204,0.8751407664112746
1776444084606126800,2.825126953125,0.18962416171133517,0.16066546772522852,1.3186334523379801
1776444084631144700,2.850144775390625,0.0245955120742321,-0.3372525445405394,1.9368492295727133
1776444084656161800,2.875161865234375,-0.2100748290657997,-0.6372445220272988,1.5494558858782053
1776444084681179600,2.9001796875,-0.301215235671401,-0.1841608548041433,-0.8385586831409484
1776444084706197800,2.92519775390625,-0.6451157668590545,-0.2424367008252069,-3.581500934927165
1776444084731214800,2.95021484375,-0.6157949798285961,-1.421200092843175,-0.9169640382707118
1776444084756232700,2.975232666015625,-0.637007863727212,-1.2911185456857084,-0.9063644644536077
1776444084781250800,3.000250732421875,-0.5024737210750579,-0.39137280525211243,-1.306781686502695
1776444084806268700,3.0252685546875,-0.21647885088920593,-0.3080715313069522,-0.8969196136295795
1776444084831285800,3.05028564453125,0.3879933554142713,0.03631744098477065,-0.7934417034983634
1776444084856303600,3.0753037109375,0.5255395393639802,-0.41433867029789834,-1.256878860823065
1776444084881321700,3.10032177734375,0.317806304988265,-1.6938788237296043,0.21780498492643235
1776444084906338800,3.1253388671875,-0.43453006566166874,-0.7318111767545342,0.725807771621272
1776444084931356700,3.150356689453125,0.12656009503304957,0.1120823646083474,1.2619408203877507
1776444084956375000,3.175375,0.1580301690518856,0.3986384123409167,1.556080564714968
1776444084981392100,3.20039208984375,0.11892799271941185,0.4047028634790331,1.603517146411538
1776444085006410200,3.22541015625,-0.19310966573953628,0.32500081960223615,0.016188187604397535
1776444085031428400,3.250428466796875,-0.10626023432612418,-0.43311997966803606,-1.32439683817029
1776444085056445400,3.275445556640625,-0.18990297865271566,-0.6645400137752294,-1.9153563596889376
1776444085081463300,3.30046337890625,-0.13617255750894547,-0.9879453078143298,-2.0546987794056535
1776444085106481400,3.3254814453125,-0.1503448752462864,-1.296191903427243,-1.4609700854346155
1776444085131499300,3.350499267578125,-0.2221095502525568,-1.308635205414891,-0.1255981911983341
1776444085156516400,3.375516357421875,-0.11661796221137045,-0.8342944498252123,-0.004830059638107195
1776444085181534200,3.4005341796875,-0.2387181552261114,-0.5730004883168265,0.7494161723542958
1776444085206552300,3.42555224609375,0.16520283716022968,-0.5558937976280227,0.24565316038737073
1776444085231569400,3.4505693359375,0.29493454796671864,-0.6929636327702552,-0.10601356608867644
1776444085256587300,3.475587158203125,0.08287000638842582,-1.272434011220932,0.252545860776864
1776444085281605000,3.500605224609375,0.06338964537084102,-0.8850437362663447,0.7111731701344252
1776444085306623200,3.525623291015625,0.7531359965950251,-0.5012476133462042,0.8020777952227741
1776444085331640300,3.550640380859375,0.3384785061389208,0.5544320179797708,1.1539476247891782
1776444085356658200,3.575658203125,-0.1193348199546337,1.7560181767784058,0.9369754374250769
1776444085381676300,3.60067626953125,-0.09178513424992561,2.3650614903897047,1.585829514029622
1776444085406693000,3.625693115234375,0.7137941662877798,-0.9533143586117774,2.066099586603045
1776444085431711200,3.650711181640625,-0.7086731700122356,0.03386778281033039,2.143328810625523
1776444085456729000,3.67572900390625,-0.4135860618323087,-0.22336846427246926,1.9869167442947624
1776444085481746200,3.70074609375,-0.4475719180643558,-1.0843196695506572,1.2875263664126395
1776444085506764300,3.725764404296875,-0.7180810498267411,-1.315888537544012,0.45222745225261896
1776444085531782100,3.7507822265625,-0.3062871321082115,0.007153159690275788,0.2822228043012321
1776444085556800000,3.775800048828125,0.2906207764208317,-0.7648978191245347,-0.2412618848921731
1776444085581817000,3.800817138671875,0.24372166260182856,-0.4696064936093986,-0.6970009254623204
1776444085606835200,3.825835205078125,-0.0663619391798973,0.6864991859965026,-1.136993640444055
1776444085631853300,3.850853271484375,0.35252982784509657,0.07895334440134465,-1.62396342985183
1776444085656870100,3.8758701171875,0.4081161059886217,-0.6208713332448155,-1.7934090191483496
1776444085681888300,3.90088818359375,0.05592646988332271,0.31103732230998576,-0.5954718113113194
1776444085706906400,3.92590625,0.48034489137530323,0.3546121140118688,-0.2658950620956719
1776444085731923500,3.95092333984375,0.6809972275793552,0.848940449488908,0.6233724293455482
1776444085756941300,3.97594140625,0.6189975752621889,0.9418274075008928,1.3407539526008068
1776444085781959200,4.000959228515625,0.7984674227058887,-0.5098109686279669,1.0620965856961906
1776444085806976300,4.025976318359375,0.42921968429386614,0.09636847998481243,0.22257238199133425
1776444085831994400,4.050994384765625,0.2641419348180294,1.2317303910411894,1.1603946820367126
1776444085857012200,4.07601220703125,0.8523159172713756,-0.3440259111329913,0.2683062696895562
1776444085882030300,4.1010302734375,-0.0638180999159813,-1.016349272260815,-1.5054994013823568
1776444085907047200,4.126047119140625,-0.30893501626849174,-0.4806728081554174,-0.6804541336786002
1776444085932065300,4.151065185546875,-0.08280395541489124,1.2353399598404764,0.9075859690725803
1776444085957083100,4.176083251953125,0.5666378579497336,-0.3948384720686823,0.23219854419901967
1776444085982100000,4.201099853515625,0.7385697111040354,-0.6879834332048893,-1.7320852202661334
1776444086007118300,4.226118408203125,0.3309562939405441,-2.530844757786393,-1.128353895457834
1776444086032136200,4.25113623046875,0.16276304279267786,0.5313632770814001,0.7938492613859475
1776444086057153300,4.2761533203125,0.006816109755635261,0.8711299233347177,-0.15660970779471098
1776444086082171100,4.301171142578125,-0.16872048989236355,-1.6736597731739282,-2.336235501138866
1776444086107189200,4.326189208984375,-0.6541717644959688,-1.6954677003562448,-1.8072433371029792
1776444086132207000,4.35120703125,-0.9378367304295301,0.07525492827482522,0.032133652494102716
1776444086157224200,4.37622412109375,-0.9337743032962084,0.6490868624471128,0.3858315377378836
1776444086182242000,4.401241943359375,-1.2517214780598878,-0.8157889251891524,-1.2518266920000314
1776444086207260200,4.42626025390625,-1.17471130361557,-0.5190590182382613,-0.11201057801377028
1776444086232277200,4.45127734375,-0.9982838926076888,0.516855736040324,2.3183165442191065
1776444086257295000,4.476295166015625,-0.8625251765966415,0.34736923021152616,2.034782949580252
1776444086282313200,4.501313232421875,-0.5175695833981037,-0.6560439150433987,0.4430167389780283
1776444086307330000,4.526330078125,-0.18590017275214193,-1.1020154121737926,-0.38622218102328476
1776444086332348200,4.55134814453125,0.38965281305909155,-0.7451653099767863,-0.633951471831277
1776444086357366000,4.576365966796875,0.8194733858555555,-0.48368316895253954,0.12204678232707082
1776444086382383000,4.601383056640625,0.1065343750923872,-2.980217587792873,4.6896191209554665
1776444086407401000,4.62640087890625,0.2989022825539112,-1.0787028525821865,3.6670536045283075
1776444086432419000,4.651419189453125,0.809628868189454,1.2045993691399692,-0.6645974430508911
1776444086457436200,4.676436279296875,0.5496498982697725,0.7414261234484613,-1.3931827896267175
1776444086482454000,4.7014541015625,0.9145663294792175,0.5768706442810595,1.719697593988478
1776444086507472100,4.72647216796875,-0.8859890542924403,-0.8632831553570925,1.4545464821279048
1776444086532490000,4.751489990234375,-0.751589936196804,-0.06289042714443058,-0.417502066232264
1776444086557507000,4.776507080078125,-0.6130775375634432,0.04142492019161582,-0.6334237216301262
1776444086582525000,4.80152490234375,0.300157835572958,0.55332405673787,0.966239598897472
1776444086607543300,4.826543212890625,0.23549276343882083,0.5125559564871713,1.5615784314788876
1776444086632560000,4.85156005859375,0.6120499480813741,1.1049286692719906,0.31223142746537924
1776444086657578200,4.876578125,0.8294067508488893,0.7503885975830257,-0.6052982818640769
1776444086682596000,4.90159619140625,0.3179676330298185,-0.39942492307610805,-0.35127887793593104
1776444086707613200,4.92661328125,-0.270049113035202,-1.1477679132409393,0.2548818294437602
1776444086732631300,4.95163134765625,-0.1366717392027378,-0.8519858815994114,-0.12179120013080537
1776444086757649200,4.976649169921875,0.0014478607207536697,0.0886141760636121,-0.61100394615978
1776444086782666200,5.001666259765625,-0.12466916671991347,-0.12364333080351352,-0.6176032713595777
1776444086807684000,5.02668408203125,-0.16869477092921734,-1.1091443142056465,-0.22624935347102582
1776444086832702200,5.0517021484375,0.20507950499653815,-1.4118319605171679,-0.7150905627738684
1776444086857719300,5.07671923828125,0.6159627376109361,-0.5422973435498774,-1.1314582181487232
1776444086882737200,5.101737060546875,0.4287637572199106,-0.18916282780990004,-0.7040351349480449
1776444086907755300,5.12675537109375,0.069864978864789,-0.4670128238543868,-0.46177196405883875
1776444086932772000,5.151772216796875,0.1791658960610628,-1.1981412790417671,0.06345074617462232
1776444086957789700,5.176789794921875,0.49856619224250315,-0.9011533056765795,-0.12409520275685935
1776444086982807600,5.2018076171875,0.4696230063527822,0.16432351530874148,-0.5037439967392012
1776444087007824600,5.22682470703125,0.011360182926058768,0.5773193378966301,-0.7232265960216522
1776444087032842800,5.2518427734375,0.24062077397704124,0.09906347295613958,-0.6133918642096221
1776444087057860900,5.27686083984375,0.23574410785138605,0.41491004044506696,-0.8597821614988148
1776444087082877700,5.301877685546875,0.1135533139437437,0.9394362745806575,-1.1344755932085215
1776444087107895800,5.326895751953125,-0.38992169312834735,-0.19814839055910705,1.288731942810118
1776444087132914000,5.351913818359375,-0.45061610806584357,0.4133293836575001,1.9800833911433815
1776444087157930800,5.3769306640625,-0.41385026572644706,0.5829989179030061,0.3797508661173284
1776444087182948900,5.401948974609375,0.05421265170276165,-0.37081199205406007,-0.25440884163714944
1776444087207966700,5.426966796875,-0.08383914368152617,-0.23784831358902156,0.5655612416941672
1776444087232983800,5.45198388671875,-0.2974783872306347,-0.3211249280169606,0.19366160053387282
1776444087258002000,5.477001953125,-0.5395113660931586,-0.9563838291849941,0.7036987426005303
1776444087283019800,5.502019775390625,-0.09158288967609406,-0.613377981814742,1.1575276752330361
1776444087308037600,5.52703759765625,-0.04900397714376449,-0.4848002998815849,1.0555351813539862
1776444087333054700,5.5520546875,-0.21090601919293403,-0.28656971093174066,0.25155995501205325
1776444087358072800,5.57707275390625,-0.0787187319278717,-0.40473154158424585,-0.10329921996290795
1776444087383089700,5.602089599609375,0.19542144981324672,0.22677830924857406,0.26906943608177825
1776444087408107800,5.627107666015625,0.24096447284817693,0.6113956123584882,0.20851579958815125
1776444087433125600,5.652125732421875,-0.049798926913738245,0.5298908664412796,-1.0042541991889475
1776444087458143700,5.677143798828125,-0.2528548171281814,0.3421464540619403,-0.9243228035356849
1776444087483160800,5.702160888671875,0.4257867872357368,0.5320675894258543,-0.47716377712115643
1776444087508178700,5.7271787109375,-0.11022387726008892,-0.1631110890453681,-0.14007636001445353
1776444087533196800,5.75219677734375,0.015163082340359686,0.10514678405835293,-0.21504096357319502
1776444087558213600,5.777213623046875,0.2024327898800373,0.005143646498769521,0.016299539024382827
1776444087583231700,5.802231689453125,-0.2843020947933197,-0.2565454152744263,0.26332017010636627
1776444087608249600,5.82724951171875,0.026487609431147575,-0.12670193292284385,0.3224521580327302
1776444087633266700,5.8522666015625,-0.4161199642241001,0.243376630290132,0.32855456656105814
1776444087658284500,5.877284423828125,-0.36669454679787156,0.3609252792140469,0.07413403448611497
1776444087683302700,5.902302734375,-0.1239922903716564,0.5548738069305196,0.22242994131334123
1776444087708319700,5.92731982421875,-0.5293430233001709,-0.04522257717521861,0.6382456618938595
1776444087733337600,5.952337646484375,-0.2525941203653812,0.16770731252813711,0.14387136838324366
1776444087758356000,5.97735595703125,-0.32908523937165735,0.0002402019640430808,0.0628122838743031
1776444087783372500,6.00237255859375,-0.1487456233561039,0.1622305798837915,0.5187245986521244
1776444087808391000,6.027390869140625,-0.384237802273035,0.14729473042804747,0.06260156373307109
1776444087833408800,6.05240869140625,-0.4613105205595493,-0.24748934457227587,-0.6267389101039618
1776444087858425900,6.07742578125,-0.08632102362513541,-0.16204177931342273,0.04006714890711009
1776444087883443700,6.102443603515625,0.16722469837665557,0.09081121118385344,0.04720014259219169
1776444087908460800,6.127460693359375,-0.16376549783349037,1.014530532401055,0.5511424749150872
1776444087933479000,6.15247900390625,-0.2524298697143793,0.008614720142818987,0.020796265921741722
1776444087958497000,6.1774970703125,0.2264870346844196,0.49856739781890064,0.607120601920411
1776444087983515100,6.20251513671875,0.22405834623277185,0.5605579900467768,1.7685035643421112
1776444088008532000,6.227531982421875,-0.10083879379928111,-0.7551392992414534,0.8076525996804237
1776444088033550000,6.252550048828125,0.37099604338407516,-1.5451049971923232,0.027873839625157413
1776444088058567200,6.277567138671875,0.6770920368343591,-0.22872717829402534,-0.16712646216657012
1776444088083585000,6.3025849609375,0.002966448590159416,0.021314736837893724,-1.79884478046149
1776444088108603000,6.327602783203125,0.6605804624944925,0.5896763133076951,-1.8466572097331284
1776444088133620000,6.352619873046875,0.3092453973919153,0.9561251051835715,-1.2979333402670918
1776444088158638000,6.37763818359375,0.21368658982217312,0.502789107167162,-0.62060398754552
1776444088183656000,6.402656005859375,0.2070727246403694,-0.18817078456524758,-0.14679753976194188
1776444088208673000,6.427673095703125,0.35151275975704194,-0.3601671908557415,0.19785980114238336
1776444088233691000,6.45269091796875,0.1118757361203432,-0.5461627868063748,0.3945887350913137
1776444088258709000,6.477708984375,0.28293665165901183,0.022990999487042425,-0.44406116999704387
1776444088283726000,6.50272607421875,0.16363982562720775,1.074229141234234,-1.449618231945485
1776444088308744000,6.527743896484375,0.1799292816489935,0.7969854405198246,-1.6304641900479793
1776444088333762000,6.552761962890625,-1.1986796237021684,-1.3350760530948638,-1.1226755575604737
1776444088358779000,6.57777880859375,-0.3377846786558628,-0.4315823948372155,-0.7599823553584516
1776444088383797000,6.602796875,0.3294675166875124,-0.3070258947115391,-0.38340767159182576
1776444088408814800,6.62781494140625,0.5065121828109026,-0.37348157658949493,-0.319859730386734
1776444088433832000,6.65283203125,0.38368250647783275,0.41634858534820374,0.36386714135222137
1776444088458849800,6.677849853515625,0.6856541134744882,0.003871215410158038,0.9992899278450756
1776444088483868000,6.702867919921875,0.0067740241795778275,0.05482274642512202,0.9937364584363997
1776444088508885000,6.727885009765625,0.19558453142046928,0.2039201058283448,0.9369017146017402
1776444088533902800,6.75290283203125,-0.05219079048633575,-0.1180696223244071,0.7342387692276388
1776444088558921200,6.777921142578125,0.4092717057645321,-0.9463373592060059,0.9349425433579832
1776444088583937800,6.802937744140625,0.015959201154112816,-0.34922581786364315,0.8163282927628606
1776444088608956200,6.8279560546875,-0.026264906591176983,-0.04419599234014749,0.8082382175486534
1776444088633974000,6.85297412109375,0.31332126852869985,-0.5067991099935024,0.8072065364133566
1776444088658991000,6.8779912109375,0.07903086661696433,-0.736235788263753,0.5434015053994953
1776444088684009000,6.903009033203125,-0.5082195712506771,-0.18662300713397562,-0.4146470421273261
1776444088709027000,6.928027099609375,-0.34627485910356043,-0.40298316354695707,-0.7417128314353525
1776444088734044200,6.953044189453125,-0.3638718905925751,-0.4847612099802121,-0.3369307652402669
1776444088759062000,6.97806201171875,-0.5644581758230924,0.20890604101475327,0.32650990899093446
1776444088784079000,7.0030791015625,-0.44817982082962987,0.444825761161372,0.4757032030493021
1776444088809097000,7.028096923828125,-0.14763678533136843,0.15021741294171662,0.411690749605
1776444088834115000,7.053114990234375,-0.7632470562428235,0.287051539631933,0.4857965809099376
1776444088859132200,7.078132080078125,-0.7179927870213985,0.22840572778731583,0.26248174652084705
1776444088884150000,7.10314990234375,-0.2131687034279108,0.10710384554341434,-0.0016423603795468807
1776444088909168000,7.128168212890625,-0.2263654541313648,-0.24576577218268064,-0.2468954703323543
1776444088934185000,7.15318505859375,-0.7914671885550022,1.4371243688143789,-1.3815095952287315
1776444088959202600,7.17820263671875,-0.6683633714556694,1.6333879685401915,-0.6092625823851674
1776444088984220400,7.203220458984375,0.7027841119736432,-0.09855977948401122,0.37050066108256574
1776444089009237500,7.228237548828125,0.645655865085125,-0.7664723018996417,0.38385055652111766
1776444089034255600,7.253255615234375,0.5474100103884935,0.08218679163092747,-0.42327297778390344
1776444089059273500,7.2782734375,0.6070289050489663,-0.26841256134193386,-0.8551586664166301
1776444089084290600,7.30329052734375,0.6675187373250723,0.3711565311754122,-0.3113057639878243
1776444089109308400,7.328308349609375,0.33369477899372574,-0.3289106134571135,-0.4697007477641105
1776444089134326500,7.353326416015625,0.23319559241235255,-0.1615041653053835,-0.6038289399638772
1776444089159343400,7.37834326171875,0.030306875458359715,-0.4076835963228717,-1.334633570024371
1776444089184361500,7.403361572265625,0.20973463732600212,-0.07825253918822854,0.3668436729449779
1776444089209378600,7.428378662109375,-1.226649580645561,-1.4844678654000163,-0.7207254268556833
1776444089234396400,7.453396484375,-0.3948655792713165,-1.4143044881105422,-0.5587617908123881
1776444089259414500,7.47841455078125,-0.08873626807332038,-1.091504758749157,-0.4534437327072024
1776444089284431400,7.503431396484375,0.5040659587025642,-0.1705122869462706,-1.52070734577775
1776444089309449500,7.528449462890625,0.6588350801318883,0.09634349167402834,-0.39641580438800156
1776444089334467300,7.55346728515625,0.39196576617658135,0.23175153108388183,0.6653804101221263
1776444089359484400,7.578484375,0.2969061403006315,0.4532167920835316,0.22619784247949717
1776444089384502500,7.60350244140625,0.4114472962379455,1.028202061009407,-0.8155521207585931
1776444089409520400,7.628520263671875,0.37138299687504767,0.7491942001666874,-0.03484758762791752
1776444089434537500,7.653537353515625,0.1622130076944828,0.5410328035067766,0.8295628181934356
1776444089459555300,7.678555419921875,0.1105903724849224,0.7218724049337207,0.5567540311865509
1776444089484573700,7.70357373046875,-0.021601590955257415,0.9050495824627578,0.9293554639406502
1776444089509590300,7.72859033203125,-0.13148878360688684,1.0512595498614012,0.987123323906958
1776444089534608600,7.753608642578125,-0.13545768723785875,0.41019641939401624,1.7535834969773887
1776444089559626500,7.77862646484375,-0.19747136808037757,0.34971539147887376,1.808046908570826
1776444089584643600,7.8036435546875,-0.06530629264712333,0.4766811081707477,1.0228826195523142
1776444089609661700,7.82866162109375,0.09829729262292385,0.6518864300377667,0.8163464860066771
1776444089634678500,7.853678466796875,0.11351882715225219,0.1500228402176872,0.7349670835021883
1776444089659696600,7.878696533203125,0.12384791346490383,0.04851232116930186,1.0972142955023794
1776444089684714500,7.903714599609375,0.07070318325459957,-0.40061698240488763,0.9627974225543439
1776444089709731600,7.928731689453125,-0.10665770921111106,-0.1638292837847024,0.8880269898608326
1776444089734749400,7.95374951171875,0.1741208876311779,0.05330547372996807,0.9208689367547631
1776444089759767600,7.978767578125,0.09269874196350573,-0.22853724521249533,-0.9795376180183142
1776444089784784600,8.00378466796875,-0.4532674993574619,-0.6255841871108859,-2.8692496141672135
1776444089809802500,8.028802490234375,-0.45388650803864,-0.4695598779886961,-0.586010228548199
1776444089834820600,8.053820556640625,0.07584054614305495,0.9287452230878174,1.3003776646792888
1776444089859837400,8.07883740234375,0.44575756211876866,1.0920604929357767,0.889798091186583
1776444089884855600,8.10385546875,0.1310509767115116,0.8699525501184165,-2.2382794231690464
1776444089909872600,8.12887255859375,-0.3730056296408176,0.2317298307087272,-2.089550604817271
1776444089934890500,8.153890380859375,-0.710179482921958,-1.9455416545942426,-2.494322368814051
1776444089959909600,8.17890966796875,-0.5955266833037137,-3.474657640016079,-2.5954721282586455
1776444089984926700,8.2039267578125,0.20520693076848984,-0.8386351093780249,-0.7341138276737182
1776444090009944600,8.228944580078124,-0.5675859524548054,0.18419285737760363,1.6278800187736748
1776444090034962700,8.253962646484375,-0.20104922656714916,-0.48955776007436214,1.2540572275310755
1776444090059979800,8.278979736328125,0.08755436481237411,-0.03338726928438991,0.478124658042565
1776444090084997600,8.30399755859375,-0.02264437800645828,1.4077239406764506,0.2103408595908433
1776444090110015700,8.329015625,0.3900391820281744,0.5557927484063432,0.16552943876609205
1776444090135032600,8.354032470703125,0.4812748657017946,-0.20915552226379514,0.000983969536051154
1776444090160050700,8.37905078125,0.05578384654223919,-0.3673002576060593,-0.06464622130319475
1776444090185067800,8.40406787109375,-0.2832031936407089,-0.23112375457435844,-0.43569520045090465
1776444090210085600,8.429085693359376,-0.23733050025999544,-0.6382117596242577,-0.31534996134471144
1776444090235103700,8.454103759765625,-0.2123971345335245,-0.9432458959966897,-0.4612825731066987
1776444090260120600,8.47912060546875,-0.13274725923538208,-0.29114396004471926,-0.2923227580331266
1776444090285139000,8.504138916015625,-0.3115244482398033,-0.4625946055533364,-0.09214227712452411
1776444090310156800,8.52915673828125,-0.27556407706439495,-0.4127229056643322,-0.4292896807901561
1776444090335174000,8.554173828125,0.07927461224496364,-1.0499094504266977,-1.2334307652182877
1776444090360191700,8.579191650390625,0.19895371559262273,-1.1492908850245178,-1.2368375049218534
1776444090385208800,8.604208740234375,0.1864034460991621,-0.3373463968364522,-0.4807037878155708
1776444090410227000,8.62922705078125,-0.1676549064874649,-0.16690067232036962,0.5091524681866169
1776444090435244800,8.654244873046874,0.16813304539322851,-0.17530611536037174,0.6834557997126132
1776444090460262000,8.679261962890624,0.331609204891324,0.06366097312550992,0.4944310651991516
1776444090485279700,8.70427978515625,-0.28553660502433775,-0.5100493439611047,1.752682456484437
1776444090510297900,8.7292978515625,-0.24853753845095633,-1.4744962142229079,1.8302368208080528
1776444090535314700,8.754314697265626,-0.09288228183686732,-0.9226748171329497,0.5052747499704361
1776444090560332800,8.779332763671874,-0.19795652124881744,0.17095646878350526,-0.12488229801394045
1776444090585350700,8.8043505859375,-0.25217501817047594,-0.619818317060545,0.8802150009356439
1776444090610367700,8.82936767578125,-0.4612006304442882,-0.5012318312551826,1.1610656401008368
1776444090635385900,8.8543857421875,0.07296060679256916,-0.39493608722425994,-0.10045677221175282
1776444090660402700,8.879402587890626,0.352376098588109,-1.0611477605387567,-0.7714742018401622
1776444090685420800,8.9044208984375,-0.34737142216861244,0.4301997083071619,-0.018307371715456246
1776444090710438700,8.929438720703125,-0.2748474532276392,0.836996548390761,0.6933670990046114
1776444090735455700,8.954455810546875,0.08972644815444945,-0.013988997059687971,0.8032831524245441
1776444090760473900,8.979473876953126,-0.016212883654236794,0.4699236697997898,1.2337290175125002
1776444090785490700,9.00449072265625,-0.07444353882670401,-0.6717131202749907,1.7098909241147338
1776444090810508800,9.0295087890625,-0.36273441099524495,-0.8397207857228816,0.9046041767828166
1776444090835526700,9.054526611328125,-0.2303489708095789,-0.546272055867128,0.3820889536760747
1776444090860543700,9.079543701171875,-0.07428454887270927,-1.0239257719296961,-0.6964487714722752
1776444090885561600,9.1045615234375,-0.2625812613725662,-1.2199580471176654,-1.6516827730350196
1776444090910579700,9.129579833984375,0.3459352518856525,-0.3748000387769192,-1.3885899088785052
1776444090935596800,9.1545966796875,0.2544692665874958,0.5371572772476821,-1.0043631394561379
1776444090960613600,9.179613525390625,0.4558113386213779,0.059281461133342234,-0.6826303817391395
1776444090985630500,9.20463037109375,0.7162438975274562,0.8687006503611803,-0.5617177910737693
1776444091010648800,9.22964892578125,0.7295844406157732,0.6652611676566302,0.4201814780419692
1776444091035666700,9.254666748046875,1.3798100978344678,1.4282321834370493,1.8004232818245887
1776444091060683800,9.279683837890625,1.3364958567649126,0.2460077277123928,1.3368993229992687
1776444091085701600,9.30470166015625,0.9324982920110225,0.4873460023090243,1.7848133324995636
1776444091110719700,9.3297197265625,1.0766279460042714,0.8557999599948525,2.0117329133823514
1776444091135736600,9.354736572265624,0.5814519807219505,1.3506640828490257,2.6051883433699605
1776444091160754700,9.379754638671875,0.8040770792812109,-0.16288455028049648,1.1121408656731246
1776444091185771800,9.404771728515625,-0.16260288379490376,-0.42652701114378866,0.5089352452393621
1776444091210789600,9.42978955078125,-0.43317631296515463,-0.8069078457277268,0.751573277322948
1776444091235807700,9.454807861328124,-0.3091366763204336,-0.7616156556487083,-1.0655269985362887
1776444091260824600,9.479824462890624,-0.2861713957965374,-1.5510867019504309,-1.239676820001006
1776444091285842700,9.5048427734375,-0.3446808679103851,-0.8826968808792531,-1.175516336388141
1776444091310859800,9.52985986328125,-0.5930880579799414,-1.1263465011581777,-1.618903808374703
1776444091335877600,9.554877685546876,-0.5864373679190874,-0.22021365350335836,-1.9259394207626581
1776444091360895700,9.579895751953124,-0.4646399572432041,-1.154090321195498,-3.073438307803869
1776444091385912600,9.60491259765625,-0.6460463257074356,0.1546203606083989,-0.29715856242543087
1776444091410930700,9.6299306640625,-0.7517758141577243,1.534388226736337,0.7681131279092281
1776444091435948500,9.654948486328125,-0.5869792197108269,0.12569631781056523,-0.30256454965481533
1776444091460965600,9.679965576171876,-0.6805231803268194,-0.2631678290888667,0.07941067798109724
1776444091485983500,9.7049833984375,-0.4705845448613167,0.4667383177619427,0.617523630252108
1776444091511000600,9.73000048828125,-0.263348154091835,-0.2483963033493608,-0.4297921138869598
1776444091536018700,9.755018798828125,0.022727964636683463,-1.2538454844765365,-0.7249443597249686
1776444091561036500,9.78003662109375,0.2504763975590467,0.08869381717108189,0.3205381411049515
1776444091586053600,9.8050537109375,0.1906903296381235,0.26115188615657386,0.5999201324896887
1776444091611071500,9.830071533203125,0.3988181162893772,0.0059510173588991164,0.24860426527792587
1776444091636088600,9.855088623046875,-0.027183775001764297,-0.7014685723956674,0.005290361493080854
1776444091661106700,9.880106689453125,-0.17611410727500915,-0.25077501517944034,0.5576465961121022
1776444091686124500,9.90512451171875,-0.12739070063829422,-0.30842538624592125,0.5219476888844743
1776444091711141600,9.9301416015625,-0.026525603353977203,-0.2077734202556312,0.48844475733116266
1776444091736159500,9.955159423828125,0.42896249466240405,-0.243062979497388,4.499027575516701
1776444091761176600,9.980176513671875,-0.30213761121332644,-1.609872945179045,0.7552741776674985
1776444091786194700,10.005194580078125,0.07126549331247806,-0.5442548342932015,0.3400990200128406
1776444091811212500,10.030212646484374,0.44694706416428087,-0.24237200155854224,1.5667010351896284
1776444091836229600,10.055229736328124,1.3131512215346097,0.3485855471987277,0.8461229078501462
1776444091861247500,10.08024755859375,1.0238158087491989,1.5526564354851842,0.7032257182613014
1776444091886264600,10.1052646484375,-0.4360749570161104,0.5871458084493875,-0.5957549756342545
1776444091911282400,10.130282470703126,-0.08906535389721393,0.3285127001807093,-0.4149704288627952
1776444091936300500,10.155300537109374,0.6854711581230163,-0.347445437252894,-0.06455105383303016
1776444091961318000,10.18031787109375,-0.6057336045414209,-0.37701727643497285,0.22980315522877498
1776444091986335700,10.205335693359375,-0.7741057193875313,-0.5060232302501797,0.5813477896951139
1776444092011352800,10.230352783203125,0.1110959839195013,-0.704253819200024,-0.16491309696603565
1776444092036370700,10.25537060546875,-0.09825579156875609,-0.5295055203855037,0.4310408353064209
1776444092061389000,10.28038916015625,0.08141396236121654,-0.042977629526332016,0.7774727116025983
1776444092086405600,10.305405517578125,0.4360872319757938,-0.4296084644157439,0.9438241342760622
1776444092111424000,10.330424072265625,0.33802141002118585,-0.31912425571903585,0.5287759640019387
1776444092136440800,10.35544091796875,0.4407108001232147,-0.20261223810017107,-0.01385572606883943
1776444092161459000,10.380458984375,0.23914836333692072,0.0905867182455957,-0.3878379091242328
1776444092186475800,10.405475830078124,-0.07445581378638744,0.3127951257627457,-0.9024910570863633
1776444092211494000,10.430493896484375,-0.28132804741859435,-0.30066257022470233,-0.4489483575167134
1776444092236512000,10.455511962890625,0.2672159354358911,-0.6375077760733664,-0.32046916752196847
1776444092261529000,10.480529052734376,-0.46840194012522696,-0.365121269599162,-0.6878229088809341
1776444092286547000,10.505546875,-0.120742348664999,0.08380392623767256,-0.44595458252821113
1776444092311564000,10.53056396484375,-0.8678776435405016,-0.15339379622181876,0.0780139811920002
1776444092336582000,10.555581787109375,-0.305099968150258,0.23125247725425288,-0.0010989011526107788
1776444092361600000,10.58060009765625,-0.7277367669224739,0.22591566453725098,-0.09317622328214346
1776444092386616800,10.605616943359376,-0.5645780028104782,-0.26561958788884804,0.0570956597931683
1776444092411635000,10.630635009765625,0.009800094002485275,0.15914552814895286,-0.2339243085457012
1776444092436652000,10.655652099609375,0.439486811286211,0.08222593633122742,-0.5445617813505232
1776444092461670000,10.680669921875,0.5452151306927204,0.3359611164905131,-0.7482352189414203
1776444092486687000,10.70568701171875,0.7970031953722239,0.8055121535856277,-0.5791051253348588
1776444092511704800,10.730704833984374,0.5377776741683483,0.2800763851233758,-0.013231949880998581
1776444092536723000,10.755722900390625,0.3974591028958559,0.18301320087267084,0.9078179511975496
1776444092561740000,10.780739990234375,-0.17753098833560943,0.5682268807068467,0.3674043755676597
1776444092586758000,10.8057578125,0.06110241121649742,0.03281462049558759,-0.08595471106339246
1776444092611775000,10.83077490234375,-0.01952127754986286,0.08222670351620763,-0.1456813404146582
1776444092636792800,10.855792724609374,-0.44672026967108247,0.42291375255007296,0.932052447939664
1776444092661810000,10.880809814453125,-0.30445173337459563,-0.5540507635772228,1.174007758456096
1776444092686827800,10.905827880859375,-0.03352583750486374,-0.24714078686293214,0.151194706141809
1776444092711846000,10.930845947265626,0.058363341641426085,-0.7944889475289731,-0.37306342424266037
1776444092736863000,10.955863037109374,0.39390404076278207,-0.8116196036152541,-1.3976871153086423
1776444092761880800,10.980880859375,-0.35923254035413266,-0.7670353426098823,-0.7150459929797798
1776444092786898000,11.00589794921875,-0.46300855664908885,-1.760996403582394,-0.3292714095935225
1776444092811915800,11.030915771484375,-0.35820728895962234,-1.1422674891937523,-0.16304869133364408
1776444092836934000,11.055933837890626,0.6890922712296247,-0.30889673008471724,-0.2756913201732561
1776444092861951000,11.080950927734374,0.845595669105649,-0.021586028059944508,-0.35304428017325695
1776444092886968800,11.10596875,-0.0665758741915226,-0.5986953764677048,-0.0278798309745267
1776444092911986000,11.13098583984375,-0.1644137326091528,-0.7096984214067459,0.10789733400866389
1776444092937003800,11.156003662109375,1.35020815577507,0.43766993458997455,0.09966847137827425
1776444092962021000,11.181021240234376,0.6856669729560613,-0.1243173393412493,0.4846513563975692
1776444092987039000,11.2060390625,0.24623159959614274,-0.16513338865321128,0.5537693893525749
1776444093012056000,11.23105615234375,0.1295388185828924,-0.43993966962024567,0.6453171346500516
1776444093037074200,11.25607421875,0.2677946121066809,0.8764652199480683,0.8189763961188494
1776444093062092000,11.281092041015626,-0.09139116649627685,0.6387466702185571,0.5942613395430147
1776444093087109000,11.306109130859374,-0.11262860031425952,0.42626631438098844,0.5119948520056903
1776444093112127000,11.331126953125,-0.07865969521701335,0.1659864435522817,0.3187738348461687
1776444093137144000,11.35614404296875,-0.5872498533457517,0.31490612656734884,-0.15689999597817658
1776444093162162200,11.381162109375,-0.6862053176164626,0.2277909020909108,-0.10296148504167794
1776444093187179000,11.406178955078126,-0.5363140313565731,0.401676574460417,0.21782544319257138
1776444093212197000,11.431197021484374,-0.13167524608969688,0.0833826138193719,0.5121040114685893
1776444093237215000,11.456215087890625,-1.2382885805130004,0.0018388510660268366,0.8193123500749468
1776444093262232000,11.481232177734375,-0.8371832300692796,-0.652354778201878,1.5439125725373626
1776444093287250000,11.50625,-0.36806583515107627,0.2612236179522239,1.7217928127020596
1776444093312267000,11.53126708984375,-0.004324292939901352,0.6920914530456066,0.9992908776931464
1776444093337285000,11.55628515625,0.18340894045829773,0.8195133525397628,0.27974786555506287
1776444093362302000,11.581302001953125,0.3106207773983478,-0.21482764961607753,-1.0316569507036357
1776444093387320000,11.606320068359375,0.1651326945334673,-0.10121761878272519,-1.3962735952489078
1776444093412337200,11.631337158203126,0.051260816159844395,-0.0995036544716917,-1.3605677833564578
1776444093437355000,11.65635498046875,0.3004769845247269,-0.13330651881964878,-1.236183717188239
1776444093462373000,11.681373046875,0.431269602560997,0.11184227224215865,-0.7176188391424715
1776444093487390000,11.706389892578125,0.01388940914273262,0.08412747736992314,-0.02862168058408424
1776444093512408000,11.731407958984375,-0.4037666786074638,-0.06415986255835741,-0.8023580004036426
1776444093537425200,11.756425048828126,-0.6095429336965084,1.460313082830608,-0.07440330271443818
1776444093562443000,11.781443115234374,0.2595855866879225,-0.23151295482134446,-0.49902474966496224
1776444093587460000,11.806460205078125,0.5433686260432005,-0.06475870523434132,0.7819829555686563
1776444093612478000,11.83147802734375,-0.10254618223905562,0.17231964689549056,-0.0346573805517517
1776444093637495000,11.8564951171875,0.3432178096204996,-0.5173634298341349,-0.06443849683664739
1776444093662513000,11.881512939453126,0.3718342477738857,-0.1610329310644418,-0.05950918720830232
1776444093687531000,11.906531005859375,-0.08899404222667216,0.008979644465073943,-0.666661243712902
1776444093712548000,11.931548095703125,0.23460429016649723,0.44295828678905963,-1.1816885952822864
1776444093737566000,11.95656591796875,0.22234745066165923,-1.0798142478901893,-0.7355373576708137
1776444093762583000,11.9815830078125,-0.19846914694607257,-0.8853101321175694,-0.37232064305134116
1776444093787601000,12.006600830078124,0.04503215090334415,0.013032500052452087,-0.10435966140180826
1776444093812618000,12.031617919921874,0.2219739411741495,-0.46688817456141113,-0.13453333893455563
1776444093837636000,12.056635986328125,0.37756431585848327,-0.8834919037144631,-0.17894998828805983
1776444093862653000,12.08165283203125,0.17112521294653416,-0.5499122755330056,-0.15065737526156006
1776444093887671000,12.106671142578126,0.2656061621516943,0.22744608897492288,-0.2795916520800441
1776444093912688000,12.131688232421874,0.679583853650093,0.3326011385381222,0.2886099480550736
1776444093937706000,12.1567060546875,0.11959376315176486,-0.40505028867721554,1.0346736681763082
1776444093962724000,12.18172412109375,-0.08588438577353953,-0.39562195059657096,0.9000669717445969
1776444093987741000,12.206740966796875,-0.03726385498940944,0.2402688917994499,0.6727659903287887
1776444094012759000,12.231759033203126,0.21081366473436355,-0.6361309347622096,0.3380675872504711
1776444094037776000,12.25677587890625,-0.28499124610126014,-0.2513334527797997,0.6474101614065468
1776444094062794000,12.2817939453125,-0.37300913677215575,0.11440949238166212,0.6073965693175792
1776444094087811000,12.30681103515625,0.10660042606592178,0.19266703653857112,0.468841062194854
1776444094112829000,12.331828857421876,0.46141456545591353,-0.6639262657910585,0.449696801263839
1776444094137846000,12.356845947265626,-0.7079512854784726,0.21336071886867283,0.865957781393826
1776444094162863900,12.38186376953125,-0.05087444719076156,0.03730491765215993,0.6764595841497183
1776444094187881000,12.406880859375,-0.22231588647961614,-0.5203606754213571,0.17329554272294043
1776444094212899000,12.431899169921875,-0.21310499054193496,-0.34118002018257976,0.22796762863099573
1776444094237916000,12.456916015625,-0.22245208007991313,-0.05775273546241223,0.17953356032967566
1776444094262934000,12.48193408203125,-0.21056582745313643,0.10715199553407728,0.09777253809645771
1776444094287951000,12.506951171875,-0.1368371588975191,-0.24830299904271957,-0.3687716453328728
1776444094312969000,12.531968994140625,-0.2513438280433416,-0.13269728261381386,-0.5020306534826755
1776444094337987000,12.556987060546875,0.23756255545020102,0.15760193370245396,0.3061191551301628
1776444094363004000,12.58200390625,-0.18608605071306228,0.26040844737812874,0.2934779924828559
1776444094388022000,12.60702197265625,0.4573275884032249,-0.18513306083716452,-0.057285556342080234
1776444094413038800,12.632038818359375,0.2545522686958313,0.4380442112624645,-0.384804788506031
1776444094438057000,12.657056884765625,-1.3388006265759467,2.486575115688145,-3.3049048844665285
1776444094463074000,12.682073974609375,-0.13894085317850113,0.5437671969067305,0.006319923736527562
1776444094488092000,12.707091796875,0.9120189830839633,-0.8944184444636106,0.45560544078573584
1776444094513109000,12.73210888671875,1.365505093628168,-1.3959572227761148,0.0547530421897769
1776444094538126800,12.757126953125,-0.0441541990250349,-0.7242348962813615,-0.1726167666785419
1776444094563144000,12.78214404296875,-0.04652209720015526,0.4205491788432002,-0.07562902228422462
1776444094588162000,12.807162109375,0.3591226502388716,-0.7622504464209079,-1.1005993348307908
1776444094613179000,12.832178955078126,0.2132388460546732,0.6744371384114026,0.2767451766077429
1776444094638197000,12.857197021484374,0.4884446112006902,0.4567583736805245,-0.6631892567533999
1776444094663214000,12.882214111328125,-0.388786551618576,0.23797804091591387,-0.5563864399831742
1776444094688232000,12.90723193359375,-1.0067086066037416,-0.6820110807970166,-1.477174201260507
1776444094713250000,12.93225,-0.8934118977695703,-1.7305960046216844,-0.020837328584492207
1776444094738267000,12.957266845703124,-0.31569442740082737,-1.3075311896957456,0.22481639805845915
1776444094763285000,12.982284912109375,-0.0022439795345067974,-0.96594017755948,-0.5625836141228675
1776444094788301800,13.0073017578125,0.42711365192532535,-0.9460328963667154,-0.9116437200307845
1776444094813320000,13.03231982421875,0.590897269937396,-0.45631665779501196,0.16400522487349808
1776444094838337000,13.0573369140625,0.1283411332309246,-0.4179920417062938,0.5943396654762327
1776444094863355000,13.08235498046875,0.04678980822563171,0.5229175933625548,-0.10642959954366087
1776444094888372000,13.1073720703125,0.5007751004636287,0.9668186408944427,0.10086948119848967
1776444094913389800,13.132389892578125,0.6442167721927166,0.8093596958592534,0.3434462115488946
1776444094938407000,13.157406982421875,0.21006547671556472,0.5716264600172638,0.7587751715257763
1776444094963425000,13.182425048828126,-0.058660863283276556,0.7968176827374845,0.07314838444963097
1776444094988441900,13.20744189453125,0.01906301238834858,0.9651907474316656,0.12082213590294122
1776444095013460000,13.2324599609375,0.16633271797299384,1.0467455065030604,0.9869814312182367
1776444095038477000,13.25747705078125,0.37378947349488734,0.6927354500375688,1.0570534769624471
1776444095063495000,13.282494873046875,0.2919137388408184,0.6904857714146375,0.5908088610015809
1776444095088512000,13.307511962890626,-0.09702537299096584,0.567318277961947,1.2014375441081822
1776444095113529900,13.33252978515625,-0.14949147328734397,0.4218007863394916,1.434717453803122
1776444095138547000,13.357546875,-0.0070972647845745085,0.3595300985286012,0.8345509088043123
1776444095163564800,13.382564697265625,0.09960720617771147,0.30864838134683664,0.7689523552123457
1776444095188582000,13.407581787109375,-0.01907294926047325,-0.3306931129597127,-0.8855052893634885
1776444095213600000,13.43260009765625,-0.34639702417850493,-0.8417003421675413,-2.3630194631680843
1776444095238616800,13.457616943359374,-0.24358254639208315,-1.0210299774229525,-0.5177319708855822
1776444095263635000,13.482635009765625,-0.16124971562027932,-0.39980296260826287,0.5997800298992544
1776444095288652000,13.507652099609375,0.515690930044651,0.8302440784558653,0.7734773583561182
1776444095313670000,13.532669921875,0.47193654399216173,0.45742487476523963,1.1585985924001783
1776444095338687000,13.55768701171875,0.19715105008482933,0.2615239160730503,0.6340426572460681
1776444095363704800,13.582704833984375,-0.2288888351291418,0.48954577737562355,-2.1621606446065007
1776444095388722000,13.607721923828125,0.30936990055441854,0.09196381528507917,-0.8527453216645866
1776444095413740000,13.632739990234375,0.316661226606369,-0.2970357580296695,-0.7613222256600857
1776444095438758000,13.6577578125,0.14174012850821016,-1.2340982892163097,-0.8729915524881332
1776444095463775000,13.68277490234375,0.17169278370141983,-1.6587648402504622,-0.27948636507466434
1776444095488792800,13.707792724609375,-0.0248263982206583,-1.0035033808216451,0.051044835321605204
1776444095513810000,13.732809814453125,0.06561199759542942,-0.040216165456362064,1.1593473649408668
1776444095538827800,13.757827880859375,-0.7474708104401826,0.14951412351056934,1.8166871650137006
1776444095563844900,13.782844970703126,-1.0661878005325793,0.40883280289061363,1.4173786348588764
1776444095588863000,13.807863037109374,-0.4299655342251062,0.607703224113956,-0.8128066214427352
1776444095613879800,13.8328798828125,-0.3934031055033207,-0.39240715326853093,-1.0409026256937532
1776444095638898000,13.85789794921875,-0.716891547781229,-0.17222769429571927,-0.929522125744447
1776444095663915000,13.8829150390625,-0.6525719280838966,-0.3491274355230853,-0.8727768868241459
1776444095688932900,13.907932861328124,-0.04384849407672882,-0.6732832922011613,-1.2764939541362226
1776444095713950000,13.932949951171874,0.21417700368762016,-0.49419871774800117,-0.8785766591440886
1776444095738967800,13.9579677734375,0.3748614866405725,-0.23202344336044042,-0.03465656313442159
1776444095763985000,13.98298486328125,0.5696370397657156,-0.2907389959730208,-0.1654749686324969
1776444095789003000,14.0080029296875,-0.241807353413105,-0.1003107878698036,-0.563367384911701
1776444095814019800,14.033019775390626,-0.37722237055301666,-0.6675191757164896,0.2943417879716493
1776444095839038000,14.058037841796875,-0.36926059789359567,-0.48157713658399876,0.3802127845406532
1776444095864055000,14.083054931640625,-0.5181505981564521,-0.005922850710339844,0.405671854641661
1776444095889073000,14.108072998046875,-0.46096331455707545,-0.30431681841593233,1.1886016626063733
1776444095914090000,14.133090087890626,-0.11878069320321083,-0.32149273841604586,0.8230794475235045
1776444095939107800,14.15810791015625,-0.04444003022909164,0.09185008924491703,0.11104555977336131
1776444095964124400,14.18312451171875,0.16467209128439425,0.13652561786347067,0.3575604789560661
1776444095989142500,14.208142578125,0.7024930200725793,0.08501566751445643,0.25508504213197153
1776444096014159400,14.233159423828125,0.27132921597361565,0.2042414102045819,0.5375014510428533
1776444096039177500,14.258177490234376,0.4076245230793953,0.1874768840169534,-0.5611599014626816
1776444096064194600,14.283194580078124,0.629368747150898,-0.5106120193451643,-0.8415933746617287
1776444096089212400,14.30821240234375,0.031037527820467946,-0.4877453768901527,-0.3350959875611588
1776444096114229500,14.3332294921875,0.12210194658041,-1.2968655649051068,0.020788301810994742
1776444096139247400,14.358247314453125,0.3058586775630712,0.1630440882237628,-0.36704825560636817
1776444096164264400,14.383264404296876,0.2956429884970188,0.004350898960680933,0.634879254200682
1776444096189282300,14.4082822265625,0.04884381814599037,-0.018244199968886095,1.0395977536402643
1776444096214299400,14.43329931640625,0.01030570543706417,0.7761109947953373,1.5681043261162935
1776444096239317500,14.4583173828125,-0.5011877729177475,0.6176552938077599,1.2950801427930592
1776444096264334300,14.483334228515625,-0.2855523871153593,0.2611174724303186,1.0972465172715484
1776444096289352400,14.5083525390625,-0.005512625941634178,-0.22413930251449346,0.07029953435715287
1776444096314369500,14.53336962890625,-0.2950093667685985,-0.3830956465005874,-0.5536562843669206
1776444096339387400,14.558387451171875,-0.22167525048851966,-0.3522968958720565,-1.369256408985704
1776444096364404500,14.583404541015625,-0.19598200630545615,0.22553930550552903,-2.135977278818935
1776444096389422300,14.60842236328125,-0.07776362316012382,-0.7282094259355216,-0.7111446016270667
1776444096414439400,14.633439453125,-0.23924013327360152,-0.8264179442964493,-0.5498271910654381
1776444096439457500,14.65845751953125,0.0437707526654005,-1.0752247281428426,-0.7050292605519294
1776444096464474400,14.683474365234375,-0.1490770472675562,-1.2176434865649788,-0.8011765355341136
1776444096489492500,14.708492431640625,-0.11100479850471019,-0.5246188077898696,-0.4442690405940637
1776444096514509300,14.73350927734375,0.16382804167568682,-0.30779841345399617,-0.10277323246058076
1776444096539527400,14.75852734375,-0.10000117393136024,2.5734096417933703,1.0589224126394838
1776444096564544500,14.78354443359375,0.6890379106938839,1.2442555260933934,1.5959885044723747
1776444096589562400,14.808562255859375,0.9697077864646911,0.49658879122231153,1.2261615048676728
1776444096614579500,14.833579345703125,0.37830198248326774,0.8465656831815839,0.7041038893353193
1776444096639597300,14.858597412109376,0.6476683739513158,-0.28357840189496053,1.0591728072039783
1776444096664614400,14.883614501953126,0.6256938580304384,0.786618944806233,2.357475126913935
1776444096689632500,14.908632568359375,0.5320394227772951,1.112007886943221,1.2586989158570765
1776444096714649300,14.9336494140625,0.3644377077817917,0.3127212568089366,0.4813065760143101
1776444096739667500,14.95866748046875,0.3925999724268913,-0.5140158729718998,-0.009710662153363227
1776444096764684500,14.9836845703125,0.7376479200839996,0.03181987383719533,-0.25366880039218814
1776444096789702400,15.008702392578124,0.24963059438467025,0.5314901913966983,0.1760605139242485
1776444096814719500,15.033719482421875,-0.15940145740509032,0.6237972306288778,-0.12386407914841546
1776444096839736600,15.058736572265625,-0.5647141964107751,-0.5762267203543335,1.3501894510746002
1776444096864754400,15.08375439453125,0.10414017343223095,-1.3244111589565872,-0.15527940903902052
1776444096889771500,15.108771484375,0.5599579417943954,0.9691882926352322,0.604938581706211
1776444096914789400,15.133789306640624,1.3085972114920614,0.7159456452332437,-1.5848855111777782
1776444096939806500,15.158806396484374,0.6621820524722337,-0.7764773438896984,-1.6362686385430394
1776444096964825300,15.183825439453125,0.07779284925460815,-0.758291918053478,-1.0343991620838642
1776444096989842400,15.208842529296875,-0.3828448866099119,0.10904993810988962,-0.9674933252856135
1776444097014860300,15.2338603515625,-0.9518085571587085,-1.067160152696073,-1.3130441078983246
1776444097039877400,15.25887744140625,-1.5882885976195333,-1.4605268717117608,-1.1580191850770265
1776444097064895500,15.2838955078125,-1.7532330761045216,-1.1865677456259727,-0.14012136819995938
1776444097089912300,15.308912353515625,-1.7445745533525943,-0.5717538857892155,-1.1424997635796665
1776444097114930400,15.333930419921876,-1.6664175469607114,-1.086416641829908,-1.1441307257823645
1776444097139947500,15.358947509765626,-1.4410498716950415,-1.039748779483512,-1.102554122160375
1776444097164965400,15.38396533203125,-0.9801637140274048,-0.24845840880014,-0.10242266545724123
1776444097189982500,15.408982421875,-0.42593759388327596,-0.11479966074302791,-0.47502654589675364
1776444097215000300,15.434000244140625,-0.47936406364440914,-1.4470716162025927,-0.4252694488307461
1776444097240017400,15.459017333984375,-0.6933136883169412,0.2700766586292535,1.1795947648081928
1776444097265035300,15.48403515625,-0.4049520889997482,0.5854081710018217,1.5789005915492773
1776444097290052400,15.50905224609375,0.0467640892624855,-0.508314848318696,0.797127333208546
1776444097315070500,15.534070556640625,0.25348610076904293,-0.7513016207747161,0.4758935745222494
1776444097340087300,15.55908740234375,0.5135521644502878,-0.37744185852259393,0.518703994255513
1776444097365105400,15.58410546875,0.6252233179092407,-0.17978665830790996,0.5258408603981137
1776444097390122500,15.60912255859375,0.6072025080502033,0.03248195447511971,0.7639172105893492
1776444097415140400,15.634140380859375,1.0184440525829792,0.38912645109742877,4.252442340177297
1776444097440157400,15.659157470703125,-0.2741927887111902,-1.4549778592824936,1.2389090504989027
1776444097465175300,15.68417529296875,0.6207488028436898,-1.726896857842803,1.662762093193084
1776444097490192400,15.7091923828125,1.127194934681058,0.3564193095643073,-0.8964956160638481
1776444097515210500,15.73421044921875,0.9310568610310554,1.2837667216181754,-0.9440219949357211
1776444097540227300,15.759227294921875,-0.420519660487771,-0.01977050307057798,1.448292682430148
1776444097565245400,15.784245361328125,-1.193357551896572,-1.0124764494154601,1.074274587811157
1776444097590262500,15.809262451171875,0.34676994914412496,0.5722139045163989,-0.021788418764248488
1776444097615279400,15.834279296875,-0.1682201391547918,0.12183584299013017,0.09369005455579608
1776444097640297500,15.85929736328125,0.6792682118296622,0.4681394167315215,-0.34504718047212807
1776444097665314600,15.884314453125,0.42066929809153075,0.2865913747742772,0.2859150829479098
1776444097690332400,15.90933251953125,0.09048749565482139,0.5173399758933112,0.36057010910082604
1776444097715349500,15.934349609375,0.3612123159945011,0.21865897140726445,0.5278212205603718
1776444097740367400,15.959367431640626,0.11808745024204254,0.1824752398047596,0.4908636550411582
1776444097765384400,15.984384521484374,0.3833721253544092,0.2053114140562713,0.799930773256719
1776444097790402300,16.00940234375,0.7580529947310686,-0.14435162618085742,0.5492392716422677
1776444097815419400,16.03441943359375,0.6097638829708099,0.06141242701373994,0.16346342788068577
1776444097840437500,16.0594375,0.11346388209462165,-0.26614319163784383,0.33240441038962454
1776444097865454300,16.084454345703126,0.1438216109573841,-0.24858225437551734,0.6131124627463519
1776444097890472400,16.109472412109376,0.20825287433564663,0.06907806627079845,0.48762580563109365
1776444097915489500,16.134489501953126,0.29137597870230675,0.08049195214547217,0.2883771256798878
1776444097940507400,16.15950732421875,0.5950491289198399,-0.7093830718472599,0.27877624404393136
1776444097965524000,16.18452392578125,-0.6398813733369112,-1.5509014085114001,0.5981523556321859
1776444097990541800,16.209541748046874,0.24842297216057777,-1.4951926730319858,0.36493798545412715
1776444098015559000,16.234558837890624,0.7571785499840974,-0.6704654583014548,-0.19191658349744975
1776444098040577000,16.259576904296875,0.211159701693058,-0.046347032894194125,-0.5616470639251172
1776444098065593900,16.28459375,0.6055249302268028,0.39709644359592344,-0.8235996720053255
1776444098090612000,16.309612060546876,0.20066987186074256,-0.007389831690094433,-0.8347539570957422
1776444098115629000,16.334629150390626,0.4222831630289554,-0.2188205186445266,-0.8360017651997506
1776444098140646000,16.35964599609375,-0.1901759503751993,0.3483003735817969,-0.40163836134187875
1776444098165664000,16.3846640625,-0.5964677635461092,0.0743276756283827,0.17049824015460907
1776444098190681000,16.40968115234375,-0.4016489558011293,0.08235252185296267,0.5482136183889582
1776444098215699000,16.434698974609375,-0.6946171721309423,0.8608987444385886,0.5126306656911969
1776444098240716000,16.459716064453126,-0.6383014106690883,0.6883638108246029,0.6308710414726286
1776444098265734000,16.48473388671875,-0.3261626299232244,0.2557447664160281,0.42620826405081896
1776444098290751000,16.5097509765625,-0.2887222493231296,0.3225454623393714,-0.24572240796498954
1776444098315768800,16.534768798828125,-0.08068155643343924,0.2666689690776169,-0.6540750261232257
1776444098340786000,16.559785888671875,0.20242577561736105,0.5044585016841069,-0.8634161340869962
1776444098365804000,16.584803955078126,-0.13042962994277477,0.0723317343045026,-0.8082856368869542
1776444098390820900,16.60982080078125,0.2429009938687086,0.07631061134021729,-0.088666646036366
1776444098415839000,16.6348388671875,-0.44235038402378557,-0.5668043736230581,-0.14279843278895132
1776444098440856000,16.65985595703125,-0.4276736238956451,0.24443667900338767,-0.7648741459880024
1776444098465874000,16.6848740234375,-0.5672744022876024,-0.5005365059347823,-0.5448188979167491
1776444098490891000,16.70989111328125,-0.3146428725212812,-0.7098224131125956,0.3340171062832698
1776444098515908000,16.734908203125,-0.5074982712388039,-1.326118255135417,-0.030528153526224195
1776444098540926000,16.759926025390627,-0.24156828396022317,-1.7781065283372997,-0.0991611429106444
1776444098565943000,16.784943115234373,0.6983154421269894,-1.7431318071983755,-0.5309533811062574
1776444098590961000,16.8099609375,0.568673747691512,-1.1333671935752034,-0.06145860424302518
1776444098615978000,16.83497802734375,0.21231705503463744,-0.49753794517330824,0.9944088047400116
1776444098640996000,16.85999609375,0.49881578308939933,-0.025543898840248585,1.117381104414165
1776444098666013000,16.885012939453127,0.7182236731678246,0.3653986252358183,0.93290848024711
1776444098691031000,16.910031005859373,0.19673077884614468,0.5507671753292903,0.2513645785704255
1776444098716048100,16.935048095703124,0.2254115144073963,0.6780823630459606,-0.12353212551400064
1776444098741066000,16.96006591796875,0.30128304021060465,0.23140322910286484,-0.7963106830634177
1776444098766083000,16.9850830078125,0.5355488922029733,0.19927732152380048,0.06994038218855858
1776444098791101000,17.010100830078127,-0.02911854245662689,-0.3169317141108215,0.7219447395175695
1776444098816118000,17.035117919921873,-0.15155775816738604,-0.03335570510234684,0.1715988218076527
1776444098841135900,17.060135986328124,-0.3577601297140121,-0.40446912778839467,-0.19192454760819672
1776444098866153000,17.085153076171874,-0.7193366028457879,0.4511016630930826,0.5904685231313109
1776444098891170000,17.110170166015624,-0.08405892391204833,0.6388092871259897,1.9927425278387962
1776444098916188000,17.13518798828125,0.19965981803536414,0.3892723623741418,1.6808619596377015
1776444098941205000,17.160205078125,-0.4710609302014112,1.1833688034541905,0.22558584806099533
1776444098966226400,17.185226318359376,-0.5076169291824102,0.7501959245551377,0.2012251676559448
1776444098991243000,17.210242919921875,-0.43828094262778755,0.6110976157926022,0.7128894725330174
1776444099016261400,17.235261474609374,0.040296939074993134,0.5744699763474985,0.7503580563142895
1776444099041278200,17.2602783203125,-0.6477712498039007,-0.20830241256579757,0.15442067331783474
1776444099066296300,17.28529638671875,-0.28584932423532006,0.4118059734825045,-0.008496756318956612
1776444099091313200,17.310313232421876,0.4380559017002582,0.7413065156567842,0.5181359120439738
1776444099116331300,17.335331298828127,0.04573474621474743,-0.014359766600839792,0.3359181541316211
1776444099141348000,17.36034814453125,-0.06661620620191097,0.09334706807071343,-0.31642120730541645
1776444099166365200,17.385365234375,-0.4488718947470188,-1.1298552399314938,-2.578447051438689
1776444099191383000,17.410383056640626,-0.09053016575276851,1.2734668614000082,-1.326465168876946
1776444099216400100,17.435400146484376,0.43363750073611734,0.3808569276630878,0.25857816321104765
1776444099241418200,17.460418212890627,0.45559506552219386,-0.6739604608103632,1.6018946597762405
1776444099266435000,17.48543505859375,0.021456045004725456,-0.3184327663235366,1.987178902362287
1776444099291453200,17.510453125,0.24457974073588848,-2.255637239074707,0.23502682642750441
1776444099316470300,17.53547021484375,0.6499889258533715,-1.705999323503673,-0.384532035979256
1776444099341488000,17.560488037109376,-0.2732873643040657,0.11248794973455369,-1.5546321194723247
1776444099366505200,17.585505126953127,0.03834405144155025,0.8744375865779817,-1.1096496333792805
1776444099391523000,17.610523193359374,0.5717027401238679,0.8313471443269401,-1.895192692582309
1776444099416540200,17.6355400390625,0.4430874661266804,-0.3801298554975539,-1.8663431763254106
1776444099441558000,17.66055810546875,0.3720002519905567,-0.40530974333100017,-1.3631493242822588
1776444099466575000,17.6855751953125,0.0840951642692089,-0.3152764577170834,-1.1359000730536877
1776444099491592200,17.71059228515625,-0.05294073207080364,0.3265448341738432,-0.6753666012812406
1776444099516610000,17.735610107421873,0.3942950859069824,0.9091446697566657,-0.0391734149377793
1776444099541627100,17.760627197265624,0.6674807434022426,0.4209510376423597,1.2890394013240933
1776444099566645200,17.785645263671874,0.47270168314576144,-0.09469023544113152,1.9863361679278313
1776444099591662000,17.810662109375,0.2742366278529167,0.000822102638380602,1.4231414361692964
1776444099616680200,17.83568017578125,0.25047464399337765,-0.017279526505060493,0.8394036825977266
1776444099641697300,17.860697265625,-0.3796861303180456,-0.29582780701201405,0.5148999257974326
1776444099666715100,17.885715087890624,-0.5227613068222999,-0.29392135233618316,0.39999600096233184
1776444099691732200,17.910732177734374,-0.4853033905655145,-0.1322153077831492,0.16834435005635023
1776444099716749300,17.935749267578124,-0.41185996869206426,-0.05163246248383075,0.2290697446539998
1776444099741767200,17.96076708984375,-0.29997195761203765,-0.2535824007503688,0.47986024966351687
1776444099766784300,17.9857841796875,-0.7432868027538061,0.09173574215024709,0.5908353106170893
1776444099791802000,18.010802001953124,-0.3555138120919466,-0.17909955282658338,0.5762319079861045
1776444099816819200,18.035819091796874,-0.12836100697517394,-0.19390326380264014,0.7534436012394726
1776444099841837000,18.060837158203125,-0.3832067056596279,-0.033861754928342994,0.9506883940223604
1776444099866854100,18.085854248046875,-0.2589437816530466,0.09146810419000685,0.6619792233765125
1776444099891872300,18.110872314453125,0.1570148545295,0.16533219916094094,0.32696430169492957
1776444099916889000,18.13588916015625,0.08006663940548896,-0.010580284594744443,0.22244360451251266
1776444099941906200,18.16090625,-0.2742085708022117,0.24725564541425554,-0.10305106302127241
1776444099966924500,18.185924560546876,-0.10140811811983584,0.060556138977967196,-0.36874110406413674
1776444099991941600,18.210941650390627,-0.05948328558206558,-0.05142229033187031,-0.4831295536577701
1776444100016959700,18.235959716796874,-0.4999100080668926,0.27721144241262224,-0.6383417426794767
1776444100041976600,18.2609765625,0.1274830550968647,0.5740749126153066,-1.9470400764584541
1776444100066994700,18.28599462890625,0.2874175964653492,0.8503382605228572,-1.0817477001708
1776444100092011800,18.31101171875,-0.14231471352577207,1.4156487423263489,-2.152365957431495
1776444100117029600,18.336029541015623,0.07624094363749027,0.21084371281275524,-0.28187640201635655
1776444100142046700,18.361046630859374,0.7416518950283527,-0.7156838524919003,0.07266396193355322
1776444100167063800,18.386063720703124,0.6665034228026867,-0.4055697825066745,-0.13197430210150776
1776444100192081700,18.41108154296875,-0.048778351694345475,0.41972759679462757,-0.9442273082494735
1776444100217098800,18.4360986328125,-0.10329612382352352,0.2697644874075428,-1.0083603193335235
1776444100242116600,18.46111669921875,0.3991787662953138,-0.44335747870709746,0.19453553382419048
1776444100267133700,18.4861337890625,0.20869185027480125,0.11488702849922701,0.46665604630596935
1776444100292151800,18.51115185546875,0.40094519144594665,0.04085393363693729,-0.7137319147065282
1776444100317168600,18.536168701171874,0.07459376095235347,-0.1496180862085428,-0.8797686454076319
1776444100342186800,18.561186767578125,0.4805564882993698,-0.18910748089347035,-1.1402475276734678
1776444100367203800,18.586203857421875,0.4605342754900455,-0.7390710116896778,-1.0123198706142604
1776444100392220700,18.611220703125,0.26149463517963883,-0.4819783377960324,-0.5253092377394437
1776444100417238800,18.63623876953125,-0.7427221546083689,-1.0853931440010667,-0.39899391124770045
1776444100442255600,18.661255615234374,-0.023393735069036484,-0.6024558980450033,-0.07533259662091732
1776444100467273700,18.686273681640625,0.4708353047519922,-0.15379890642398966,-1.006019016904384
1776444100492290800,18.711290771484375,0.508255227085948,-0.2455444941148162,-1.9347214237637818
1776444100517308700,18.73630859375,0.19979075093865392,-0.6214962602101266,-1.3989026285782455
1776444100542325800,18.76132568359375,-0.39015959353744983,-0.8432466948267072,-0.27195743087455626
1776444100567342800,18.7863427734375,-0.529631777113676,-0.5590786747418344,0.820724701090902
1776444100592360700,18.811360595703125,-0.4499135127544403,-0.19234858170654623,0.3832695417627692
1776444100617377800,18.836377685546875,-0.4095452620089054,-0.13582973542064428,0.23398791183382273
1776444100642395600,18.861395751953125,-0.4629828376859426,0.027214690729836,0.11433292001411319
1776444100667412700,18.886412841796876,-0.4729541966021061,0.1683355456953868,0.33437121695056554
1776444100692430800,18.911430908203126,-0.40670156301558014,0.2209558501727879,0.7645010018266737
1776444100717447700,18.93644775390625,-0.1552455067694187,0.4308068073548376,0.3599839432433247
1776444100742464800,18.96146484375,0.1683481494486332,0.42705549199730153,0.20191592639908193
1776444100767483000,18.98648291015625,0.05113748204112053,0.06567181975757702,0.8709564664639532
1776444100792499700,19.011499755859376,-0.12748890031576157,0.05093326470591127,1.0666890280529857
1776444100817517800,19.036517822265626,-0.08916998331546783,-0.07158581130802631,1.0132157965406774
1776444100842534700,19.06153466796875,0.05460018971562385,0.18680541449617594,0.7020702646158635
1776444100867552800,19.086552734375,0.17882862693071364,0.009888612536154686,0.7599876160554587
1776444100892569900,19.11156982421875,0.09848317058384418,-0.025162425241991877,1.0751569966688752
1776444100917587700,19.136587646484376,0.06894903306365013,-0.06798263571690767,1.1781817562051116
1776444100942604800,19.161604736328126,0.0549684385061264,-0.13671988919340072,1.2380955421589315
1776444100967622000,19.186621826171876,0.08769523458778858,-0.14714615227021277,1.5263292773127555
1776444100992639700,19.2116396484375,0.12617255702018737,0.1510605127023533,1.641550232207775
1776444101017656800,19.23665673828125,0.08758008377552032,0.1374777218233794,0.8994873452257365
1776444101042674700,19.2616748046875,-0.27543957390189167,-0.2559580803731456,-2.1174910434052348
1776444101067691800,19.28669189453125,-0.44622868676185606,-0.43817751878593114,-1.5773860953330994
1776444101092710000,19.3117099609375,-0.2923223196417093,0.08991360475700348,-0.29989509298354383
1776444101117726700,19.336726806640623,0.1641425144523382,0.542965415537171,1.0083131922561674
1776444101142743800,19.361743896484374,0.24803601866960523,1.3216237201951444,0.46032589343637226
1776444101167762000,19.386761962890624,0.43545244120359416,1.3956690534844993,-0.9722248107869178
1776444101192778800,19.41177880859375,0.3058522478222847,-0.16950882725846023,-0.7857268913373351
1776444101217796900,19.436796875,0.28941023158729073,0.08868362457063049,-0.7923194214701652
1776444101242814000,19.46181396484375,1.0763666647195815,-0.6004441563637927,-0.14763426458071915
1776444101267831800,19.486831787109374,1.1454308485954998,0.06818652425855398,-0.9910567908983677
1776444101292849000,19.511848876953124,0.9564981762796639,0.32621677126325666,0.12295635318635031
1776444101317865700,19.53686572265625,0.540840568870306,-0.22867307348661123,0.125467842816934
1776444101342883800,19.5618837890625,-0.48832536873519417,0.07059577735736966,0.3534361290350556
1776444101367901000,19.58690087890625,-0.7747662291228771,0.3958106781017035,0.14020692759156225
1776444101392918800,19.611918701171874,-0.7104857723921537,-0.8898316281300037,-0.8378075725127011
1776444101417936000,19.636935791015624,-0.9474053537636995,-0.6663844725981354,-0.6191033737242222
1776444101442953700,19.66195361328125,-0.8772446068227291,-1.0399128109388054,0.03929126003063284
1776444101467970800,19.686970703125,-0.8284352754682301,-0.5267105559047311,-0.12659764143130742
1776444101492988000,19.71198779296875,-0.8111644071936607,-0.0613945990961045,0.10004989931075833
1776444101518005800,19.737005859375,-0.577161590051651,-0.06298303733132779,0.11093832740606739
1776444101543022800,19.76202294921875,-0.5311024341881275,-0.2987477495793253,-0.5303581916920841
1776444101568041000,19.787041015625,-0.5768365958809852,-0.7784721709687262,-0.32974885437954216
1776444101593057800,19.812057861328125,-0.44883039369285105,-1.294448274630308,-0.3074169763883576
1776444101618075000,19.837074951171875,-0.33179099119901656,-1.0992376910887658,-0.8591488320313394
1776444101643093000,19.862093017578125,-0.15056699356436729,-0.446986957783252,-0.560017782222852
1776444101668109800,19.88710986328125,-0.05942307982742786,-0.4401740994306281,-0.29554849688028917
1776444101693128000,19.9121279296875,0.4895172088682651,-1.095512094694376,-0.16505400327406822
1776444101718144800,19.937144775390625,0.628193858152628,-0.5182506975300609,-0.9042558017365634
1776444101743163000,19.962162841796875,0.49352352190017695,-0.6062691361902282,-1.188623362981528
1776444101768180000,19.987179931640625,0.6638385875076055,-0.39989005636982616,-1.2088344494264571
1776444101793196800,20.01219677734375,0.5427274055302143,0.2851491583430208,-0.23696130162142215
1776444101818215000,20.03721484375,0.5592366417825222,-0.2848153415450826,0.7177960954055189
1776444101843231700,20.062231689453125,0.41440030082464213,-0.7408494195390493,1.1855241548571736
1776444101868249900,20.087249755859375,0.12991641972362994,0.0021605504511971957,0.976784739113599
1776444101893266700,20.1122666015625,-0.0796902073085308,-0.3029721075423993,0.6856278099894523
1776444101918284800,20.137284912109376,-0.46416590999066826,0.44158418542426076,0.9911334363311528
1776444101943301600,20.162301513671874,-0.21305764426887033,0.14439538312419317,1.7076570275828242
1776444101968315000,20.18731494140625,-0.6646662705034018,-0.07009939954201691,1.1368925912223755
1776444101993332700,20.212332763671874,-0.6344944196015596,-0.45475496143624183,0.3310623846635222
1776444102018349800,20.237349853515624,-0.13300094173550606,-0.696638302695006,-0.1618052306111902
1776444102043368000,20.262367919921875,-0.17793197035193442,-0.07719285580115393,-1.0295500415522605
1776444102068384800,20.287384765625,-0.45545361122488975,0.15805709359142928,-1.4169061950415371
1776444102093401900,20.31240185546875,0.3952344125837087,-1.3765547493003307,-0.7319839029729366
1776444102118420000,20.337419921875,0.5659615661233663,-0.338908677717112,-1.471250656430423
1776444102143436800,20.362436767578124,0.10110416673719883,0.1897206260894425,-1.31848016147241
1776444102168455000,20.387454833984375,0.05564356128871441,0.7417603969041258,-0.2098053644746542
1776444102193472000,20.412471923828125,1.0532125836253166,1.8486933917358517,1.7020967631071804
1776444102218488800,20.43748876953125,0.5709463687986135,0.21980675320290027,2.0139181484669444
1776444102243507000,20.4625068359375,-0.13614800758957862,0.07003394222352653,1.351685242590308
1776444102268524000,20.48752392578125,-0.20914427021741866,-0.4102325501533225,2.0087766939252614
1776444102293542000,20.5125419921875,0.3245867589086294,-0.6880514569398015,3.775314657282829
1776444102318559000,20.53755908203125,0.6163736564993858,0.2441222792919725,3.534219251531362
1776444102343576800,20.562576904296876,0.3088789021670818,-0.19302388715222477,1.5974828346833585
1776444102368594000,20.587593994140626,0.43706689066290855,-0.9240571383368223,1.6860380471013485
1776444102393611000,20.612611083984376,0.461350268048048,0.3215228778259828,1.3505721667818724
1776444102418628900,20.63762890625,0.42266660938858985,0.6069317648174241,0.1683143933095038
1776444102443646000,20.66264599609375,0.2566875271588564,-0.5565814510986209,-0.8312928568564355
1776444102468663800,20.687663818359376,-0.01726385401189327,-0.6914055896732956,-1.1310365586705504
1776444102493681000,20.712680908203126,0.3731973528206348,-0.08540643866402096,-3.0001819329351185
1776444102518698000,20.737697998046876,0.1350724873125553,-0.3392399554980919,-2.0098798328615723
1776444102543715800,20.7627158203125,0.4709650686115026,-0.2427996889187023,-1.844216830843687
1776444102568733000,20.78773291015625,0.025514965006709096,-0.9529761396333575,-1.0868659930326043
1776444102593751000,20.8127509765625,0.28635552019178867,0.8535634331144392,-0.4069603235496208
1776444102618768000,20.837767822265626,0.6361608915090561,0.6130448043376207,-1.564652285966277
1776444102643785000,20.862784912109376,0.3660977499485016,-0.5282223487071692,-1.3078631981290876
1776444102668803000,20.887802978515627,0.32391222064793107,0.12217097496232017,0.07137495873605366
1776444102693820000,20.91281982421875,0.23479075264930724,0.8239171404566615,0.08856762437499127
1776444102718838000,20.937838134765624,-0.15825404093563555,-0.6242885943423956,-0.5070324438253417
1776444102743855000,20.962855224609374,-0.449065371492505,-0.2028688432097435,0.44396454122215506
1776444102768872000,20.987871826171876,-0.5146119026362895,0.18739505095239728,1.1561509069871156
1776444102793890000,21.01289013671875,-0.07728782234191894,-0.7144127365775406,-0.4598480833241716
1776444102818907100,21.0379072265625,-0.6788315739780664,-2.2546977662675083,-0.6614683512449264
1776444102843925000,21.062925048828124,-0.33479309562444687,0.014752547044400125,0.2519271078240126
1776444102868942000,21.087942138671874,-0.17444588180184364,-0.015582348932046443,-0.10489373174589127
1776444102893960000,21.1129599609375,-0.07263678166568278,-1.9882957775630055,-2.384023672752082
1776444102918977000,21.13797705078125,-0.29226328293085096,-1.2014118251450359,-3.5842233456283807
1776444102943993900,21.162993896484377,-0.29615444515049455,2.402610592061281,2.683025616288185
1776444102969012700,21.1880126953125,0.3454752331584692,1.493518163948506,7.957709647765755
1776444102994029800,21.21302978515625,-0.5004050981074571,-2.317588376075029,1.7199331563100217
1776444103019046700,21.238046630859376,0.5380103138804435,-2.0220685755662617,0.6191327459491789
1776444103044064800,21.263064697265627,1.0997066237747668,-0.104854130387865,0.2637648999328725
1776444103069081600,21.28808154296875,0.44269466741681096,-0.2669482974756509,-0.8177866748776287
1776444103094099700,21.313099609375,0.9553817394703626,-0.09846884979754686,0.10550067552994005
1776444103119116500,21.338116455078126,-0.01929331401288509,-0.8259580716997384,0.1466155251253862
1776444103144133600,21.363133544921876,-1.5234522605717182,-0.5384737666737288,0.6413110408138484
1776444103169151500,21.3881513671875,-1.0857587624430656,0.019613705073669552,1.0719068357665091
1776444103194168600,21.41316845703125,-0.291539644831419,-0.044364188513904806,0.9067429423771798
1776444103219186400,21.4381865234375,-0.7916057202428579,0.07047945750132202,1.1092950477879493
1776444103244203500,21.46320361328125,-0.16958733585476873,0.3494025626700371,1.0068375667456537
1776444103269220600,21.488220703125,0.10350012196302413,0.03352170931901782,1.608716030228883
1776444103294238500,21.513238525390626,0.38525136322975156,0.2967260710259899,0.6565185468178242
1776444103319255600,21.538255615234377,0.4268284052431583,0.09976809582784771,0.787171391057223
1776444103344273700,21.563273681640624,0.9918868850469589,-0.16866086865961552,0.06228290340506937
1776444103369290500,21.58829052734375,0.45431087093055245,0.1537192105175927,-0.05045995723889209
1776444103394307600,21.6133076171875,-0.19449264453053472,0.4805862989157438,0.14103588922899216
1776444103419325700,21.63832568359375,-0.24774726485610007,-0.06644691404961049,0.3897795081786811
1776444103444342500,21.663342529296877,-0.5087450564295053,-0.164203085533157,0.6686565822485834
1776444103469360600,21.688360595703124,-0.13323767310082912,0.1056351977629587,0.465809256750904
1776444103494377700,21.713377685546874,-0.2078127293527126,0.30057215199489146,0.522769672791846
1776444103519394600,21.73839453125,-0.189413733831048,-0.04392316674813628,0.7684583611503243
1776444103544412700,21.76341259765625,-0.1878548139512539,-0.11469495825953781,0.5062920372541994
1776444103569429800,21.7884296875,0.21791852830350397,-0.1769273233540356,0.227267298341915
1776444103594447600,21.813447509765624,0.5468816026002168,0.12577427841760216,-0.19308920747339725
1776444103619464700,21.838464599609374,0.6042839902549981,0.3955427478805184,-0.5368310409680008
1776444103644481500,21.8634814453125,0.5894973400115966,0.05910707268081605,-1.4181690545842052
1776444103669499600,21.888499755859375,0.5722364086091518,0.35110184086859225,0.02780629081428051
1776444103694516700,21.913516845703125,0.2856049940854311,0.4190593056116253,-2.5072312424868346
1776444103719534600,21.93853466796875,-0.21978198408782482,0.2845217288933694,-2.351448267839849
1776444103744551700,21.9635517578125,-0.008175707671046256,0.3032822146711871,-1.9511464888639747
1776444103769568800,21.98856884765625,-0.1573030238211155,0.62301470194906,-1.7611593390591442
1776444103794586600,22.013586669921875,-0.336695129853487,-0.39344292605705555,2.0472299048297105
1776444103819603700,22.038603759765625,-0.8344733865886926,0.8599218622304499,1.4450202366307376
1776444103844620800,22.063620849609375,-0.7845271601587533,1.2946094565413893,1.5789919230945408
1776444103869638700,22.088638671875,0.24278701210021972,0.5446571314837784,0.2734415502187796
1776444103894655700,22.11365576171875,0.2274333756238222,-0.5262943763192742,-0.34251068426445125
1776444103919673600,22.138673583984374,0.1391466048836708,-0.6816023538656533,-0.3876824628341943
1776444103944690700,22.163690673828125,-0.48075288765430446,-0.1454215204346925,0.44318073390070345
1776444103969707300,22.188707275390627,-1.176475390678644,-0.18137429282553494,-0.36279377649966627
1776444103994725400,22.213725341796874,-0.34404783070385453,-1.461795430342853,-1.6394088362649082
1776444104019742200,22.2387421875,0.6592471680641174,-0.5241220737814903,-1.0007620462242512
1776444104044760600,22.263760498046874,0.09473170909583568,-0.7480603007659316,-0.15556671981411055
1776444104069777200,22.288777099609376,0.05313303977251053,-1.093743915978074,0.23069723625797778
1776444104094794200,22.313794189453127,0.370522580653429,-0.48944027117453515,0.2687337926529348
1776444104119812400,22.338812255859374,0.7641361140370369,0.04119359565377235,0.2698164550567977
1776444104144829200,22.3638291015625,0.46821840025186534,0.20177754084169863,0.3216558930885047
1776444104169846300,22.38884619140625,0.6492799008011818,-0.04556165467016399,0.05106578677808866
1776444104194864400,22.413864501953125,0.5978472352057695,0.006900280907750129,0.8223695456884801
1776444104219881200,22.438881103515627,0.4306079237818718,0.22452662133164702,0.5823610218582674
1776444104244899300,22.4638994140625,0.28906594819426534,-0.09458324053585529,0.1560930087105371
1776444104269916400,22.48891650390625,0.07711305029690266,0.16336415049098432,-0.03864962852569297
1776444104294933200,22.513933349609374,0.33421792608499523,0.22846991559732704,0.7020883847944438
1776444104319951400,22.538951416015625,-0.02188274598419666,0.07962927090153098,1.319055184881389
1776444104344968200,22.56396826171875,0.20307517943680284,0.4601100952612236,0.4502905293732881
1776444104369986300,22.588986328125,-0.20947043343186378,-0.3758664624320343,0.11949108822857961
1776444104395003400,22.61400341796875,-0.027075638452172278,0.04299498251993209,-0.010113726528920232
1776444104420020200,22.639020263671874,-0.5446703562915325,0.21977014751955865,-0.2903308900961652
1776444104445038300,22.664038330078125,-0.13764438362717626,0.4132772150788456,0.02456884326301515
1776444104470055400,22.689055419921875,-0.4734662377774715,-0.41942419340126214,0.2257564553875476
1776444104495072300,22.714072265625,-0.3598042027622461,-0.2545180558989756,-0.139171629727073
1776444104520090400,22.73909033203125,-0.0521627334356308,0.019305104915378613,-0.17791198700983077
1776444104545107500,22.764107421875,-0.15236030672192571,0.1659097798531875,0.5858171901941299
1776444104570125300,22.789125244140624,-0.3113303869724274,-0.9125403035443276,0.052204124891944224
1776444104595142400,22.814142333984375,0.09969137732982634,-0.7130541615754366,-0.6395245957884937
1776444104620159500,22.839159423828125,0.3844254337996244,-0.08988597696456126,-0.7733127423789352
1776444104645177300,22.86417724609375,0.5213958636879921,-0.142111939228978,-0.5147703080683946
1776444104670194400,22.8891943359375,0.20385726972520352,-0.06934535260458942,-0.4576845120821148
1776444104695211500,22.91421142578125,0.27419571132063864,0.5993304960334673,-0.6213204652518034
1776444104720229400,22.9392294921875,-0.02147942588031292,0.9284691826254129,-0.2309161397056654
1776444104745246500,22.96424658203125,0.2726549116194248,-1.2831858529902993,0.884166295844689
1776444104770264300,22.989264404296875,0.850793237748742,-0.7094339983168989,0.36562647917494173
1776444104795281400,23.014281494140626,0.5953069030731916,0.6847871213816106,-1.3019766243085265
1776444104820298500,23.039298583984376,-0.3310556626617908,0.48274439026508476,-1.553131944042444
1776444104845316400,23.06431640625,-0.19642156676650047,0.11866864766348152,-0.09808847217783331
1776444104870333400,23.08933349609375,-0.8863444436013698,-0.4500398425478488,-0.3170823746278882
1776444104895350500,23.1143505859375,-0.15632979487478732,0.02252360117100179,-0.7997653535619378
1776444104920368400,23.139368408203126,0.20621172389686107,0.5910017532251775,-0.9575408172003924
1776444104945385500,23.164385498046876,0.09635551090538501,0.2903172634296119,0.4901784492559731
1776444104970403000,23.189403076171875,0.035112229913473125,-0.020417276541516184,0.9930069751180708
1776444104995420200,23.214420166015625,0.19827800828814504,-0.6208999017521739,1.0683283196926117
1776444105020437200,23.239437255859375,0.3591518763333559,-0.19550752066150306,0.5986383855834603
1776444105045455000,23.264455078125,-0.09536766891181468,0.05606193283125758,-0.45298093750104307
1776444105070472200,23.28947216796875,-0.2168324866324663,0.07240158467032015,-0.7253000412948429
1776444105095489300,23.3144892578125,0.5142489145427942,-0.5222624904546886,-0.6087444767951965
1776444105120507100,23.339507080078125,0.34885844585597514,-0.6385306163150817,-0.2861383703097701
1776444105145524200,23.364524169921875,-0.002712181568145752,-0.2697304024748504,0.14520809687972067
1776444105170542300,23.389542236328126,-0.24958500167727468,0.594414265082404,0.7564294851824641
1776444105195559200,23.41455908203125,0.0083481416285038,-0.0635245237968862,1.0448276171177624
1776444105220576300,23.439576171875,0.19044132331311703,-0.5133895212344824,1.0053367337286472
1776444105245594400,23.464594482421877,0.26925825491845606,-0.6209786660768092,0.027204233267903326
1776444105270611200,23.489611083984375,-0.420363008621335,-0.02527019646540284,2.581337512183189
1776444105295628300,23.514628173828125,-0.029947979018092152,-0.2106344357099384,0.7120321250513195
1776444105320646400,23.539646484375,-0.19671324318945407,-0.3159666684709489,0.9943009604513645
1776444105345663200,23.564663330078126,-0.4115226995617151,-0.02746558761782944,0.541627627594769
1776444105370680300,23.589680419921876,-0.10273790541887283,-0.3555697800628841,0.14904635986834763
1776444105395698400,23.614698486328123,0.02397884148061275,-0.47453576670512554,0.07813187195062637
1776444105420715300,23.63971533203125,-0.07860416563749313,-0.5292648434974253,0.2863309702724218
1776444105445733400,23.6647333984375,-0.24519056611061094,-0.015069631903246044,0.38644904858171936
1776444105470750200,23.689750244140626,-0.09995850383341312,0.03704327104128897,0.7607103773720562
1776444105495767300,23.714767333984376,-0.2222305462837219,0.04347381554543972,-0.07690832150503993
1776444105520785400,23.739785400390623,-0.10135200401842594,-0.1532066944181919,-0.4482305281035602
1776444105545802200,23.76480224609375,0.01984334911108017,0.19763291531763968,-0.2676706934660673
1776444105570819300,23.7898193359375,0.11549977183640002,0.18204831962957976,-0.3079037735246122
1776444105595837400,23.81483740234375,0.4852139587163925,0.2563143099322915,-0.08933116522654891
1776444105620854300,23.839854248046876,0.1349813018977642,0.8275823119007051,-0.03161079766377806
1776444105645871400,23.864871337890627,-0.34490707788169384,0.83404478591308,-0.5487548491261899
1776444105670889500,23.889889404296873,-0.12218728677630424,0.5117136239115149,-0.717063104955852
1776444105695906300,23.91490625,0.35226503942906856,0.11058993409350514,-0.2881583318300545
1776444105720923100,23.939923095703126,0.6495861902713775,-0.1660948175638914,-0.0019537644162774086
1776444105745941500,23.96494140625,0.23813714046776294,0.29204036089517177,-0.05205021297186613
1776444105770958000,23.9899580078125,0.0612643237799406,0.2966325840562582,-0.2963201571062207
1776444105795976400,24.0149765625,0.3361830886781215,-0.1474846635095775,-0.3277624663352966
1776444105820993300,24.0399931640625,-0.05028291103839874,0.04780884907506406,-0.1570364818394184
1776444105846010000,24.065010009765626,-0.09441548275351523,0.3053786389611661,0.011040157191455364
1776444105871028200,24.0900283203125,-0.15551438683867452,0.22689576161578295,-0.13925225721523166
1776444105896045300,24.11504541015625,-0.37764907153248783,0.3960246131133288,-0.5839943586811422
1776444105921062100,24.140062255859377,-0.24499708936512468,0.153980966726318,-0.6635071635961532
1776444105946080300,24.165080322265624,-0.03839081319272518,0.19009258294068276,-0.2317749119594693
1776444105971096800,24.190096923828126,-0.028084523233771322,0.23300883766859767,0.022258593559265134
1776444105996113700,24.21511376953125,-0.41128421463072296,0.48774318493306634,0.1855981210656464
1776444106021131800,24.2401318359375,-0.1210609130948782,0.07632058474496006,-0.02932458642274141
1776444106046148900,24.26514892578125,-0.05845218896865845,-0.10272080815359949,0.1943972213320434
1776444106071165700,24.290165771484375,-0.0039344168394804,-0.0070360361166298385,0.5196218397527933
1776444106096183800,24.315183837890626,-0.041999066817760465,0.012353139486163853,0.45521498016342515
1776444106121201000,24.340200927734376,0.13468319573402404,-0.002020984433591366,0.36509120325446126
1776444106146217700,24.3652177734375,0.13297580729424952,-0.009293459654599427,0.6388653281621635
1776444106171235800,24.39023583984375,0.15105565386414527,-0.1190492810115218,0.7653316074319183
1776444106196253000,24.4152529296875,0.34528058736920353,-0.09185425396338105,0.469506832627207
1776444106221270800,24.440270751953125,0.37255963943898673,-0.3607290625222027,0.5274962994549424
1776444106246288000,24.465287841796876,0.37572248738408087,-0.6513050499532371,0.6701315501719712
1776444106271305000,24.490304931640626,0.3951502414315939,-0.6249063609145581,0.6952765128225088
1776444106296322800,24.51532275390625,0.5240519311547279,-0.28286738581508397,0.5911906268607825
1776444106321340000,24.54033984375,0.6898615020364522,-0.45589536364302036,0.5106747458504513
1776444106346357000,24.56535693359375,0.16376491331160067,-1.2324041986495256,-0.16557145127691328
1776444106371374800,24.590374755859376,0.6495172166883945,-0.3844358455957845,-0.19937121035233138
1776444106396392000,24.615391845703126,0.5874164420843124,-0.3709782154664397,-0.07806625936850906
1776444106421408800,24.64040869140625,0.3734422674924135,0.3534261556303128,0.7167287584349513
1776444106446427000,24.665427001953127,0.20017828895151615,0.5730760012384504,-0.2488783147126436
1776444106471444000,24.69044384765625,-0.26743746923208234,-0.05606533036474138,-0.2915527965739369
1776444106496460800,24.715460693359375,-0.03229834153652191,0.5022729378059506,0.5767927567392588
1776444106521479000,24.74047900390625,-0.5126520007401705,0.9356344711448996,0.791916978149116
1776444106546496000,24.76549609375,0.15609364803135395,0.21671671476569027,1.6640040560781955
1776444106571512800,24.790512939453127,-0.35785482226014137,0.278214335844852,0.7524351548492908
1776444106596531000,24.815531005859373,-0.8717886795043944,0.22941106890495866,-0.12798282131254674
1776444106621548000,24.840548095703124,-0.7732704376071691,0.32186643056664616,0.1671317593961954
1776444106646564900,24.86556494140625,-0.8698498203963041,0.11873325559860094,0.17284604538977144
1776444106671583000,24.8905830078125,-0.6124257956564426,-0.31885270876865834,0.3719043904006481
1776444106696600000,24.91560009765625,0.09915829336643218,0.33334486957751214,1.0176192921966314
1776444106721618000,24.940617919921873,-0.773483203575015,-0.3496645015418529,-1.4319792610108852
1776444106746635000,24.965635009765624,-0.38286826748549935,-0.3450949286039918,-0.25576982779204843
1776444106771652000,24.990652099609374,-0.31054712764024733,-0.41552101195026186,-0.07098667637109755
1776444106796670000,25.015669921875,-0.14802724595367908,0.1486852623378392,-0.14104747006893156
1776444106821687000,25.04068701171875,-0.04887245971858501,0.21979139123698696,0.10444997003376483
1776444106846703900,25.065703857421877,0.08920096297562122,-0.27394871428962797,0.4658323818981647
1776444106871722000,25.090721923828124,0.01657937887907028,-0.3360457990992814,0.5170119495153427
1776444106896738800,25.11573876953125,-0.12593933278620242,0.12130241196686402,0.5227496163845062
1776444106921756000,25.140755859375,-0.08777122243344783,0.16625037345178426,0.5169675258517265
1776444106946773800,25.165773681640626,-0.05707388635277748,-0.026278062900272195,0.43886955617070195
1776444106971791600,25.19079150390625,-0.07979249863922595,-0.7100281648177653,0.5819435636311769
1776444106996808200,25.21580810546875,-0.28989012405872344,0.2530674917644821,0.5723737712532282
1776444107021826600,25.24082666015625,0.14914017563164234,0.32577041573524473,0.6131202076613903
1776444107046843400,25.265843505859376,-0.08774316538274288,0.48753261092230676,-0.46760056061446664
1776444107071860200,25.290860107421874,0.09395020332932472,0.1481963189102709,0.13326163849830627
1776444107096878300,25.31587841796875,0.03217851454913616,0.19853790133334695,-0.5484259094327688
1776444107121895400,25.3408955078125,0.0912625716805458,0.6108295759735629,-0.562011951714754
1776444107146912300,25.365912353515625,0.013124562250077723,0.11441418682308867,-1.3435592192798853
1776444107171930400,25.390930419921876,0.2827548653513193,-0.11338031373070552,-0.8888859447777271
1776444107196947500,25.415947509765626,0.1373947927802801,-0.058783411950711156,-0.29589316386580466
1776444107221964300,25.44096435546875,0.059038756684958935,0.10283349301414564,-0.03677753277719021
1776444107246982400,25.465982421875,0.16954495801776648,-0.23230755753144622,0.3892278656452894
1776444107271999200,25.490999267578125,0.13518003934025763,-0.5830565663743764,0.7105477317124604
1776444107297016300,25.516016357421876,0.3542500757664442,-0.45982492164429273,0.9071651133120059
1776444107322034400,25.541034423828126,0.2341699904024601,-0.37215383511707184,0.9643453826487064
1776444107347051300,25.56605126953125,0.1636900945097208,-0.4571317735701799,0.3330734322249889
1776444107372068400,25.591068359375,0.24854163010418415,-0.953242462419346,0.02894260136783123
1776444107397086500,25.61608642578125,0.38527299053966996,-0.13743344429023563,0.4092693676769733
1776444107422103300,25.641103271484376,0.2815782227873802,-0.5463714611209929,-0.9511971472620964
1776444107447120400,25.666120361328126,0.26408815880417824,0.42383258442804217,-0.13306933079659938
1776444107472138500,25.691138427734376,0.14438479779809713,0.6900533713467418,0.11534604257941246
1776444107497155300,25.7161552734375,1.356601363943517,-1.167501956758648,-0.3644266018658876
1776444107522172400,25.74117236328125,1.5621747899368403,-0.5130263870105147,-0.5575871210098267
1776444107547190500,25.7661904296875,-0.1647661993086338,1.0709113949883728,-1.1636831291228533
1776444107572207400,25.791207275390626,-0.1371685828089714,1.103165458991751,-0.612915625
1776444107597224400,25.816224365234376,-0.3112400783404708,-0.671587740329653,-0.904887816029787
1776444107622242600,25.84124267578125,-0.3145470109313726,-0.7601607076000422,-1.2330045026302336
1776444107647259400,25.86625927734375,-0.347333135984838,0.06860007349550723,-1.1687129399836063
1776444107672276500,25.8912763671875,-0.29026626389473675,0.17835867133140562,-0.7582265977323055
1776444107697294600,25.916294677734374,0.31903964617550373,-0.18430698527656494,0.22980945710539816
1776444107722311400,25.9413115234375,0.46439153544008727,-0.4056286000218242,0.49849078891873355
1776444107747328500,25.96632861328125,0.940460941453278,0.5671523833431303,0.007113046875596046
1776444107772346600,25.9913466796875,0.32720717054009435,1.1242722521673887,0.4852531216830015
1776444107797363500,26.016363525390624,0.4001677773326635,-0.3797820649731904,-0.8260778986871242
1776444107822380300,26.04138037109375,1.1221487572073936,0.7061853717844933,-0.007443886265158653
1776444107847398400,26.0663984375,1.0725599659129976,0.9361534535177052,0.45233284885585306
1776444107872415200,26.091415283203126,0.40292262899875636,0.5737414794098585,0.778088067021966
1776444107897432300,26.116432373046877,0.2218970765456557,-0.4252673664715141,-0.17021511236429213
1776444107922450400,26.141450439453124,0.38657998148500916,-0.40563963287249205,-0.1948071173071861
1776444107947467300,26.16646728515625,0.49860857007950543,-0.08445205141548066,0.19193126960992812
1776444107972484000,26.191484130859376,-0.041920156362652776,0.005584595199301838,-0.20464812784194944
1776444107997502200,26.216502197265626,-0.20671324367821214,-0.6825025175757706,-0.9815174667239188
1776444108022519000,26.24151904296875,0.21031565208435057,-0.5614589940071105,-0.19883155051767826
1776444108047536000,26.2665361328125,0.27503420797139405,0.4148704756196588,0.5884422780007124
1776444108072554000,26.291553955078125,0.5724605727538467,-0.21623145199939608,0.6736088708937168
1776444108097571000,26.316571044921876,0.597097439751774,-0.570902529656887,0.37724399786293505
1776444108122588200,26.341588134765626,0.6152310623355209,-0.0616835721053183,0.6701093383401632
1776444108147606000,26.36660595703125,0.7885412181057035,-0.389198274224624,1.4633300925642252
1776444108172623000,26.391623046875,0.9185622672475874,-0.6198994925379753,1.473651580092311
1776444108197640200,26.41664013671875,0.5182930753670633,-0.5553624672302976,-0.21297405763864516
1776444108222658000,26.441657958984376,0.5603402191102504,-0.9531812337514013,-0.40216158149838444
1776444108247675100,26.466675048828126,0.8613900350868702,-1.2647545626342296,0.2166109528362751
1776444108272692200,26.491692138671876,0.3024633360363543,-0.3074064184617251,-0.3367038976818323
1776444108297710000,26.5167099609375,0.3388094916589558,-0.5419257337585092,-1.2072405312985182
1776444108322727200,26.54172705078125,0.4701730414509773,-0.4706206390880048,-0.7887211047172545
1776444108347744300,26.566744140625,0.4076180933386087,-0.30979506716392935,-0.33980829343795776
1776444108372761300,26.59176123046875,0.1859429889805615,-0.2870100385777652,-0.7593418654978275
1776444108397779200,26.616779296875,-0.056039282608032225,-0.5598460058525204,-0.8868354419887066
1776444108422796300,26.64179638671875,-0.19151552841588854,-0.30274869231637563,-0.41074586997032164
1776444108447813400,26.6668134765625,-0.24724340698719025,-0.4716285009562969,0.05964461362361908
1776444108472831200,26.691831298828124,-0.16952347683832047,-0.4902631318647414,-0.026934184154868125
1776444108497848300,26.716848388671874,-0.6250764567844569,-0.2726999928701669,-0.5403080694288015
1776444108522865200,26.741865234375,-0.8473287765085696,-0.883045840447396,-0.5391968933165073
1776444108547883300,26.76688330078125,-0.9015680239573121,-0.6933655646346509,-0.03906301336586475
1776444108572900000,26.791900146484377,-0.975782137942314,-0.3341828547716141,0.27092589586973187
1776444108597917200,26.816917236328123,-1.1484265232801436,-0.9961534564502537,-0.022644962528347967
1776444108622935000,26.84193505859375,-1.1829166757725178,-0.6763256555717438,-0.06035246963202953
1776444108647952100,26.8669521484375,-1.0422637579791247,0.2404342749616131,0.4293780897259712
1776444108672969200,26.89196923828125,-0.9718868840694427,-0.12503957093488424,0.384648136639595
1776444108697987000,26.916987060546877,-0.5255879085503519,-0.5714710502598435,0.38366847795248027
1776444108723004200,26.942004150390623,-0.03485854741334915,-0.2943008531730622,0.4691308389216661
1776444108748021200,26.967021240234374,0.5906225446492434,0.36815395182594657,0.17864567157924174
1776444108773039000,26.9920390625,0.2213366661839187,0.768773272318393,-0.12277063962221145
1776444108798056200,27.01705615234375,-0.6266770238488912,-0.39353590157013385,-1.2031687518149614
1776444108823073000,27.042072998046876,-0.661845294798538,-1.217048808607459,-0.707394820639491
1776444108848091100,27.067091064453123,-0.7335948453009128,-1.0081822593528778,-0.8953168546080589
1776444108873108200,27.092108154296874,-1.1447522186815737,-0.391428444429487,-1.748092790606618
1776444108898125000,27.117125,-0.8898071512758732,0.04326353379562497,-1.2177782919257878
1776444108923143200,27.14214306640625,-0.5946212588965892,-0.03554835630841553,-0.6368114643722772
1776444108948160300,27.16716015625,0.09587218436785042,0.10340104550272226,-0.33394670792818065
1776444108973176800,27.1921767578125,0.17871997892446814,0.9104459616135805,-0.37687458002865315
1776444108998194000,27.21719384765625,0.5055582430869341,0.010328428725525736,0.22092881603538989
1776444109023212000,27.2422119140625,0.7456367268808186,0.04324395231232047,0.3385737832069397
1776444109048228900,27.267228759765626,0.3984609734147787,0.37833098938204346,0.7083090128749608
1776444109073246000,27.292245849609376,0.26936931407749654,-0.8313073237732053,0.8087772197961807
1776444109098264000,27.31726416015625,-0.27232509514316916,-0.21199235312491654,-0.07589549120068549
1776444109123281000,27.342281005859373,-0.4585426632814109,-0.1291067107759416,0.1349596745878458
1776444109148298000,27.367298095703124,-0.13816416971758008,0.6054708619520068,0.09532909046709537
1776444109173316000,27.392316162109374,-0.09179565564393996,-0.04547624140903354,-0.2433060675382614
1776444109198333000,27.4173330078125,-0.19709259789586067,0.2789149949274957,0.13010054411888122
1776444109223349800,27.442349853515626,-0.4460685277640819,0.42378056197986,-0.09445055406689644
1776444109248368000,27.4673681640625,-0.8847269254021346,-0.13413316063582897,-0.3165302937030792
1776444109273384700,27.492384765625,-0.41371641021370886,0.07055062304139137,-0.5982675064444541
1776444109298401800,27.51740185546875,0.16167407851219176,0.07789455606341361,-1.785793867969513
1776444109323420000,27.542419921875,0.06702230278477073,0.006296177534759044,-1.8780653244316576
1776444109348436700,27.567436767578126,-0.4773782966546714,-0.2181117127880454,-0.22450316739082335
1776444109373453800,27.592453857421877,0.44837753535881636,0.7794144933201372,0.05745265653729439
1776444109398471000,27.617470947265623,1.1637580940552055,0.017148995460569857,0.20761165382266045
1776444109423488800,27.64248876953125,0.6237070681273937,-0.32228301201090215,1.0768243453592061
1776444109448505900,27.667505859375,0.48539457598030566,-0.5419646044641733,1.5314473509788513
1776444109473523000,27.69252294921875,0.740639649245888,-0.8032191472776233,1.3793535862386226
1776444109498540800,27.717540771484376,-0.3889537248790264,0.02304667519703507,0.8762392291724681
1776444109523558000,27.742557861328127,-0.5130943376801907,-0.21294614671841264,0.44514732126593587
1776444109548575000,27.767574951171873,0.4354050949305296,-0.2317829491354525,0.017217092260718346
1776444109573592800,27.7925927734375,-0.1805073737978935,-0.15611849021166563,-0.16820494158565996
1776444109598610000,27.81760986328125,0.1796850976295769,-0.1306309977337718,0.18348492830395696
1776444109623627000,27.842626953125,0.4874824881702661,0.08921864476278424,0.33023967010378835
1776444109648644000,27.86764404296875,-0.07456731133684516,0.10967281924858689,0.318147665771842
1776444109673662000,27.892661865234373,-0.40883024560734627,0.03307853212878108,0.8357698561400174
1776444109698679000,27.917678955078124,0.2612674022950232,0.5773769863680005,1.2733803521603344
1776444109723695900,27.94269580078125,0.4216840280920267,0.7876948304094373,1.368095694643259
1776444109748714000,27.9677138671875,-0.15201996885165572,0.5087301511213184,1.0432400556653738
1776444109773731000,27.99273095703125,0.03552037232294678,0.2842252301648259,0.6687105774581432
1776444109798748000,28.017747802734377,-0.16818967095129192,-0.12968509518578647,-0.1811784049272537
1776444109823766000,28.04276611328125,0.20688699280992148,0.21159875069744885,-0.5087655146956443
1776444109848783000,28.067783203125,-0.5328039774090051,0.29876966915018854,-0.28037819934785363
1776444109873799700,28.092799560546876,-0.3993955508511513,-0.056535980083793395,-0.3848579799979925
1776444109898816800,28.117816650390626,0.001771101325750351,0.05007167944051325,-0.525079520636797
1776444109923835000,28.1428349609375,0.038564343128725885,0.26906265928111966,-0.2117570830643177
1776444109948851700,28.167851806640623,-0.16330891317240892,0.07038498415090143,0.1550502764582634
1776444109973868800,28.192868896484374,-0.3373432915639132,0.1825615298487246,0.3124257809937
1776444109998887000,28.217886962890624,-0.18606559244692325,-0.47293194823767987,-1.330221014279127
1776444110023903700,28.24290380859375,0.2926029632139951,-1.1753726170685141,-2.265446685427427
1776444110048920800,28.2679208984375,0.35004729031436144,-0.8718367564298212,-1.6558236722320316
1776444110073939000,28.29293896484375,0.25023382097482677,-0.2810096291191876,-0.40613633034825325
1776444110098955800,28.317955810546874,0.5205405620329082,0.36242804845981297,0.3108879039019346
1776444110123972900,28.342972900390624,0.7983207077115774,0.3114146311897784,0.18156360485255718
1776444110148991000,28.367990966796874,0.6939243675611912,0.2534433941384777,-0.5020797533214092
1776444110174007800,28.3930078125,0.6439128938753157,0.13545242654085157,-0.46249359286427494
1776444110199025000,28.41802490234375,0.028274492847919462,0.5229473309136927,1.0045359387397765
1776444110224042000,28.4430419921875,0.2797100908279419,0.5696330942429602,1.4933020369797945
1776444110249059800,28.468059814453124,0.5848597433388233,0.24474643907230345,0.412537429562211
1776444110274077000,28.493076904296874,0.07122691486775874,-0.3857815611163154,-0.2853957352489233
1776444110299094000,28.518093994140624,0.130551356626302,-0.3524219835564494,0.31888124074339863
1776444110324112000,28.54311181640625,0.3104202863901853,-0.025522253264021126,0.4498270035147667
1776444110349129000,28.56812890625,-0.23195757504999637,0.038970878103002905,-0.6092401513576507
1776444110374146000,28.59314599609375,-0.4022606579586863,0.003059424103237688,-0.4545370809018612
1776444110399163000,28.618162841796874,-0.14678338337242602,-0.42320816891938445,0.2941232315838337
1776444110424181000,28.643180908203124,-0.5858166056722403,0.4955374190058559,1.0480372268140314
1776444110449197800,28.66819775390625,-0.7765262245327234,0.9721082717351615,0.5324859975010157
1776444110474215000,28.69321484375,-1.2166475343301892,0.43627866289466616,-0.5340694673001766
1776444110499232800,28.718232666015624,-0.5310542111322284,0.1520807591281831,0.8192875078946351
1776444110524249900,28.743249755859374,-1.6201041240751743,0.06264949452802539,1.8941770857989786
1776444110549266700,28.7682666015625,-1.068271621069312,0.18274945363625883,1.7854086680442094
1776444110574283800,28.79328369140625,0.7447925311416387,0.45743718625754115,0.2997784808665514
1776444110599302000,28.818302001953125,1.0254210519887506,0.8816711180280894,-0.3953413800895214
1776444110624318700,28.843318603515623,1.2425275332570076,0.7539690864183008,0.28819734866619107
1776444110649335800,28.868335693359374,0.4516694165110588,-0.40770299514308567,-0.48233518840968603
1776444110674354000,28.89335400390625,-0.35984687286019323,0.5940683742541819,-0.5536807612210511
1776444110699370800,28.918370849609374,0.05244096585512161,1.4823109796270728,-0.9556137946605682
1776444110724387800,28.943387939453125,0.6414040528595447,0.5470619276031852,-1.2691969289958476
1776444110749406000,28.968406005859375,-0.963355787089467,-0.46249067025482654,-1.1846166115581989
1776444110774422800,28.9934228515625,-1.310373573514819,0.268702666862309,-0.6428162577450275
1776444110799440000,29.01843994140625,0.14720022054500878,0.44149544769488275,-0.7888263186573982
1776444110824458000,29.0434580078125,0.38443770875930783,0.009932999667152762,-0.47526773424148555
1776444110849474800,29.068474853515625,-0.15904299935624003,-0.4343631846621632,0.003977671459317207
1776444110874492000,29.093491943359375,-0.6294634396970271,-0.8538006028711795,0.5986673194169998
1776444110899509000,29.118509033203125,0.49856575385108587,0.21488233894538133,0.20470891811847686
1776444110924526800,29.14352685546875,0.8260330366320907,0.5704067089639604,-0.30509821458458897
1776444110949544000,29.1685439453125,0.16528788509517908,0.009108202748186885,-0.07905366297066212
1776444110974565000,29.193565185546873,0.04558218600153923,-0.023077800987660883,0.5532330174535512
1776444110999583000,29.2185830078125,0.3213742266029119,-0.43805246763415634,0.1939747581362724
1776444111024600000,29.24360009765625,0.057024932644516226,-0.35337767684608695,-0.07953413996398448
1776444111049617200,29.2686171875,0.24967333754785356,-0.007689463090640492,-0.30556174044311046
1776444111074634000,29.293634033203126,0.3314263226050883,0.1927946815062314,-0.6581652180463076
1776444111099652000,29.318652099609373,0.4468810131907463,-0.24460595288937909,-1.1391980916857718
1776444111124669200,29.343669189453124,0.26134273255355656,-0.2047875363126397,-0.987841409048438
1776444111149686000,29.36868603515625,0.3219167359817773,-0.09962181922495364,-0.48683542243838307
1776444111174702800,29.393702880859376,0.5519220079202205,0.11330755902174859,-0.5100327581524848
1776444111199721200,29.41872119140625,0.6428321129012853,-0.009460413719341159,-0.09179682468771934
1776444111224737800,29.44373779296875,0.40705169162750243,-0.03474573468863964,0.16666414188444614
1776444111249755000,29.4687548828125,0.06173296420499682,-0.03166446407977491,0.14054302767813204
1776444111274773000,29.49377294921875,0.3513444174528122,0.22335266391513867,0.25048574990928174
1776444111299789800,29.518789794921876,0.6002233897525817,0.26307821457665415,0.3563344808250665
1776444111324807000,29.543806884765626,0.22884514211788773,0.24311235333075745,0.3119716074854135
1776444111349824000,29.568823974609376,0.6674122082106768,0.24937490259055048,0.47458442815244195
1776444111374841900,29.593841796875,0.18463468286097048,-0.03471614326797426,0.33729426479041574
1776444111399859000,29.61885888671875,0.03069675155878067,-0.23539414363624528,0.5492898327857255
1776444111424876000,29.6438759765625,0.16089315726757047,-0.052777084208000445,0.6587304507136345
1776444111449893000,29.66889306640625,0.49846506995558737,0.2353858689982444,0.5036182149350643
1776444111474911000,29.693910888671876,0.24227628609910606,0.1158928080082871,0.3259808436155319
1776444111499928000,29.718927978515627,0.46231019912138577,0.3060953723957762,0.16815291913747787
1776444111524945000,29.74394482421875,0.5689432122826575,0.4927749685551971,0.6532786150485277
1776444111549963000,29.768962890625,-0.2536586808569729,0.3784042007487267,-0.03493570430278778
1776444111574980000,29.79397998046875,-0.11509871675483882,0.3726868460152298,-0.011843582528829574
1776444111599997000,29.818996826171876,0.6113040981501341,0.4846300944138318,0.3437666756749153
1776444111625014000,29.844013916015626,0.5211893813304603,0.04121401738729328,0.2167237655609846
1776444111650032000,29.8690322265625,0.1690531559128314,0.021959793275780976,-0.4500158040851354
1776444111675049000,29.894049072265624,0.17546404586844144,-0.5705609862102196,-0.591387683802843
1776444111700066000,29.919066162109374,-0.7378290488045662,-1.005139165329933,-0.31005671377480026
1776444111725083000,29.944082763671876,-0.3602754004705697,-0.867074072072655,-0.31519816831648345
1776444111750101000,29.96910107421875,-0.21080307027511297,-0.5515626365559175,-0.5718021088451146
1776444111775117800,29.994117919921877,0.15258651669323445,-0.48713820477724074,-0.5851262853205204
1776444111800135000,30.019135009765623,0.8227993154078721,-0.6222448866203427,-0.7425935597926377
1776444111825152800,30.04415283203125,0.9546212034266441,-0.43735849402062593,-0.7692945197135209
1776444111850169900,30.069169921875,0.32274902208745476,0.36055107560679317,-0.8200999933212995
1776444111875187000,30.09418701171875,-0.11771218718886375,0.6444447357296943,-0.14463468090593815
1776444111900204000,30.1192041015625,-0.06241751240305602,-0.2367272371372208,0.2866512882679701
1776444111925222000,30.144221923828123,1.4696017201796172,-0.48416751840338107,0.8221902435988188
1776444111950239000,30.169239013671874,-0.2640940040230751,-0.9964446214165538,0.4540747240871191
1776444111975254300,30.194254150390623,0.2827729855298996,0.5818557757498696,0.4053139080494642
1776444112000271400,30.219271240234374,0.15865385390818118,0.5514562170393764,-0.585216301691532
1776444112025289200,30.244289306640624,-0.1454470932673663,0.11999686405993998,-0.6139163264751434
1776444112050306300,30.269306396484374,-0.05237491488158703,-0.2350590481966734,-0.1874842270731926
1776444112075323400,30.294323486328125,-0.20659517025649546,-0.2572910460099578,-0.7459604058772326
1776444112100341200,30.31934130859375,0.045950507857277986,0.38270211713835595,-1.7547405580580233
1776444112125358300,30.3443583984375,-0.31332886731326576,0.0697751086242497,-1.750666440486908
1776444112150375400,30.36937548828125,-0.16222528265416622,-1.148211053898558,-1.3571768257439136
1776444112175392500,30.394392578125,0.7688957296542823,-0.2788376188423484,-1.1399129619568587
1776444112200410400,30.419410400390625,0.5493593908905983,0.3555566283203661,-0.5242085830211639
1776444112225427500,30.444427490234375,0.9963801048129797,0.81778645568192,0.6564262654244899
1776444112250444300,30.4694443359375,0.3350236895099282,0.6017157472021878,0.6412158368110656
1776444112275461400,30.49446142578125,0.23348332331255076,0.4655688355911523,0.1878279259443283
1776444112300479500,30.5194794921875,1.045945807492733,0.9322175753735006,0.6804267342150211
1776444112325496300,30.544496337890624,0.7135282088279724,0.8864479039758443,0.896797448554635
1776444112350513400,30.569513427734375,0.8051438317298889,1.0355104112613946,0.6074468382000923
1776444112375530500,30.594530517578125,0.6447206300616264,0.9479751895409076,0.9147007695138454
1776444112400548400,30.61954833984375,-0.35987887543365354,0.09728110131770372,0.6597282295793294
1776444112425565400,30.6445654296875,-0.46848304253742096,0.10254479399956762,1.1814239529967308
1776444112450582500,30.66958251953125,-0.23197438005432486,0.6258095202993601,1.436075005891919
1776444112475600400,30.694600341796875,0.4223787323579192,0.5548572576545179,0.535676317974925
1776444112500617500,30.719617431640625,-0.27557021454423664,-0.1703694992084056,-0.3905342720687389
1776444112525634300,30.74463427734375,-0.14043006882295012,-0.1279920275323093,-0.3720125269502401
1776444112550651400,30.7696513671875,0.2981833206295967,0.2366483266821131,0.6314046368926763
1776444112575669500,30.79466943359375,-0.39989246752262114,-0.27730514857806265,0.28509704456329343
1776444112600686300,30.819686279296874,0.6504746635437011,0.38624811918213964,-0.12835574627816676
1776444112625703400,30.844703369140625,0.5458569357275963,0.02985215396080166,0.14491817402243615
1776444112650720300,30.86972021484375,-0.3712900578945875,-0.6845046511784195,-0.7582166608601808
1776444112675738400,30.89473828125,0.2917040416128933,-0.017219049039075614,-0.3938379897892475
1776444112700755500,30.91975537109375,0.6691817021012306,-0.6226822551243006,-0.17093875046372412
1776444112725772300,30.944772216796874,-0.4284862554527819,-1.5626530749730765,-0.7468015328764915
