time,seconds_elapsed,z,y,x
1776444081854178000,0.073177978515625,0.02449474111199379,-0.07697033882141113,0.027515430003404617
1776444081879195000,0.09819482421875,0.027799224480986595,-0.0768914595246315,0.03506558761000633
1776444081904213000,0.123212890625,0.1296650916337967,-0.04450350999832153,0.02603493072092533
1776444081929230800,0.14823095703125,0.19653207063674927,-0.014157737605273724,0.0425250269472599
1776444081954249200,0.173249267578125,0.18613947927951813,-0.0770898088812828,0.08252260833978653
1776444081979266000,0.19826611328125,0.19418244063854218,-0.06868177652359009,0.11963306367397308
1776444082004284200,0.2232841796875,0.2851560115814209,-0.062259845435619354,0.12427183985710144
1776444082029302000,0.248302001953125,0.3838353157043457,-0.04636296257376671,0.08026362210512161
1776444082054320000,0.273320068359375,0.4375837445259094,-0.0006330041214823723,0.017093876376748085
1776444082079337200,0.298337158203125,0.5246676206588745,0.015589801594614983,-0.011049467138946056
1776444082104355000,0.32335498046875,0.6299907565116882,-0.16029268503189087,-0.019720960408449173
1776444082129373200,0.348373291015625,0.6858767867088318,-0.3832078278064728,0.048733606934547424
1776444082154391000,0.37339111328125,0.7552226185798645,-0.5183689594268799,0.11192373931407928
1776444082179408100,0.398408203125,0.7588137984275818,-0.5040459036827087,0.14592210948467255
1776444082204426000,0.423426025390625,0.5492592453956604,-0.36316144466400146,0.1964016556739807
1776444082229444400,0.4484443359375,0.26391130685806274,-0.13717007637023926,0.237405464053154
1776444082254462200,0.473462158203125,-0.03623226657509804,0.094681017100811,0.26759496331214905
1776444082279479300,0.498479248046875,-0.18110734224319458,0.3209947347640991,0.34195563197135925
1776444082304497200,0.5234970703125,-0.3025669455528259,0.3661808669567108,0.5278027057647705
1776444082329515300,0.548515380859375,-0.48059412837028503,0.30888381600379944,0.5963211059570312
1776444082354532400,0.573532470703125,-0.6628122329711914,0.2573692500591278,0.43885859847068787
1776444082379550200,0.59855029296875,-0.6835412979125977,0.4396415054798126,0.18660207092761993
1776444082404568300,0.623568359375,-0.6164005994796753,0.6364425420761108,-0.009834145195782185
1776444082429586200,0.648586181640625,-0.47273388504981995,0.4625590741634369,-0.13755957782268524
1776444082454603300,0.673603271484375,-0.022916605696082115,0.09002391248941422,-0.252706915140152
1776444082479621000,0.69862109375,0.16350828111171722,-0.06567243486642838,-0.20892682671546936
1776444082504639200,0.72363916015625,0.12335244566202164,0.037324510514736176,-0.10473836958408356
1776444082529657000,0.748656982421875,0.06265662610530853,-0.024288255721330643,-0.041284263134002686
1776444082554674200,0.773674072265625,0.04363851249217987,-0.03557436913251877,0.0032032146118581295
1776444082579692000,0.798692138671875,0.042643170803785324,-0.08642259985208511,0.040374673902988434
1776444082604710100,0.823710205078125,0.03740881755948067,-0.11837340891361237,0.03269832581281662
1776444082629728000,0.84872802734375,0.032541465014219284,-0.12650996446609497,-0.002636153483763337
1776444082654745000,0.8737451171875,0.02556046098470688,-0.10346495360136032,-0.0472194068133831
1776444082679763200,0.89876318359375,0.03374263644218445,-0.060660470277071,-0.08804500848054886
1776444082704781000,0.923781005859375,0.12207169830799103,-0.09185460954904556,-0.1259540468454361
1776444082729798100,0.948798095703125,0.2802903652191162,-0.13681857287883759,-0.16618715226650238
1776444082754816000,0.97381591796875,0.44398242235183716,-0.2577555179595947,-0.21756264567375183
1776444082779834400,0.99883447265625,0.6228014826774597,-0.34143492579460144,-0.2662036120891571
1776444082804852200,1.023852294921875,0.872650682926178,-0.4183710813522339,-0.28258058428764343
1776444082829869300,1.048869384765625,1.050081729888916,-0.472344309091568,-0.22068952023983002
1776444082854887200,1.07388720703125,1.1956125497817993,-0.43046921491622925,-0.11884159594774246
1776444082879905300,1.0989052734375,1.3159749507904053,-0.39383217692375183,-0.07957776635885239
1776444082904922400,1.12392236328125,1.4566978216171265,-0.34540799260139465,-0.05622922256588936
1776444082929940200,1.148940185546875,1.5778627395629883,-0.3240083158016205,-0.05140403285622597
1776444082954957800,1.173957763671875,1.6223748922348022,-0.29847103357315063,-0.02319861575961113
1776444082979975700,1.1989755859375,1.7047499418258667,-0.18323776125907898,-0.020595762878656387
1776444083004992800,1.22399267578125,1.7716957330703735,-0.0447901152074337,0.0014907987788319588
1776444083030010600,1.2490107421875,1.7725306749343872,-0.01958327181637287,0.05867009982466698
1776444083055028700,1.27402880859375,1.7354612350463867,-0.012272210791707039,0.12702247500419617
1776444083080046600,1.299046630859375,1.7588425874710083,-0.006031580734997988,0.16159330308437347
1776444083105063700,1.324063720703125,1.7261987924575806,-0.062441058456897736,0.18926195800304413
1776444083130081500,1.34908154296875,1.6019798517227173,-0.06270567327737808,0.22210338711738586
1776444083155099600,1.374099609375,1.4575942754745483,-0.03695451468229294,0.2338804304599762
1776444083180116700,1.39911669921875,1.280598521232605,0.05643542483448982,0.19729872047901154
1776444083205134600,1.424134521484375,0.9564884901046753,0.2703399658203125,0.2901480197906494
1776444083230153000,1.449153076171875,0.8681060671806335,0.43915870785713196,0.3208519518375397
1776444083255170800,1.4741708984375,0.894502580165863,0.2482762634754181,0.28151997923851013
1776444083280188000,1.49918798828125,1.0526049137115479,0.07764623314142227,0.13862505555152893
1776444083305205800,1.524205810546875,1.1869326829910278,-0.1599971503019333,-0.01095512043684721
1776444083330223900,1.549223876953125,1.0822064876556396,-0.01522011123597622,-0.05768141895532608
1776444083355240700,1.57424072265625,0.9965955018997192,0.10602529346942902,0.000940058846026659
1776444083380258800,1.5992587890625,1.090248703956604,0.0893053412437439,0.0006765020079910755
1776444083405276700,1.624276611328125,1.3237392902374268,0.08115042746067047,0.02125229686498642
1776444083430294800,1.649294677734375,1.469546914100647,0.018687745556235313,0.07220030575990677
1776444083455312000,1.674311767578125,1.510079264640808,-0.05973118916153908,0.09750579297542572
1776444083480329700,1.699329833984375,1.486047625541687,-0.034909289330244064,0.036524027585983276
1776444083505347800,1.724347900390625,1.393190622329712,0.09073136746883392,-0.05900053307414055
1776444083530364700,1.74936474609375,1.3513790369033813,0.007070882245898247,-0.026909656822681427
1776444083555382800,1.7743828125,1.3104214668273926,0.08653971552848816,-0.048041749745607376
1776444083580400600,1.799400634765625,1.2231842279434204,0.005829548463225365,-0.09138919413089752
1776444083605418800,1.824418701171875,1.1562472581863403,-0.06426814198493958,-0.06734631955623627
1776444083630435600,1.849435546875,1.21480131149292,-0.1161419078707695,-0.003775942139327526
1776444083655453700,1.87445361328125,1.2302167415618896,-0.02380910888314247,0.012286892160773277
1776444083680471600,1.899471435546875,1.1135613918304443,-0.0014871740713715553,-0.011916907504200935
1776444083705488600,1.924488525390625,1.00661039352417,0.04942842572927475,-0.011346559040248394
1776444083730506800,1.9495068359375,1.064233660697937,-0.003045261837542057,0.01610543020069599
1776444083755524600,1.974524658203125,1.1151947975158691,-0.020808923989534378,0.04521261155605316
1776444083780543000,1.99954296875,1.134948492050171,0.05054658278822899,-0.0006226655095815659
1776444083805559600,2.0245595703125,1.2716903686523438,0.27566879987716675,0.07622279971837997
1776444083830578000,2.049577880859375,1.4618967771530151,0.5261061191558838,0.11165565252304077
1776444083855595800,2.074595703125,1.7064536809921265,0.6527076363563538,0.13092665374279022
1776444083880612900,2.09961279296875,1.7205479145050049,0.7448399662971497,0.10120884329080582
1776444083905630700,2.124630615234375,1.5640901327133179,0.7374134659767151,0.02282179705798626
1776444083930648800,2.14964892578125,1.35795259475708,0.5679839849472046,-0.08295751363039017
1776444083955666000,2.174666015625,1.3170524835586548,0.22932273149490356,-0.10381409525871277
1776444083980683800,2.199683837890625,1.2652615308761597,-0.03387359902262688,-0.18510764837265015
1776444084005702000,2.224701904296875,1.070164680480957,-0.14753517508506775,-0.29682090878486633
1776444084030719700,2.2497197265625,1.0320229530334473,-0.05762512609362602,-0.15028181672096252
1776444084055736800,2.27473681640625,1.0526423454284668,-0.01318387035280466,-0.03415687009692192
1776444084080754700,2.299754638671875,0.8939369916915894,0.06543967872858047,-0.07497745007276535
1776444084105772800,2.324772705078125,0.7775714993476868,0.11477555334568024,-0.30803340673446655
1776444084130789600,2.34978955078125,0.7726701498031616,-0.08346927911043167,-0.3040653467178345
1776444084155807700,2.374807861328125,0.7575559020042419,-0.08974742889404297,-0.3595559597015381
1776444084180825600,2.39982568359375,0.9581161737442017,0.03484722226858139,-0.38839584589004517
1776444084205843700,2.42484375,1.1138269901275635,0.23061077296733856,-0.40601199865341187
1776444084230860800,2.44986083984375,1.2121511697769165,0.44275131821632385,-0.47570499777793884
1776444084255878700,2.474878662109375,1.330271601676941,0.4536047875881195,-0.5403360724449158
1776444084280897000,2.49989697265625,1.2419928312301636,0.3870985805988312,-0.4656480848789215
1776444084305913600,2.52491357421875,1.0007896423339844,0.3881548047065735,-0.336907297372818
1776444084330932000,2.549931884765625,0.8921055793762207,0.4025076627731323,-0.21540693938732147
1776444084355949800,2.57494970703125,0.8349875807762146,0.36181968450546265,-0.17341534793376923
1776444084380967000,2.599966796875,0.7283717393875122,0.28435084223747253,-0.15865948796272278
1776444084405984800,2.62498486328125,0.6299936771392822,0.19752438366413116,-0.09901877492666245
1776444084431003000,2.6500029296875,0.566294252872467,0.08695350587368011,-0.0299527645111084
1776444084456020700,2.675020751953125,0.6308904886245728,-0.02130904793739319,0.014694849960505962
1776444084481037800,2.700037841796875,0.6465443968772888,-0.15809206664562225,0.0513836145401001
1776444084506056000,2.725055908203125,0.6147254109382629,-0.2856560945510864,0.11773056536912918
1776444084531073800,2.75007373046875,0.6245606541633606,-0.38770154118537903,0.17296378314495087
1776444084556091000,2.7750908203125,0.6583651900291443,-0.4707450270652771,0.2295311838388443
1776444084581108700,2.800108642578125,0.702829897403717,-0.5650985836982727,0.2770178020000458
1776444084606126800,2.825126953125,0.6687175631523132,-0.6790993809700012,0.28308698534965515
1776444084631144700,2.850144775390625,0.5152672529220581,-0.7821105718612671,0.26654237508773804
1776444084656161800,2.875161865234375,0.446737676858902,-0.7657493352890015,0.23293352127075195
1776444084681179600,2.9001796875,0.53580242395401,-0.6815860271453857,0.15104542672634125
1776444084706197800,2.92519775390625,0.686930775642395,-0.34898170828819275,0.10584177076816559
1776444084731214800,2.95021484375,0.5676574110984802,-0.14182798564434052,0.08910833299160004
1776444084756232700,2.975232666015625,0.7170543670654297,-0.027363477274775505,0.010063345544040203
1776444084781250800,3.000250732421875,1.1585990190505981,0.033293481916189194,-0.13235054910182953
1776444084806268700,3.0252685546875,1.3147172927856445,0.1207546517252922,-0.2540992200374603
1776444084831285800,3.05028564453125,1.157280445098877,0.30374017357826233,-0.2129586786031723
1776444084856303600,3.0753037109375,1.1608229875564575,0.35037025809288025,-0.07184656709432602
1776444084881321700,3.10032177734375,1.2238178253173828,0.039694227278232574,-0.05882907658815384
1776444084906338800,3.1253388671875,1.204593300819397,-0.02658005803823471,0.009361131116747856
1776444084931356700,3.150356689453125,1.0883618593215942,-0.12717846035957336,0.030602309852838516
1776444084956375000,3.175375,1.008327841758728,-0.3094765543937683,0.1401071846485138
1776444084981392100,3.20039208984375,1.0633835792541504,-0.524402916431427,0.18006518483161926
1776444085006410200,3.22541015625,1.3259637355804443,-0.5314857959747314,0.20312634110450745
1776444085031428400,3.250428466796875,1.6645408868789673,-0.47022107243537903,0.14745259284973145
1776444085056445400,3.275445556640625,1.9523866176605225,-0.22921772301197052,0.057863909751176834
1776444085081463300,3.30046337890625,2.179784059524536,0.037392087280750275,-0.01052398793399334
1776444085106481400,3.3254814453125,2.276095151901245,0.2141813039779663,-0.03872226923704147
1776444085131499300,3.350499267578125,2.2822763919830322,0.27301010489463806,-0.11062601208686829
1776444085156516400,3.375516357421875,2.2127530574798584,0.41996341943740845,-0.14417621493339539
1776444085181534200,3.4005341796875,2.2105789184570312,0.4839950203895569,-0.14681456983089447
1776444085206552300,3.42555224609375,2.1884748935699463,0.5403182506561279,-0.15054811537265778
1776444085231569400,3.4505693359375,2.2141659259796143,0.5069524645805359,-0.038891538977622986
1776444085256587300,3.475587158203125,2.3233001232147217,0.4181162416934967,0.017414001747965813
1776444085281605000,3.500605224609375,2.369386911392212,0.38708940148353577,0.12489151954650879
1776444085306623200,3.525623291015625,2.207104206085205,0.2707335948944092,0.17993924021720886
1776444085331640300,3.550640380859375,2.018385887145996,0.1634201854467392,0.23046094179153442
1776444085356658200,3.575658203125,1.7755597829818726,0.07153106480836868,0.27267879247665405
1776444085381676300,3.60067626953125,1.4163941144943237,-0.04587818682193756,0.3256559371948242
1776444085406693000,3.625693115234375,1.1794753074645996,-0.29064100980758667,0.17698036134243011
1776444085431711200,3.650711181640625,1.068286657333374,-0.49722644686698914,0.0773683413863182
1776444085456729000,3.67572900390625,0.7626040577888489,-0.6048048734664917,-0.1283041387796402
1776444085481746200,3.70074609375,0.8167299628257751,-0.6850907802581787,-0.3264548182487488
1776444085506764300,3.725764404296875,0.8879526257514954,-0.6970939040184021,-0.38618460297584534
1776444085531782100,3.7507822265625,0.5029705762863159,-0.6335535049438477,-0.44800564646720886
1776444085556800000,3.775800048828125,0.6461099982261658,-0.5497801303863525,-0.4750113785266876
1776444085581817000,3.800817138671875,0.633436381816864,-0.37563735246658325,-0.3464905917644501
1776444085606835200,3.825835205078125,0.42979174852371216,0.016311105340719223,-0.2091824859380722
1776444085631853300,3.850853271484375,0.5149883031845093,0.22495821118354797,-0.13926419615745544
1776444085656870100,3.8758701171875,0.6510050892829895,0.3712284564971924,-0.06476058810949326
1776444085681888300,3.90088818359375,0.8144143223762512,0.4120602309703827,-0.06401868909597397
1776444085706906400,3.92590625,0.8612374067306519,0.43506738543510437,-0.027300167828798294
1776444085731923500,3.95092333984375,0.706748902797699,0.45694607496261597,0.11586885899305344
1776444085756941300,3.97594140625,0.6240725517272949,0.4720371961593628,0.1515609323978424
1776444085781959200,4.000959228515625,0.8710698485374451,0.3606840968132019,0.10882242769002914
1776444085806976300,4.025976318359375,1.0360640287399292,0.2998892366886139,0.2909359931945801
1776444085831994400,4.050994384765625,1.1435819864273071,0.05565551668405533,0.39042049646377563
1776444085857012200,4.07601220703125,1.2241485118865967,-0.2230733335018158,0.4741724729537964
1776444085882030300,4.1010302734375,1.5488147735595703,-0.22452954947948456,0.23832103610038757
1776444085907047200,4.126047119140625,1.5328896045684814,-0.20570209622383118,0.10737089812755585
1776444085932065300,4.151065185546875,1.418492078781128,-0.3371827304363251,0.15373608469963074
1776444085957083100,4.176083251953125,1.2392833232879639,-0.20859339833259583,0.29187139868736267
1776444085982100000,4.201099853515625,1.448804259300232,-0.19698242843151093,0.2880897521972656
1776444086007118300,4.226118408203125,1.4164212942123413,-0.0002912096679210663,0.2712244987487793
1776444086032136200,4.25113623046875,1.1989706754684448,-0.018738126382231712,0.3284808397293091
1776444086057153300,4.2761533203125,1.267889380455017,-0.010271430015563965,0.34135040640830994
1776444086082171100,4.301171142578125,1.5242594480514526,0.17709572613239288,0.3239351511001587
1776444086107189200,4.326189208984375,1.6561018228530884,0.3050053119659424,0.22682426869869232
1776444086132207000,4.35120703125,1.6609525680541992,0.2813479006290436,0.1958663910627365
1776444086157224200,4.37622412109375,1.6231050491333008,0.13523924350738525,0.10304352641105652
1776444086182242000,4.401241943359375,1.7227272987365723,0.2932996153831482,-0.0647595003247261
1776444086207260200,4.42626025390625,1.673913836479187,0.23745489120483398,-0.1736767292022705
1776444086232277200,4.45127734375,1.502052903175354,-0.07585884630680084,-0.18701694905757904
1776444086257295000,4.476295166015625,1.3923195600509644,-0.28290411829948425,-0.22071076929569244
1776444086282313200,4.501313232421875,1.3413324356079102,-0.12333324551582336,-0.31939804553985596
1776444086307330000,4.526330078125,1.3363500833511353,0.18100644648075104,-0.4584980010986328
1776444086332348200,4.55134814453125,1.3619532585144043,0.36776620149612427,-0.6009572744369507
1776444086357366000,4.576365966796875,1.1752363443374634,0.4441302418708801,-0.5613393187522888
1776444086382383000,4.601383056640625,0.7362313866615295,0.037681639194488525,-0.4923342764377594
1776444086407401000,4.62640087890625,0.5154808163642883,0.23769892752170563,-0.2100106030702591
1776444086432419000,4.651419189453125,0.7497480511665344,0.28971779346466064,0.0048995050601661205
1776444086457436200,4.676436279296875,0.9109464883804321,0.2131538689136505,0.13504888117313385
1776444086482454000,4.7014541015625,0.8739326000213623,0.04989665746688843,0.2874969244003296
1776444086507472100,4.72647216796875,0.8464843034744263,-0.04938386753201485,0.24315455555915833
1776444086532490000,4.751489990234375,0.9091315269470215,-0.17624710500240326,0.19130216538906097
1776444086557507000,4.776507080078125,0.9587244987487793,-0.12231265008449554,0.12948620319366455
1776444086582525000,4.80152490234375,1.2515006065368652,-0.15186730027198792,0.24324458837509155
1776444086607543300,4.826543212890625,1.572039008140564,-0.08159470558166504,0.38978251814842224
1776444086632560000,4.85156005859375,1.695235252380371,0.013400711119174957,0.48640039563179016
1776444086657578200,4.876578125,1.5965814590454102,0.09414263814687729,0.5211069583892822
1776444086682596000,4.90159619140625,1.5814690589904785,0.08999495953321457,0.41632673144340515
1776444086707613200,4.92661328125,1.7658145427703857,0.02055674046278,0.2647879123687744
1776444086732631300,4.95163134765625,1.754794955253601,0.000377018004655838,0.1837509423494339
1776444086757649200,4.976649169921875,1.4930906295776367,0.07737518101930618,0.09577694535255432
1776444086782666200,5.001666259765625,1.455904483795166,0.11483065783977509,-0.015616057440638542
1776444086807684000,5.02668408203125,1.7098126411437988,0.11005849391222,-0.10701420903205872
1776444086832702200,5.0517021484375,1.8599693775177002,0.33083364367485046,-0.19330129027366638
1776444086857719300,5.07671923828125,1.726519227027893,0.5396902561187744,-0.25960037112236023
1776444086882737200,5.101737060546875,1.5490531921386719,0.6166558265686035,-0.3493671119213104
1776444086907755300,5.12675537109375,1.57725989818573,0.6455055475234985,-0.4495924711227417
1776444086932772000,5.151772216796875,1.7126902341842651,0.6311966180801392,-0.5166873335838318
1776444086957789700,5.176789794921875,1.5779893398284912,0.590064525604248,-0.5490667223930359
1776444086982807600,5.2018076171875,1.2243696451187134,0.5184705257415771,-0.5945233106613159
1776444087007824600,5.22682470703125,0.9073538184165955,0.5327845215797424,-0.6157422661781311
1776444087032842800,5.2518427734375,0.7190563678741455,0.4575210511684418,-0.5660144090652466
1776444087057860900,5.27686083984375,0.45169204473495483,0.39617347717285156,-0.4851021468639374
1776444087082877700,5.301877685546875,0.021705346181988716,0.43010151386260986,-0.36608460545539856
1776444087107895800,5.326895751953125,0.11670443415641785,0.27105167508125305,-0.3479151427745819
1776444087132914000,5.351913818359375,0.34312957525253296,0.04915042966604233,-0.27919331192970276
1776444087157930800,5.3769306640625,0.3600892722606659,0.000597846694290638,-0.244648277759552
1776444087182948900,5.401948974609375,0.3673339784145355,-0.06066525727510452,-0.17466220259666443
1776444087207966700,5.426966796875,0.44167324900627136,-0.1263962686061859,-0.013253344222903252
1776444087232983800,5.45198388671875,0.6861893534660339,-0.3125833570957184,0.14591801166534424
1776444087258002000,5.477001953125,0.92120361328125,-0.5079219937324524,0.26874005794525146
1776444087283019800,5.502019775390625,1.2753480672836304,-0.5953679084777832,0.40641868114471436
1776444087308037600,5.52703759765625,1.7792892456054688,-0.5784100890159607,0.46061670780181885
1776444087333054700,5.5520546875,2.2124085426330566,-0.4669399857521057,0.407064825296402
1776444087358072800,5.57707275390625,2.3994293212890625,-0.3541603088378906,0.32054877281188965
1776444087383089700,5.602089599609375,2.3504602909088135,-0.3045463562011719,0.21609961986541748
1776444087408107800,5.627107666015625,2.28729510307312,-0.24107705056667328,0.09759968519210815
1776444087433125600,5.652125732421875,2.220656156539917,-0.010198171250522137,0.01569109782576561
1776444087458143700,5.677143798828125,2.0996837615966797,0.2380366027355194,-0.017251480370759964
1776444087483160800,5.702160888671875,1.9676822423934937,0.3834664821624756,-0.0011981609277427197
1776444087508178700,5.7271787109375,1.9700944423675537,0.5168229937553406,-0.05964261293411255
1776444087533196800,5.75219677734375,1.9778903722763062,0.6058715581893921,-0.056634362787008286
1776444087558213600,5.777213623046875,1.8590813875198364,0.6373962163925171,-0.006867772899568081
1776444087583231700,5.802231689453125,1.6441863775253296,0.632609486579895,-0.008855331689119339
1776444087608249600,5.82724951171875,1.2660020589828491,0.4736860394477844,0.0035383631475269794
1776444087633266700,5.8522666015625,1.082942247390747,0.31581154465675354,0.0055333529599010944
1776444087658284500,5.877284423828125,1.1007260084152222,0.19271278381347656,0.06138234585523605
1776444087683302700,5.902302734375,1.110730528831482,-0.03309118375182152,0.14460806548595428
1776444087708319700,5.92731982421875,1.0935423374176025,-0.10039903223514557,0.16955913603305817
1776444087733337600,5.952337646484375,1.179551601409912,-0.11052851378917694,0.20165936648845673
1776444087758356000,5.97735595703125,1.161064863204956,-0.12678122520446777,0.1440686136484146
1776444087783372500,6.00237255859375,1.097879409790039,-0.2031674087047577,0.11147348582744598
1776444087808391000,6.027390869140625,1.0576367378234863,-0.17738662660121918,0.07745321094989777
1776444087833408800,6.05240869140625,1.111639142036438,-0.10070701688528061,0.042122066020965576
1776444087858425900,6.07742578125,1.1904690265655518,-0.18594041466712952,0.010813627392053604
1776444087883443700,6.102443603515625,1.5402928590774536,-0.2707849442958832,0.011858183890581131
1776444087908460800,6.127460693359375,1.6330621242523193,-0.32822874188423157,0.06607663631439209
1776444087933479000,6.15247900390625,1.7688682079315186,-0.4320686161518097,0.058917466551065445
1776444087958497000,6.1774970703125,1.8834244012832642,-0.6553062200546265,0.008464528247714043
1776444087983515100,6.20251513671875,1.8043197393417358,-0.7483237981796265,-0.04594818130135536
1776444088008532000,6.227531982421875,1.5176234245300293,-0.6610472202301025,-0.13706263899803162
1776444088033550000,6.252550048828125,0.9925211071968079,-0.5377006530761719,-0.12795230746269226
1776444088058567200,6.277567138671875,0.6232485175132751,-0.4359656870365143,-0.07637906819581985
1776444088083585000,6.3025849609375,0.4549914300441742,-0.1380169689655304,-0.07966698706150055
1776444088108603000,6.327602783203125,0.3642437756061554,0.0016306210309267044,0.029176615178585052
1776444088133620000,6.352619873046875,0.542119562625885,0.23087093234062195,0.06710352748632431
1776444088158638000,6.37763818359375,0.8330545425415039,0.3646613657474518,0.09908301383256912
1776444088183656000,6.402656005859375,0.9607936143875122,0.4995569884777069,0.13937054574489594
1776444088208673000,6.427673095703125,0.7715129852294922,0.5524318218231201,0.21476781368255615
1776444088233691000,6.45269091796875,0.6104496717453003,0.5765228271484375,0.27238914370536804
1776444088258709000,6.477708984375,0.4573875963687897,0.5434504151344299,0.2946361005306244
1776444088283726000,6.50272607421875,0.3385887145996094,0.4933568835258484,0.3398553729057312
1776444088308744000,6.527743896484375,0.3565019369125366,0.3422306180000305,0.28330859541893005
1776444088333762000,6.552761962890625,0.531502366065979,0.36661702394485474,0.008215281181037426
1776444088358779000,6.57777880859375,0.6472691297531128,0.34544825553894043,-0.13049909472465515
1776444088383797000,6.602796875,0.595643937587738,0.4364610016345978,-0.10687707364559174
1776444088408814800,6.62781494140625,0.5116367340087891,0.5181658864021301,-0.05358164757490158
1776444088433832000,6.65283203125,0.6108222007751465,0.5695187449455261,0.00919361598789692
1776444088458849800,6.677849853515625,0.890170156955719,0.45399391651153564,0.06567403674125671
1776444088483868000,6.702867919921875,1.1997863054275513,0.4054134786128998,0.012550229206681252
1776444088508885000,6.727885009765625,1.3177424669265747,0.32002556324005127,-0.06406652182340622
1776444088533902800,6.75290283203125,1.2810591459274292,0.262203574180603,-0.14455316960811615
1776444088558921200,6.777921142578125,1.4820059537887573,0.12430979311466217,-0.2383604645729065
1776444088583937800,6.802937744140625,1.8088525533676147,0.06848295032978058,-0.3990632891654968
1776444088608956200,6.8279560546875,1.8143327236175537,0.04466050863265991,-0.4272685945034027
1776444088633974000,6.85297412109375,1.719293236732483,-0.019510600715875626,-0.34660154581069946
1776444088658991000,6.8779912109375,1.710086464881897,-0.043482471257448196,-0.3532482087612152
1776444088684009000,6.903009033203125,1.5720230340957642,0.07433871924877167,-0.39326244592666626
1776444088709027000,6.928027099609375,1.3742361068725586,0.2110327184200287,-0.32090601325035095
1776444088734044200,6.953044189453125,1.4090726375579834,0.29028138518333435,-0.2907605469226837
1776444088759062000,6.97806201171875,1.678299903869629,0.22948744893074036,-0.34801575541496277
1776444088784079000,7.0030791015625,1.6213536262512207,0.17724156379699707,-0.25049275159835815
1776444088809097000,7.028096923828125,1.5595028400421143,0.12025081366300583,-0.13651593029499054
1776444088834115000,7.053114990234375,1.660968542098999,0.09241615235805511,-0.2041560858488083
1776444088859132200,7.078132080078125,1.623469591140747,0.05905048921704292,-0.18669112026691437
1776444088884150000,7.10314990234375,1.4155017137527466,0.0017085541039705276,-0.14747987687587738
1776444088909168000,7.128168212890625,0.9149389863014221,-0.07190651446580887,-0.16851618885993958
1776444088934185000,7.15318505859375,0.7796390652656555,-0.155757874250412,-0.1915109008550644
1776444088959202600,7.17820263671875,0.6556821465492249,-0.2852805554866791,-0.22438088059425354
1776444088984220400,7.203220458984375,0.6939072012901306,-0.4200094938278198,-0.27051398158073425
1776444089009237500,7.228237548828125,0.7504571676254272,-0.3391690254211426,-0.3367701470851898
1776444089034255600,7.253255615234375,0.6629431247711182,-0.2294818013906479,-0.3348694443702698
1776444089059273500,7.2782734375,0.727260172367096,-0.1594652235507965,-0.2730719745159149
1776444089084290600,7.30329052734375,0.7432587742805481,-0.0644247978925705,-0.08177157491445541
1776444089109308400,7.328308349609375,0.7535863518714905,0.08668196201324463,-0.0037292216438800097
1776444089134326500,7.353326416015625,0.77052241563797,0.22449757158756256,0.13363954424858093
1776444089159343400,7.37834326171875,0.7020831108093262,0.36682307720184326,0.10236094892024994
1776444089184361500,7.403361572265625,0.7245218753814697,0.296968549489975,-0.14703606069087982
1776444089209378600,7.428378662109375,0.9152530431747437,0.33444130420684814,-0.5046433806419373
1776444089234396400,7.453396484375,1.0430947542190552,0.1735658496618271,-0.7121880650520325
1776444089259414500,7.47841455078125,1.038493037223816,0.23144268989562988,-0.7513537406921387
1776444089284431400,7.503431396484375,1.0789794921875,0.4439432621002197,-0.5849937796592712
1776444089309449500,7.528449462890625,1.0176364183425903,0.4904254376888275,-0.4632437825202942
1776444089334467300,7.55346728515625,0.9330542683601379,0.39756157994270325,-0.41382449865341187
1776444089359484400,7.578484375,0.9755516052246094,0.3333908021450043,-0.33845970034599304
1776444089384502500,7.60350244140625,1.1337329149246216,0.31506651639938354,-0.17163260281085968
1776444089409520400,7.628520263671875,1.2105541229248047,0.172418475151062,-0.031385451555252075
1776444089434537500,7.653537353515625,1.2612590789794922,-0.04168340563774109,0.053347181528806686
1776444089459555300,7.678555419921875,1.3779412508010864,-0.23606513440608978,0.11227627098560333
1776444089484573700,7.70357373046875,1.4115900993347168,-0.3797861337661743,0.18627750873565674
1776444089509590300,7.72859033203125,1.4184073209762573,-0.5196943283081055,0.20955172181129456
1776444089534608600,7.753608642578125,1.3047196865081787,-0.675634503364563,0.2229839414358139
1776444089559626500,7.77862646484375,1.1215561628341675,-0.7207107543945312,0.19790270924568176
1776444089584643600,7.8036435546875,0.9882254600524902,-0.6691529154777527,0.20162922143936157
1776444089609661700,7.82866162109375,0.87775057554245,-0.5869550108909607,0.2728751599788666
1776444089634678500,7.853678466796875,0.7683908939361572,-0.4957702159881592,0.3124921917915344
1776444089659696600,7.878696533203125,0.5784172415733337,-0.45311033725738525,0.27908843755722046
1776444089684714500,7.903714599609375,0.4727126955986023,-0.42248019576072693,0.23810096085071564
1776444089709731600,7.928731689453125,0.3544446527957916,-0.37846603989601135,0.15938161313533783
1776444089734749400,7.95374951171875,0.17650918662548065,-0.28778985142707825,0.15488046407699585
1776444089759767600,7.978767578125,0.21289150416851044,-0.06019812077283859,0.15911921858787537
1776444089784784600,8.00378466796875,0.40069276094436646,0.20887532830238342,0.07720047980546951
1776444089809802500,8.028802490234375,0.40960147976875305,0.2820492386817932,-0.051198914647102356
1776444089834820600,8.053820556640625,0.4240492880344391,0.22754104435443878,-0.13284943997859955
1776444089859837400,8.07883740234375,0.5062938332557678,0.2364456206560135,-0.07375586777925491
1776444089884855600,8.10385546875,0.6208836436271667,0.5769237875938416,0.029163306578993797
1776444089909872600,8.12887255859375,0.6764586567878723,0.7918919920921326,-0.05715087428689003
1776444089934890500,8.153890380859375,0.7527086138725281,0.5795043110847473,-0.3901098072528839
1776444089959909600,8.17890966796875,0.9068191647529602,0.49157992005348206,-0.4836304783821106
1776444089984926700,8.2039267578125,1.1445610523223877,0.2280227243900299,-0.44324302673339844
1776444090009944600,8.228944580078124,0.9986951351165771,0.2111586183309555,-0.1587626039981842
1776444090034962700,8.253962646484375,1.3865996599197388,-0.14934618771076202,-0.11271358281373978
1776444090059979800,8.278979736328125,1.316273808479309,-0.20287325978279114,0.03051660768687725
1776444090084997600,8.30399755859375,1.4032388925552368,-0.31621915102005005,0.08181673288345337
1776444090110015700,8.329015625,1.3941171169281006,-0.276950865983963,0.11841356754302979
1776444090135032600,8.354032470703125,1.2061229944229126,-0.2109174132347107,0.1417858600616455
1776444090160050700,8.37905078125,1.16893470287323,-0.25315266847610474,0.07263130694627762
1776444090185067800,8.40406787109375,1.2709583044052124,-0.17707626521587372,0.04910329356789589
1776444090210085600,8.429085693359376,1.375731110572815,-0.08059686422348022,-0.034503985196352005
1776444090235103700,8.454103759765625,1.4902046918869019,-0.04120292887091637,-0.16431675851345062
1776444090260120600,8.47912060546875,1.5864183902740479,0.11500358581542969,-0.2417767345905304
1776444090285139000,8.504138916015625,1.699205994606018,0.20311294496059418,-0.289910227060318
1776444090310156800,8.52915673828125,2.0123112201690674,0.2950136959552765,-0.312989741563797
1776444090335174000,8.554173828125,2.204667091369629,0.4647985100746155,-0.3137120306491852
1776444090360191700,8.579191650390625,2.1596744060516357,0.6121600866317749,-0.30100080370903015
1776444090385208800,8.604208740234375,2.131788730621338,0.4962088167667389,-0.23657789826393127
1776444090410227000,8.62922705078125,2.137995719909668,0.22953076660633087,-0.10650944709777832
1776444090435244800,8.654244873046874,1.9909706115722656,-0.07235569506883621,-0.0949346274137497
1776444090460262000,8.679261962890624,2.1569364070892334,-0.3264877200126648,0.04999356344342232
1776444090485279700,8.70427978515625,2.3374619483947754,-0.5886116027832031,0.16353869438171387
1776444090510297900,8.7292978515625,2.404693126678467,-0.7914942502975464,0.1101735457777977
1776444090535314700,8.754314697265626,2.2452969551086426,-0.8429474830627441,0.004054173361510038
1776444090560332800,8.779332763671874,2.0997211933135986,-0.7798940539360046,-0.0019256635569036007
1776444090585350700,8.8043505859375,1.946535348892212,-0.7692558169364929,-0.051785316318273544
1776444090610367700,8.82936767578125,1.8834257125854492,-0.6994460821151733,-0.023090019822120667
1776444090635385900,8.8543857421875,1.753692388534546,-0.42481935024261475,0.021461252123117447
1776444090660402700,8.879402587890626,1.8184629678726196,0.007807697169482708,-0.09233999997377396
1776444090685420800,8.9044208984375,1.3611763715744019,0.22723890841007233,-0.05501167103648186
1776444090710438700,8.929438720703125,1.0376042127609253,0.3957096338272095,-0.05716867744922638
1776444090735455700,8.954455810546875,0.7139276266098022,0.5460911989212036,-0.08831444382667542
1776444090760473900,8.979473876953126,0.4151548743247986,0.6398307085037231,-0.1185004785656929
1776444090785490700,9.00449072265625,0.30146223306655884,0.4817197620868683,-0.16116546094417572
1776444090810508800,9.0295087890625,0.4157031178474426,0.3161745071411133,-0.177448570728302
1776444090835526700,9.054526611328125,0.44491180777549744,0.144707590341568,-0.2804189622402191
1776444090860543700,9.079543701171875,0.6534709930419922,0.04301692545413971,-0.325428307056427
1776444090885561600,9.1045615234375,1.2528626918792725,0.08824960142374039,-0.3450022041797638
1776444090910579700,9.129579833984375,1.1451175212860107,0.009148801676928997,-0.2814948856830597
1776444090935596800,9.1545966796875,1.2083951234817505,0.07333493232727051,-0.17584331333637238
1776444090960613600,9.179613525390625,1.1877264976501465,0.23556701838970184,-0.02425522916018963
1776444090985630500,9.20463037109375,1.1478455066680908,0.3617233633995056,0.06111379712820053
1776444091010648800,9.22964892578125,1.109422206878662,0.47681739926338196,0.18688374757766724
1776444091035666700,9.254666748046875,0.832183301448822,0.5307785868644714,0.29942193627357483
1776444091060683800,9.279683837890625,0.7869258522987366,0.6312841176986694,0.4113530218601227
1776444091085701600,9.30470166015625,0.8333182334899902,0.6222133636474609,0.5182135105133057
1776444091110719700,9.3297197265625,1.0299838781356812,0.31320828199386597,0.6716651916503906
1776444091135736600,9.354736572265624,0.8871908187866211,0.10702045261859894,0.8296790719032288
1776444091160754700,9.379754638671875,0.9170745611190796,-0.36254262924194336,0.7629888653755188
1776444091185771800,9.404771728515625,0.9147516489028931,-0.5947474837303162,0.6120902895927429
1776444091210789600,9.42978955078125,0.722163200378418,-0.5823125839233398,0.3673451542854309
1776444091235807700,9.454807861328124,0.750430703163147,-0.5101745128631592,0.2119477391242981
1776444091260824600,9.479824462890624,0.8839056491851807,-0.467162162065506,0.041923727840185165
1776444091285842700,9.5048427734375,0.9126032590866089,-0.3245251774787903,0.0013454980216920376
1776444091310859800,9.52985986328125,0.9687055945396423,-0.0675496757030487,-0.034547433257102966
1776444091335877600,9.554877685546876,1.1695352792739868,0.06017545238137245,-0.0601845346391201
1776444091360895700,9.579895751953124,1.5351097583770752,0.2645941376686096,-0.07054752856492996
1776444091385912600,9.60491259765625,1.4639443159103394,0.31245678663253784,-0.1036016047000885
1776444091410930700,9.6299306640625,1.2787742614746094,0.24415142834186554,-0.07524209469556808
1776444091435948500,9.654948486328125,1.3388971090316772,0.16665807366371155,-0.0367775522172451
1776444091460965600,9.679965576171876,1.305577278137207,0.18275122344493866,-0.054568760097026825
1776444091485983500,9.7049833984375,1.2245433330535889,0.15359802544116974,-0.09167279303073883
1776444091511000600,9.73000048828125,1.3797755241394043,0.13962233066558838,-0.11564507335424423
1776444091536018700,9.755018798828125,1.4696664810180664,0.2244172990322113,-0.09204911440610886
1776444091561036500,9.78003662109375,1.289660096168518,0.19072546064853668,-0.0896218866109848
1776444091586053600,9.8050537109375,1.1830836534500122,0.1712484508752823,-0.04843892902135849
1776444091611071500,9.830071533203125,1.161218285560608,0.15387488901615143,0.0071948496624827385
1776444091636088600,9.855088623046875,1.143569827079773,0.19654855132102966,0.012775339186191559
1776444091661106700,9.880106689453125,1.076993703842163,0.11577155441045761,-0.03470363840460777
1776444091686124500,9.90512451171875,1.1141786575317383,-0.02929665707051754,-0.0771036446094513
1776444091711141600,9.9301416015625,0.9183965921401978,0.07814637571573257,-0.059493035078048706
1776444091736159500,9.955159423828125,0.5631939172744751,-0.06424430757761002,-0.16034966707229614
1776444091761176600,9.980176513671875,0.6842474341392517,0.03095155581831932,-0.14572963118553162
1776444091786194700,10.005194580078125,0.8785691857337952,-0.12792128324508667,-0.1428244709968567
1776444091811212500,10.030212646484374,0.9064150452613831,-0.3236079216003418,-0.0979459211230278
1776444091836229600,10.055229736328124,0.7789721488952637,-0.42675530910491943,-0.029878996312618256
1776444091861247500,10.08024755859375,0.5714682936668396,-0.32519569993019104,0.09197762608528137
1776444091886264600,10.1052646484375,0.5068150758743286,0.021601926535367966,0.12615364789962769
1776444091911282400,10.130282470703126,0.6079537868499756,0.12467076629400253,0.15537069737911224
1776444091936300500,10.155300537109374,0.7684862613677979,0.05522492527961731,0.10333749651908875
1776444091961318000,10.18031787109375,1.0339785814285278,0.05129511281847954,0.021091517060995102
1776444091986335700,10.205335693359375,1.3344024419784546,0.15583696961402893,-0.03188919275999069
1776444092011352800,10.230352783203125,1.4309437274932861,0.22197012603282928,-0.11023889482021332
1776444092036370700,10.25537060546875,1.6288654804229736,0.20140747725963593,-0.1877378523349762
1776444092061389000,10.28038916015625,1.8246686458587646,0.11378686130046844,-0.184214785695076
1776444092086405600,10.305405517578125,1.9951634407043457,0.017527129501104355,-0.17521624267101288
1776444092111424000,10.330424072265625,2.029221296310425,0.0009097522124648094,-0.19215646386146545
1776444092136440800,10.35544091796875,1.9455159902572632,-0.019112570211291313,-0.1603645384311676
1776444092161459000,10.380458984375,1.7349246740341187,0.018840376287698746,-0.15016494691371918
1776444092186475800,10.405475830078124,1.5312926769256592,0.03995000571012497,-0.1314471811056137
1776444092211494000,10.430493896484375,1.4953749179840088,0.012688731774687767,-0.16327926516532898
1776444092236512000,10.455511962890625,1.5138977766036987,-0.1516234427690506,-0.1280149668455124
1776444092261529000,10.480529052734376,1.3749234676361084,-0.004646774381399155,-0.11414136737585068
1776444092286547000,10.505546875,1.235804557800293,0.06730720400810242,0.018180906772613525
1776444092311564000,10.53056396484375,1.2066614627838135,0.21093866229057312,0.025299590080976486
1776444092336582000,10.555581787109375,0.978116512298584,0.1433025300502777,0.06268970668315887
1776444092361600000,10.58060009765625,0.8313960433006287,0.09129659086465836,0.005108170676976442
1776444092386616800,10.605616943359376,0.8600737452507019,0.06819934397935867,-0.05370334908366203
1776444092411635000,10.630635009765625,0.7859746217727661,0.04815380275249481,-0.03602268546819687
1776444092436652000,10.655652099609375,0.679901123046875,0.056822460144758224,0.00906679593026638
1776444092461670000,10.680669921875,0.5761609673500061,0.0867479145526886,0.021242251619696617
1776444092486687000,10.70568701171875,0.42207667231559753,0.12462814152240753,0.029082193970680237
1776444092511704800,10.730704833984374,0.49487072229385376,0.17842741310596466,0.04332888126373291
1776444092536723000,10.755722900390625,0.7457438111305237,0.1656520813703537,0.14715853333473206
1776444092561740000,10.780739990234375,1.0191282033920288,0.2516070008277893,0.15350985527038574
1776444092586758000,10.8057578125,0.9488198757171631,0.31091803312301636,0.1831669956445694
1776444092611775000,10.83077490234375,0.5906071662902832,0.24164684116840363,0.20788580179214478
1776444092636792800,10.855792724609374,0.3239741921424866,0.03913828730583191,0.1786165088415146
1776444092661810000,10.880809814453125,0.37422266602516174,-0.17106541991233826,0.13885074853897095
1776444092686827800,10.905827880859375,0.2534250020980835,-0.2455981820821762,0.11958474665880203
1776444092711846000,10.930845947265626,0.1248026192188263,0.030661046504974365,0.12691806256771088
1776444092736863000,10.955863037109374,0.5590394735336304,-0.2055867314338684,0.07626419514417648
1776444092761880800,10.980880859375,1.0962553024291992,-0.02311345376074314,0.02511017397046089
1776444092786898000,11.00589794921875,1.6546835899353027,0.14848695695400238,-0.10072653740644455
1776444092811915800,11.030915771484375,1.9442158937454224,0.34439167380332947,-0.21085673570632935
1776444092836934000,11.055933837890626,2.139265775680542,0.5133954882621765,-0.260762482881546
1776444092861951000,11.080950927734374,2.184704065322876,0.6664871573448181,-0.3271348178386688
1776444092886968800,11.10596875,2.19106388092041,0.7149370312690735,-0.4342845380306244
1776444092911986000,11.13098583984375,2.1594252586364746,0.7358539700508118,-0.5459646582603455
1776444092937003800,11.156003662109375,2.124852418899536,0.7697378993034363,-0.4543861448764801
1776444092962021000,11.181021240234376,2.04984974861145,0.7541782259941101,-0.44915518164634705
1776444092987039000,11.2060390625,1.9134724140167236,0.63813316822052,-0.4423951208591461
1776444093012056000,11.23105615234375,1.6847481727600098,0.5314986109733582,-0.4180261492729187
1776444093037074200,11.25607421875,1.3213894367218018,0.4234551191329956,-0.3660873770713806
1776444093062092000,11.281092041015626,1.257462739944458,0.28806909918785095,-0.33372169733047485
1776444093087109000,11.306109130859374,0.9784986972808838,0.21663114428520203,-0.21243581175804138
1776444093112127000,11.331126953125,0.658038318157196,0.1446463167667389,-0.10663808882236481
1776444093137144000,11.35614404296875,0.46438589692115784,0.1481638103723526,-0.05031590536236763
1776444093162162200,11.381162109375,0.5632047057151794,0.05325581505894661,-0.04895772039890289
1776444093187179000,11.406178955078126,0.7987093329429626,-0.0169064961373806,0.05005834251642227
1776444093212197000,11.431197021484374,0.8756213784217834,-0.26468828320503235,0.14061057567596436
1776444093237215000,11.456215087890625,1.0272575616836548,-0.3554590344429016,0.10487443208694458
1776444093262232000,11.481232177734375,1.341747522354126,-0.5823372602462769,0.06745296716690063
1776444093287250000,11.50625,1.556417465209961,-0.7564281225204468,0.10014054924249649
1776444093312267000,11.53126708984375,1.6175158023834229,-0.8434665203094482,0.1611652970314026
1776444093337285000,11.55628515625,1.4674053192138672,-0.8985321521759033,0.14948010444641113
1776444093362302000,11.581302001953125,1.490041732788086,-0.840246856212616,0.10464591532945633
1776444093387320000,11.606320068359375,1.3750495910644531,-0.6688977479934692,0.04184954613447189
1776444093412337200,11.631337158203126,1.1798912286758423,-0.4738805294036865,-0.027238724753260612
1776444093437355000,11.65635498046875,0.9649046659469604,-0.33564746379852295,0.006063863635063171
1776444093462373000,11.681373046875,0.7818920612335205,-0.1890137493610382,0.029866773635149002
1776444093487390000,11.706389892578125,0.6520870327949524,-0.00266062468290329,0.019961968064308167
1776444093512408000,11.731407958984375,0.7475536465644836,0.272810697555542,-0.0011561866849660873
1776444093537425200,11.756425048828126,0.9074869751930237,0.4513217508792877,0.0512642078101635
1776444093562443000,11.781443115234374,1.14263117313385,0.42456406354904175,0.15252164006233215
1776444093587460000,11.806460205078125,1.1557005643844604,0.46261709928512573,0.25883275270462036
1776444093612478000,11.83147802734375,1.1820049285888672,0.47569510340690613,0.36685726046562195
1776444093637495000,11.8564951171875,0.9487330317497253,0.4359741806983948,0.47165414690971375
1776444093662513000,11.881512939453126,0.525126576423645,0.428001344203949,0.5532127618789673
1776444093687531000,11.906531005859375,0.28623101115226746,0.43442219495773315,0.538823664188385
1776444093712548000,11.931548095703125,0.1374591588973999,0.5886891484260559,0.5375818014144897
1776444093737566000,11.95656591796875,0.04373369738459587,0.5696167945861816,0.38222813606262207
1776444093762583000,11.9815830078125,0.25367143750190735,0.4034894108772278,0.12045949697494507
1776444093787601000,12.006600830078124,0.4539909064769745,0.2193169742822647,-0.023701805621385574
1776444093812618000,12.031617919921874,0.47879713773727417,0.13619950413703918,-0.02808859758079052
1776444093837636000,12.056635986328125,0.49894747138023376,0.03466636687517166,-0.07431124895811081
1776444093862653000,12.08165283203125,0.5982430577278137,0.009744740091264248,-0.07397730648517609
1776444093887671000,12.106671142578126,0.7340696454048157,0.1517336517572403,-0.007005672436207533
1776444093912688000,12.131688232421874,0.8538249731063843,0.30258339643478394,0.06694548577070236
1776444093937706000,12.1567060546875,1.0767483711242676,0.47994422912597656,0.027631845325231552
1776444093962724000,12.18172412109375,1.5442496538162231,0.5561293363571167,-0.05828675627708435
1776444093987741000,12.206740966796875,1.8490554094314575,0.5819143056869507,-0.0882546678185463
1776444094012759000,12.231759033203126,1.8936693668365479,0.8052593469619751,-0.17592476308345795
1776444094037776000,12.25677587890625,2.075003147125244,0.798342227935791,-0.37424883246421814
1776444094062794000,12.2817939453125,2.0633792877197266,0.7039495706558228,-0.3510028123855591
1776444094087811000,12.30681103515625,1.8429484367370605,0.6610427498817444,-0.2355610579252243
1776444094112829000,12.331828857421876,1.8566088676452637,0.4462243914604187,-0.24562956392765045
1776444094137846000,12.356845947265626,1.885751485824585,0.3068561255931854,-0.3384314477443695
1776444094162863900,12.38186376953125,1.6550915241241455,0.06175553798675537,-0.28590860962867737
1776444094187881000,12.406880859375,1.2367826700210571,-0.016853371635079384,-0.2886356711387634
1776444094212899000,12.431899169921875,1.1061320304870605,-0.20733889937400818,-0.4093911051750183
1776444094237916000,12.456916015625,1.0023746490478516,-0.3387729525566101,-0.4929083585739136
1776444094262934000,12.48193408203125,0.9062359929084778,-0.36532774567604065,-0.48027998208999634
1776444094287951000,12.506951171875,0.8328805565834045,-0.31203949451446533,-0.48063018918037415
1776444094312969000,12.531968994140625,0.866793692111969,-0.21050037443637848,-0.5212349891662598
1776444094337987000,12.556987060546875,1.0757522583007812,-0.27556392550468445,-0.5246396064758301
1776444094363004000,12.58200390625,1.149600625038147,-0.23931467533111572,-0.497976690530777
1776444094388022000,12.60702197265625,1.0916699171066284,-0.21934106945991516,-0.42011013627052307
1776444094413038800,12.632038818359375,0.7753368020057678,-0.3123275339603424,-0.48590171337127686
1776444094438057000,12.657056884765625,0.4234772026538849,0.03432076424360275,-0.25352540612220764
1776444094463074000,12.682073974609375,0.5965022444725037,-0.13550665974617004,-0.2070038765668869
1776444094488092000,12.707091796875,0.6957912445068359,-0.03972770273685455,-0.17514511942863464
1776444094513109000,12.73210888671875,0.726193904876709,0.015330902300775051,-0.31742924451828003
1776444094538126800,12.757126953125,0.6642464399337769,0.16482603549957275,-0.3968663215637207
1776444094563144000,12.78214404296875,0.6715867519378662,0.15341779589653015,-0.2034294158220291
1776444094588162000,12.807162109375,0.8900165557861328,-0.015137238427996635,-0.0034995945170521736
1776444094613179000,12.832178955078126,0.9557375311851501,-0.053948815912008286,0.07168988883495331
1776444094638197000,12.857197021484374,0.8846215009689331,0.11140875518321991,0.09336498379707336
1776444094663214000,12.882214111328125,0.8266311883926392,0.4008476734161377,0.1866227090358734
1776444094688232000,12.90723193359375,1.0431771278381348,0.1130928173661232,-0.13387273252010345
1776444094713250000,12.93225,1.2691370248794556,-0.15173472464084625,-0.43531185388565063
1776444094738267000,12.957266845703124,1.3896551132202148,-0.3026745021343231,-0.6259769797325134
1776444094763285000,12.982284912109375,1.406175971031189,-0.14033032953739166,-0.6136440634727478
1776444094788301800,13.0073017578125,1.3418523073196411,0.09882571548223495,-0.5298694372177124
1776444094813320000,13.03231982421875,1.1767938137054443,0.15683940052986145,-0.5194138288497925
1776444094838337000,13.0573369140625,1.0394175052642822,0.25943371653556824,-0.5487867593765259
1776444094863355000,13.08235498046875,1.014413833618164,0.4062279462814331,-0.5227553248405457
1776444094888372000,13.1073720703125,0.9558945298194885,0.5107992887496948,-0.4248003661632538
1776444094913389800,13.132389892578125,0.9500694274902344,0.40493080019950867,-0.255454957485199
1776444094938407000,13.157406982421875,1.0211173295974731,0.18747735023498535,-0.13966113328933716
1776444094963425000,13.182425048828126,1.2347233295440674,-0.019760221242904663,-0.08401475101709366
1776444094988441900,13.20744189453125,1.379807710647583,-0.1926996409893036,-0.010952020063996315
1776444095013460000,13.2324599609375,1.3053388595581055,-0.34361180663108826,0.08206387609243393
1776444095038477000,13.25747705078125,1.1722520589828491,-0.38910093903541565,0.18212828040122986
1776444095063495000,13.282494873046875,1.1316165924072266,-0.35425063967704773,0.24752527475357056
1776444095088512000,13.307511962890626,1.0360329151153564,-0.4137440323829651,0.21292515099048615
1776444095113529900,13.33252978515625,0.9252215623855591,-0.44249361753463745,0.18078403174877167
1776444095138547000,13.357546875,0.8381978869438171,-0.3793051242828369,0.18632274866104126
1776444095163564800,13.382564697265625,0.6970028877258301,-0.2933451533317566,0.20321044325828552
1776444095188582000,13.407581787109375,0.6561854481697083,-0.2412223368883133,0.19792941212654114
1776444095213600000,13.43260009765625,0.7599021196365356,-0.06543714553117752,0.10524886101484299
1776444095238616800,13.457616943359374,0.795566201210022,-0.06520074605941772,-0.019730819389224052
1776444095263635000,13.482635009765625,0.7295205593109131,-0.1680029034614563,-0.11629381775856018
1776444095288652000,13.507652099609375,0.6922053098678589,-0.20038214325904846,-0.09970138221979141
1776444095313670000,13.532669921875,0.6957845687866211,-0.26803281903266907,-0.017003843560814857
1776444095338687000,13.55768701171875,0.6573936343193054,-0.2437620759010315,-0.0108871478587389
1776444095363704800,13.582704833984375,0.6758995056152344,0.2731635868549347,0.036450933665037155
1776444095388722000,13.607721923828125,0.7089555263519287,0.16481907665729523,-0.09142103046178818
1776444095413740000,13.632739990234375,0.7779642939567566,0.15050537884235382,0.011947490274906158
1776444095438758000,13.6577578125,0.6031249165534973,0.33600425720214844,0.13274657726287842
1776444095463775000,13.68277490234375,0.42703503370285034,0.3159756064414978,0.1560504287481308
1776444095488792800,13.707792724609375,0.40762588381767273,0.07623651623725891,0.18996213376522064
1776444095513810000,13.732809814453125,0.4642798602581024,-0.22187137603759766,0.19779664278030396
1776444095538827800,13.757827880859375,0.6953103542327881,-0.3950384557247162,0.19233015179634094
1776444095563844900,13.782844970703126,0.6608660817146301,-0.40298590064048767,0.1861366331577301
1776444095588863000,13.807863037109374,0.7451756596565247,-0.3753800094127655,0.1378023326396942
1776444095613879800,13.8328798828125,0.8806562423706055,-0.2795896530151367,0.06610305607318878
1776444095638898000,13.85789794921875,1.0384548902511597,-0.14439445734024048,-0.00910988263785839
1776444095663915000,13.8829150390625,1.2550418376922607,-0.10502027720212936,-0.12750552594661713
1776444095688932900,13.907932861328124,1.4415290355682373,-0.04104871302843094,-0.20480592548847198
1776444095713950000,13.932949951171874,1.6256886720657349,-0.0272308811545372,-0.1965322643518448
1776444095738967800,13.9579677734375,1.703513741493225,-0.02818801999092102,-0.15898995101451874
1776444095763985000,13.98298486328125,1.5187994241714478,0.07198409736156464,-0.1329645961523056
1776444095789003000,14.0080029296875,1.411356806755066,0.17461661994457245,-0.10676893591880798
1776444095814019800,14.033019775390626,1.4404776096343994,0.1008220762014389,-0.20297352969646454
1776444095839038000,14.058037841796875,1.4893909692764282,0.09212535619735718,-0.3163512051105499
1776444095864055000,14.083054931640625,1.4935905933380127,0.09352167695760727,-0.3316822052001953
1776444095889073000,14.108072998046875,1.4682955741882324,-0.035156697034835815,-0.35885074734687805
1776444095914090000,14.133090087890626,1.3944170475006104,-0.09633921086788177,-0.3071870505809784
1776444095939107800,14.15810791015625,1.2105909585952759,-0.043984584510326385,-0.1852135807275772
1776444095964124400,14.18312451171875,1.0915862321853638,-0.057241007685661316,-0.1005113273859024
1776444095989142500,14.208142578125,1.0161173343658447,-0.05699576064944267,-0.07972221821546555
1776444096014159400,14.233159423828125,0.976406455039978,-0.10276765376329422,0.011490466073155403
1776444096039177500,14.258177490234376,1.1334179639816284,-0.024812117218971252,0.09045454859733582
1776444096064194600,14.283194580078124,1.2955946922302246,0.046991605311632156,0.07902061194181442
1776444096089212400,14.30821240234375,1.374178171157837,0.08750031888484955,0.03665667772293091
1776444096114229500,14.3332294921875,1.4093989133834839,0.06537329405546188,-0.04623270034790039
1776444096139247400,14.358247314453125,1.3651604652404785,0.06112442538142204,0.021943582221865654
1776444096164264400,14.383264404296876,1.2988831996917725,-0.03245946392416954,0.1584378033876419
1776444096189282300,14.4082822265625,1.1675729751586914,-0.22291754186153412,0.27282053232192993
1776444096214299400,14.43329931640625,0.8158583045005798,-0.3443909287452698,0.186872661113739
1776444096239317500,14.4583173828125,0.6970695853233337,-0.38152897357940674,0.12797507643699646
1776444096264334300,14.483334228515625,0.7249464988708496,-0.3535948097705841,0.12651638686656952
1776444096289352400,14.5083525390625,0.5949413776397705,-0.2125582993030548,0.12718233466148376
1776444096314369500,14.53336962890625,0.5920093655586243,-0.1560465693473816,-0.02301616594195366
1776444096339387400,14.558387451171875,0.6402730345726013,-0.016901418566703796,-0.10131800174713135
1776444096364404500,14.583404541015625,0.8076624274253845,0.14779318869113922,-0.07423596829175949
1776444096389422300,14.60842236328125,1.0261790752410889,-0.0022284453734755516,-0.14531613886356354
1776444096414439400,14.633439453125,1.4138572216033936,-0.1484118103981018,-0.08696529269218445
1776444096439457500,14.65845751953125,1.6168371438980103,-0.16041414439678192,-0.061731792986392975
1776444096464474400,14.683474365234375,1.7164521217346191,-0.053492408245801926,-0.06827333569526672
1776444096489492500,14.708492431640625,1.9436920881271362,-0.14423632621765137,-0.07392680644989014
1776444096514509300,14.73350927734375,2.3697519302368164,-0.2250918596982956,-0.0628892257809639
1776444096539527400,14.75852734375,1.7253485918045044,-0.2117186337709427,0.2601574659347534
1776444096564544500,14.78354443359375,1.3591114282608032,-0.33006319403648376,0.38492563366889954
1776444096589562400,14.808562255859375,1.2121378183364868,-0.4188458323478699,0.44847410917282104
1776444096614579500,14.833579345703125,1.2275089025497437,-0.39786309003829956,0.4002249240875244
1776444096639597300,14.858597412109376,1.1628284454345703,-0.37189555168151855,0.35529735684394836
1776444096664614400,14.883614501953126,0.5916093587875366,-0.19016675651073456,0.3512003421783447
1776444096689632500,14.908632568359375,0.22582265734672546,0.1719662845134735,0.3041689693927765
1776444096714649300,14.9336494140625,0.15084339678287506,0.6073315143585205,0.2572649121284485
1776444096739667500,14.95866748046875,0.1576181799173355,1.025347113609314,0.24577933549880981
1776444096764684500,14.9836845703125,0.011062022298574448,1.2945894002914429,0.3286474347114563
1776444096789702400,15.008702392578124,0.022551443427801132,1.2458343505859375,0.29145994782447815
1776444096814719500,15.033719482421875,0.34793728590011597,0.9586131572723389,0.2043260782957077
1776444096839736600,15.058736572265625,0.43032774329185486,0.7178283333778381,0.1977369338274002
1776444096864754400,15.08375439453125,1.1392061710357666,0.042657800018787384,0.2731110155582428
1776444096889771500,15.108771484375,1.1507182121276855,-0.16961266100406647,0.35554295778274536
1776444096914789400,15.133789306640624,1.0551798343658447,-0.15232592821121216,0.3453249931335449
1776444096939806500,15.158806396484374,1.1074703931808472,-0.010708791203796864,0.3117801547050476
1776444096964825300,15.183825439453125,1.0143091678619385,0.1158507764339447,0.22667506337165833
1776444096989842400,15.208842529296875,0.9527903199195862,0.17158080637454987,0.2022649347782135
1776444097014860300,15.2338603515625,1.0314452648162842,0.21269427239894867,0.11303067207336426
1776444097039877400,15.25887744140625,1.1599183082580566,0.1016898900270462,-0.02892547845840454
1776444097064895500,15.2838955078125,1.0896104574203491,0.1378529816865921,-0.04951866343617439
1776444097089912300,15.308912353515625,1.2275162935256958,-0.012539639137685299,-0.12758414447307587
1776444097114930400,15.333930419921876,1.4027013778686523,-0.017468007281422615,-0.191511332988739
1776444097139947500,15.358947509765626,1.601325511932373,0.28627774119377136,-0.1748180091381073
1776444097164965400,15.38396533203125,1.6929203271865845,-0.002669687382876873,-0.1153000220656395
1776444097189982500,15.408982421875,1.80388343334198,-0.19087576866149902,-0.1472354531288147
1776444097215000300,15.434000244140625,1.7643640041351318,0.022997315973043442,-0.16235996782779694
1776444097240017400,15.459017333984375,1.4827598333358765,0.09758607298135757,-0.2091900259256363
1776444097265035300,15.48403515625,1.294218897819519,0.0157577246427536,-0.23445181548595428
1776444097290052400,15.50905224609375,1.2571260929107666,0.027167025953531265,-0.2068193107843399
1776444097315070500,15.534070556640625,1.2799938917160034,0.0780167430639267,-0.20122744143009186
1776444097340087300,15.55908740234375,1.3299922943115234,0.036336712539196014,-0.1752701699733734
1776444097365105400,15.58410546875,1.380655288696289,-0.043063901364803314,-0.09136419743299484
1776444097390122500,15.60912255859375,1.21715247631073,0.03134455531835556,-0.027551235631108284
1776444097415140400,15.634140380859375,0.8445455431938171,-0.3031925857067108,0.010475404560565948
1776444097440157400,15.659157470703125,0.7575823068618774,0.012390478514134884,-0.11154899001121521
1776444097465175300,15.68417529296875,0.7388025522232056,0.07962320744991302,-0.1024169772863388
1776444097490192400,15.7091923828125,0.7973923683166504,0.074492909014225,-0.053516894578933716
1776444097515210500,15.73421044921875,0.7724134922027588,0.043415769934654236,0.06377649307250977
1776444097540227300,15.759227294921875,0.7737772464752197,-0.13364392518997192,-0.05383450537919998
1776444097565245400,15.784245361328125,0.8821116089820862,-0.19799040257930756,-0.161471888422966
1776444097590262500,15.809262451171875,0.9868918657302856,-0.23754805326461792,-0.06973746418952942
1776444097615279400,15.834279296875,0.9155264496803284,0.008737985044717789,-0.08790013939142227
1776444097640297500,15.85929736328125,0.9574071764945984,0.1471809297800064,-0.04876842349767685
1776444097665314600,15.884314453125,1.0950082540512085,0.27997028827667236,0.025899846106767654
1776444097690332400,15.90933251953125,1.3807837963104248,0.35482174158096313,0.11645027995109558
1776444097715349500,15.934349609375,1.5436135530471802,0.3064875900745392,0.14252033829689026
1776444097740367400,15.959367431640626,1.5839279890060425,0.3607384264469147,0.07915401458740234
1776444097765384400,15.984384521484374,1.5840303897857666,0.24508336186408997,0.06502451002597809
1776444097790402300,16.00940234375,1.544835090637207,0.10279233008623123,0.11529124528169632
1776444097815419400,16.03441943359375,1.453768253326416,0.025764118880033493,0.14579562842845917
1776444097840437500,16.0594375,1.481074571609497,-0.07191309332847595,0.08374223858118057
1776444097865454300,16.084454345703126,1.5147017240524292,-0.2306041568517685,0.09238036721944809
1776444097890472400,16.109472412109376,1.4223147630691528,-0.3324425220489502,0.1396062672138214
1776444097915489500,16.134489501953126,1.2868343591690063,-0.3456704914569855,0.13496337831020355
1776444097940507400,16.15950732421875,1.2501379251480103,-0.495760977268219,0.012004271149635315
1776444097965524000,16.18452392578125,1.4103858470916748,-0.41172316670417786,-0.25068730115890503
1776444097990541800,16.209541748046874,1.5637458562850952,-0.3671865165233612,-0.41553550958633423
1776444098015559000,16.234558837890624,1.4871349334716797,-0.3115842640399933,-0.40539199113845825
1776444098040577000,16.259576904296875,1.3119183778762817,-0.010941597633063793,-0.46090543270111084
1776444098065593900,16.28459375,1.2749054431915283,0.03136982023715973,-0.4757877588272095
1776444098090612000,16.309612060546876,1.2111620903015137,0.28604546189308167,-0.3782446086406708
1776444098115629000,16.334629150390626,1.2671821117401123,0.477367639541626,-0.3429657220840454
1776444098140646000,16.35964599609375,1.2858853340148926,0.47566065192222595,-0.35043445229530334
1776444098165664000,16.3846640625,1.243934154510498,0.4897964596748352,-0.30904191732406616
1776444098190681000,16.40968115234375,1.142306923866272,0.40272265672683716,-0.2634921967983246
1776444098215699000,16.434698974609375,1.067445158958435,0.2941988408565521,-0.24344976246356964
1776444098240716000,16.459716064453126,0.9161587357521057,0.18975761532783508,-0.1557573676109314
1776444098265734000,16.48473388671875,0.7287051677703857,0.09746164083480835,-0.06685803085565567
1776444098290751000,16.5097509765625,0.587517499923706,0.05530951917171478,-0.03864884003996849
1776444098315768800,16.534768798828125,0.5026679635047913,0.0007637711241841316,-0.01032114215195179
1776444098340786000,16.559785888671875,0.3624844551086426,0.0033121397718787193,0.04068273305892944
1776444098365804000,16.584803955078126,0.3103257417678833,0.1415218859910965,0.05360976979136467
1776444098390820900,16.60982080078125,0.4516177177429199,0.08022183924913406,0.08694785833358765
1776444098415839000,16.6348388671875,0.6104438304901123,0.1790499985218048,0.09483084082603455
1776444098440856000,16.65985595703125,0.4790637493133545,0.4521690607070923,0.11961676925420761
1776444098465874000,16.6848740234375,0.5542528629302979,0.6207950115203857,0.09683447331190109
1776444098490891000,16.70989111328125,0.8480340242385864,0.5935759544372559,0.03642750531435013
1776444098515908000,16.734908203125,1.1031837463378906,0.5705795884132385,-0.04245185852050781
1776444098540926000,16.759926025390627,1.3457778692245483,0.5694686770439148,-0.11522878706455231
1776444098565943000,16.784943115234373,1.6300262212753296,0.5566304326057434,-0.11042512953281403
1776444098590961000,16.8099609375,2.0220417976379395,0.5464428067207336,-0.1838448941707611
1776444098615978000,16.83497802734375,2.2113356590270996,0.48976871371269226,-0.29832354187965393
1776444098640996000,16.85999609375,2.2777373790740967,0.382435142993927,-0.36977076530456543
1776444098666013000,16.885012939453127,2.2293906211853027,0.32660767436027527,-0.38597869873046875
1776444098691031000,16.910031005859373,2.2161262035369873,0.3511800765991211,-0.4290422201156616
1776444098716048100,16.935048095703124,2.1573314666748047,0.39738398790359497,-0.4017965793609619
1776444098741066000,16.96006591796875,2.0676164627075195,0.3735262155532837,-0.3199683427810669
1776444098766083000,16.9850830078125,1.8258129358291626,0.22449441254138947,-0.23757173120975494
1776444098791101000,17.010100830078127,1.8071707487106323,0.11072352528572083,-0.29429638385772705
1776444098816118000,17.035117919921873,1.9606655836105347,0.05860177055001259,-0.34221041202545166
1776444098841135900,17.060135986328124,2.1224544048309326,0.031317874789237976,-0.3966037333011627
1776444098866153000,17.085153076171874,2.0569519996643066,0.019749751314520836,-0.3864954710006714
1776444098891170000,17.110170166015624,2.0360395908355713,-0.20758919417858124,-0.3354148268699646
1776444098916188000,17.13518798828125,1.9677162170410156,-0.42200860381126404,-0.17294687032699585
1776444098941205000,17.160205078125,1.7653192281723022,-0.4892839789390564,-0.06588445603847504
1776444098966226400,17.185226318359376,1.5886383056640625,-0.5866546034812927,0.0030596423894166946
1776444098991243000,17.210242919921875,1.4322329759597778,-0.6955544352531433,0.036691904067993164
1776444099016261400,17.235261474609374,1.3113394975662231,-0.8111823797225952,0.09604942053556442
1776444099041278200,17.2602783203125,1.2678437232971191,-0.6401507258415222,0.05898553878068924
1776444099066296300,17.28529638671875,1.3624372482299805,-0.4364531934261322,0.08841698616743088
1776444099091313200,17.310313232421876,1.4064295291900635,-0.2409096509218216,0.20148791372776031
1776444099116331300,17.335331298828127,1.504338264465332,-0.025125639513134956,0.18230083584785461
1776444099141348000,17.36034814453125,1.802432656288147,0.13453690707683563,0.1369267851114273
1776444099166365200,17.385365234375,2.2108452320098877,0.2912297248840332,-0.028757575899362564
1776444099191383000,17.410383056640626,2.2002201080322266,0.4484058618545532,-0.07452761381864548
1776444099216400100,17.435400146484376,2.2353482246398926,0.29935699701309204,-0.01574309915304184
1776444099241418200,17.460418212890627,2.0518338680267334,0.19402654469013214,0.04904681444168091
1776444099266435000,17.48543505859375,1.7215240001678467,-0.06702852994203568,0.04706842824816704
1776444099291453200,17.510453125,0.8250110745429993,-0.4021800756454468,0.06524546444416046
1776444099316470300,17.53547021484375,0.09811633080244064,-0.4336467385292053,0.013073235750198364
1776444099341488000,17.560488037109376,0.005226793233305216,-0.44340652227401733,-0.1389549970626831
1776444099366505200,17.585505126953127,0.07158981263637543,-0.5359590649604797,-0.20424629747867584
1776444099391523000,17.610523193359374,0.011828254908323288,-0.5852048993110657,-0.19001799821853638
1776444099416540200,17.6355400390625,-0.26015037298202515,-0.3586834669113159,-0.2980262339115143
1776444099441558000,17.66055810546875,-0.35816723108291626,-0.2882731258869171,-0.4221590459346771
1776444099466575000,17.6855751953125,-0.18838250637054443,-0.1908991038799286,-0.4357234239578247
1776444099491592200,17.71059228515625,0.037687480449676514,-0.026466473937034607,-0.3255511224269867
1776444099516610000,17.735610107421873,0.12405718117952347,0.11103969067335129,-0.13245195150375366
1776444099541627100,17.760627197265624,0.23383334279060364,0.2256629765033722,0.07616271823644638
1776444099566645200,17.785645263671874,0.6402198672294617,0.22289517521858215,0.1408361941576004
1776444099591662000,17.810662109375,0.9823014140129089,0.22758366167545319,0.17607943713665009
1776444099616680200,17.83568017578125,1.0474501848220825,0.2813795804977417,0.1996041238307953
1776444099641697300,17.860697265625,1.1595845222473145,0.3921504616737366,0.13544026017189026
1776444099666715100,17.885715087890624,1.3612263202667236,0.45925194025039673,0.07989585399627686
1776444099691732200,17.910732177734374,1.4897822141647339,0.490507572889328,0.04683912917971611
1776444099716749300,17.935749267578124,1.4734050035476685,0.5319356918334961,0.05351516604423523
1776444099741767200,17.96076708984375,1.4937946796417236,0.43378114700317383,0.005866801831871271
1776444099766784300,17.9857841796875,1.4964599609375,0.3542915880680084,-0.04322449862957001
1776444099791802000,18.010802001953124,1.3849934339523315,0.277692586183548,-0.040810421109199524
1776444099816819200,18.035819091796874,1.5357173681259155,0.09796538949012756,-0.06582967936992645
1776444099841837000,18.060837158203125,1.7199933528900146,-0.01957649365067482,-0.15469470620155334
1776444099866854100,18.085854248046875,1.7487276792526245,-0.06568346172571182,-0.20611324906349182
1776444099891872300,18.110872314453125,1.7012652158737183,-0.12859289348125458,-0.21715055406093597
1776444099916889000,18.13588916015625,1.7227460145950317,-0.16288349032402039,-0.23759403824806213
1776444099941906200,18.16090625,1.6631929874420166,-0.12321546673774719,-0.22671763598918915
1776444099966924500,18.185924560546876,1.6132622957229614,-0.031781155616045,-0.2099439799785614
1776444099991941600,18.210941650390627,1.6796817779541016,0.037146102637052536,-0.2831864655017853
1776444100016959700,18.235959716796874,1.3597432374954224,0.14344868063926697,-0.3465575873851776
1776444100041976600,18.2609765625,0.9428163170814514,0.06423095613718033,-0.24394288659095764
1776444100066994700,18.28599462890625,0.7723686099052429,-0.0708356648683548,-0.2966119050979614
1776444100092011800,18.31101171875,0.5396968126296997,-0.01897314563393593,-0.28400662541389465
1776444100117029600,18.336029541015623,0.6408641338348389,-0.2367704212665558,-0.42642590403556824
1776444100142046700,18.361046630859374,0.573246955871582,-0.28547585010528564,-0.49057331681251526
1776444100167063800,18.386063720703124,0.6051772832870483,-0.27627936005592346,-0.4554879069328308
1776444100192081700,18.41108154296875,0.6091561317443848,-0.06926967203617096,-0.3130628764629364
1776444100217098800,18.4360986328125,0.6179109811782837,0.09571898728609085,-0.1906202882528305
1776444100242116600,18.46111669921875,0.6703029870986938,0.058146148920059204,-0.13907577097415924
1776444100267133700,18.4861337890625,0.6855751872062683,0.13680662214756012,0.005804640240967274
1776444100292151800,18.51115185546875,0.6146934628486633,0.2851487100124359,0.13937145471572876
1776444100317168600,18.536168701171874,0.5831237435340881,0.5847943425178528,0.20184560120105743
1776444100342186800,18.561186767578125,0.5616633892059326,0.6858770251274109,0.21528282761573792
1776444100367203800,18.586203857421875,0.6084585189819336,0.6318164467811584,0.11374296247959137
1776444100392220700,18.611220703125,0.7280696034431458,0.4188632369041443,-0.09919030219316483
1776444100417238800,18.63623876953125,0.9439482688903809,0.2050260603427887,-0.3753848969936371
1776444100442255600,18.661255615234374,1.0567538738250732,0.04554254189133644,-0.4219382405281067
1776444100467273700,18.686273681640625,1.1925854682922363,0.13790036737918854,-0.27787870168685913
1776444100492290800,18.711290771484375,1.3175314664840698,0.36435458064079285,-0.0963718444108963
1776444100517308700,18.73630859375,1.377610206604004,0.439011812210083,-0.055880166590213776
1776444100542325800,18.76132568359375,1.4566185474395752,0.3197847008705139,-0.13938714563846588
1776444100567342800,18.7863427734375,1.4804867506027222,0.11786513030529022,-0.19568371772766113
1776444100592360700,18.811360595703125,1.4749394655227661,0.04523005336523056,-0.1924910545349121
1776444100617377800,18.836377685546875,1.3977829217910767,0.08680175244808197,-0.15787111222743988
1776444100642395600,18.861395751953125,1.3475173711776733,0.12915456295013428,-0.15681973099708557
1776444100667412700,18.886412841796876,1.3155208826065063,0.06219654530286789,-0.17916947603225708
1776444100692430800,18.911430908203126,1.2835910320281982,-0.04785251244902611,-0.20481212437152863
1776444100717447700,18.93644775390625,1.326333999633789,-0.08064389228820801,-0.1654018759727478
1776444100742464800,18.96146484375,1.3549929857254028,-0.0714656263589859,-0.06635557115077972
1776444100767483000,18.98648291015625,1.2661761045455933,-0.1032961830496788,-0.02666904218494892
1776444100792499700,19.011499755859376,1.1798497438430786,-0.15516746044158936,-0.05189332365989685
1776444100817517800,19.036517822265626,1.124634861946106,-0.2282980978488922,-0.06975333392620087
1776444100842534700,19.06153466796875,1.0596568584442139,-0.2452443540096283,-0.05672532692551613
1776444100867552800,19.086552734375,0.9611254930496216,-0.22187304496765137,-0.012666946277022362
1776444100892569900,19.11156982421875,0.8137139081954956,-0.23752249777317047,0.00459020771086216
1776444100917587700,19.136587646484376,0.6537696123123169,-0.2703981101512909,-0.01969292387366295
1776444100942604800,19.161604736328126,0.5436577200889587,-0.3418026566505432,-0.06444092839956284
1776444100967622000,19.186621826171876,0.44230180978775024,-0.449084997177124,-0.058782294392585754
1776444100992639700,19.2116396484375,0.324455201625824,-0.49577561020851135,-0.0005550426431000233
1776444101017656800,19.23665673828125,0.26420149207115173,-0.45949801802635193,0.08878862112760544
1776444101042674700,19.2616748046875,0.3893102705478668,-0.29626432061195374,0.11813072115182877
1776444101067691800,19.28669189453125,0.5313826203346252,-0.22800087928771973,0.0625908374786377
1776444101092710000,19.3117099609375,0.6892545223236084,-0.22100020945072174,0.006718497723340988
1776444101117726700,19.336726806640623,0.7356862425804138,-0.360271155834198,-0.04701000452041626
1776444101142743800,19.361743896484374,0.7237845063209534,-0.30160924792289734,-0.009868311695754528
1776444101167762000,19.386761962890624,0.6689215302467346,-0.1334914118051529,0.010896486230194569
1776444101192778800,19.41177880859375,0.7224130034446716,-0.13013501465320587,0.0058537693694233894
1776444101217796900,19.436796875,0.7846918106079102,-0.2086258977651596,-0.002349905204027891
1776444101242814000,19.46181396484375,0.6607078909873962,-0.28074753284454346,-0.003360263304784894
1776444101267831800,19.486831787109374,0.6328811645507812,-0.1364777386188507,0.17358741164207458
1776444101292849000,19.511848876953124,0.5543640851974487,-0.04013536870479584,0.31781142950057983
1776444101317865700,19.53686572265625,0.43878766894340515,0.08467346429824829,0.3778613209724426
1776444101342883800,19.5618837890625,0.5048580765724182,0.09006468206644058,0.36537957191467285
1776444101367901000,19.58690087890625,0.7890517115592957,-0.05004610866308212,0.2856826186180115
1776444101392918800,19.611918701171874,0.9504098296165466,-0.008567473851144314,0.11451929807662964
1776444101417936000,19.636935791015624,1.079779863357544,-0.006830699276179075,0.09098099172115326
1776444101442953700,19.66195361328125,1.1112793684005737,-0.13979846239089966,-0.03694208338856697
1776444101467970800,19.686970703125,1.1468946933746338,-0.15354618430137634,-0.10088705271482468
1776444101492988000,19.71198779296875,1.1972579956054688,-0.1693761646747589,-0.15380993485450745
1776444101518005800,19.737005859375,1.2590655088424683,-0.08888884633779526,-0.22783902287483215
1776444101543022800,19.76202294921875,1.338829517364502,0.05041266232728958,-0.25238603353500366
1776444101568041000,19.787041015625,1.4378242492675781,0.06013473495841026,-0.3128492832183838
1776444101593057800,19.812057861328125,1.5365601778030396,0.0496981255710125,-0.41932177543640137
1776444101618075000,19.837074951171875,1.497064232826233,0.24348586797714233,-0.4960610866546631
1776444101643093000,19.862093017578125,1.5635814666748047,0.37983793020248413,-0.5273502469062805
1776444101668109800,19.88710986328125,1.66650390625,0.43242037296295166,-0.5023988485336304
1776444101693128000,19.9121279296875,1.7896426916122437,0.4804566502571106,-0.44285330176353455
1776444101718144800,19.937144775390625,1.9427506923675537,0.5852728486061096,-0.35767269134521484
1776444101743163000,19.962162841796875,1.9307130575180054,0.8090744614601135,-0.26018980145454407
1776444101768180000,19.987179931640625,1.798921823501587,0.8577039837837219,-0.29381492733955383
1776444101793196800,20.01219677734375,1.6740670204162598,0.8671506643295288,-0.24594715237617493
1776444101818215000,20.03721484375,1.6513159275054932,0.7199323177337646,-0.16822358965873718
1776444101843231700,20.062231689453125,1.6625502109527588,0.5130871534347534,-0.1302829086780548
1776444101868249900,20.087249755859375,1.5353823900222778,0.3685690462589264,-0.14118093252182007
1776444101893266700,20.1122666015625,1.4458675384521484,0.17030069231987,-0.2468447983264923
1776444101918284800,20.137284912109376,1.313421607017517,-0.0021929433569312096,-0.19157961010932922
1776444101943301600,20.162301513671874,1.16878080368042,-0.26161766052246094,-0.28319618105888367
1776444101968315000,20.18731494140625,1.2393076419830322,-0.4630587697029114,-0.13182340562343597
1776444101993332700,20.212332763671874,1.3868111371994019,-0.6546769738197327,-0.11533311009407043
1776444102018349800,20.237349853515624,1.3098677396774292,-0.6066299676895142,-0.18018130958080292
1776444102043368000,20.262367919921875,1.3842092752456665,-0.5094577074050903,-0.25314366817474365
1776444102068384800,20.287384765625,1.7202379703521729,-0.4136384427547455,-0.21076545119285583
1776444102093401900,20.31240185546875,1.8184701204299927,-0.29222801327705383,-0.3035934269428253
1776444102118420000,20.337419921875,1.7928876876831055,-0.04523612558841705,-0.23551271855831146
1776444102143436800,20.362436767578124,1.966046690940857,0.10090750455856323,-0.08423638343811035
1776444102168455000,20.387454833984375,1.8276658058166504,0.22851644456386566,0.07390399277210236
1776444102193472000,20.412471923828125,1.2990657091140747,0.23219433426856995,0.17499183118343353
1776444102218488800,20.43748876953125,1.0232045650482178,0.2089914083480835,0.2244318723678589
1776444102243507000,20.4625068359375,0.9131394624710083,0.20904846489429474,0.05544402822852135
1776444102268524000,20.48752392578125,0.7411995530128479,0.12168990075588226,-0.17014841735363007
1776444102293542000,20.5125419921875,0.35160118341445923,0.010293632745742798,-0.2617809772491455
1776444102318559000,20.53755908203125,0.10591746866703033,-0.1882214993238449,-0.24653401970863342
1776444102343576800,20.562576904296876,0.29352280497550964,-0.34836408495903015,-0.20865176618099213
1776444102368594000,20.587593994140626,0.481056272983551,-0.5783542394638062,-0.10996036231517792
1776444102393611000,20.612611083984376,0.500126302242279,-0.7601595520973206,-0.002133045345544815
1776444102418628900,20.63762890625,0.6340357661247253,-0.7355639934539795,0.05664908513426781
1776444102443646000,20.66264599609375,0.7484681606292725,-0.6482104659080505,0.024028968065977097
1776444102468663800,20.687663818359376,0.7791157960891724,-0.4735125005245209,-0.006266510114073753
1776444102493681000,20.712680908203126,0.8615493178367615,-0.19330520927906036,-0.06415245682001114
1776444102518698000,20.737697998046876,0.973587691783905,-0.09719643741846085,-0.05399882420897484
1776444102543715800,20.7627158203125,1.1801761388778687,-0.058078087866306305,-0.007461094297468662
1776444102568733000,20.78773291015625,1.2527135610580444,-0.011302992701530457,-0.012271838262677193
1776444102593751000,20.8127509765625,1.2258884906768799,0.019075138494372368,-0.011645691469311714
1776444102618768000,20.837767822265626,1.4542593955993652,0.11871185898780823,0.02087334170937538
1776444102643785000,20.862784912109376,1.6554032564163208,0.1985693871974945,0.1133415475487709
1776444102668803000,20.887802978515627,1.6401543617248535,0.09530632942914963,0.20140759646892548
1776444102693820000,20.91281982421875,1.6322201490402222,0.0014829151332378387,0.2294567972421646
1776444102718838000,20.937838134765624,1.695143461227417,0.05225258320569992,0.22342903912067413
1776444102743855000,20.962855224609374,1.6870228052139282,-0.0529782809317112,0.20513935387134552
1776444102768872000,20.987871826171876,1.6457245349884033,-0.23749762773513794,0.18895605206489563
1776444102793890000,21.01289013671875,1.7805606126785278,-0.3480972945690155,0.1758265197277069
1776444102818907100,21.0379072265625,1.829054832458496,-0.277997761964798,0.1389317363500595
1776444102843925000,21.062925048828124,1.869181513786316,-0.3026498854160309,0.17479924857616425
1776444102868942000,21.087942138671874,1.8861298561096191,-0.28746137022972107,0.15615689754486084
1776444102893960000,21.1129599609375,2.0022950172424316,-0.047313909977674484,0.10143114626407623
1776444102918977000,21.13797705078125,2.040888547897339,0.36539894342422485,-0.04927576333284378
1776444102943993900,21.162993896484377,1.0630319118499756,0.17766587436199188,0.17560860514640808
1776444102969012700,21.1880126953125,0.6023926138877869,0.40035122632980347,0.2780785858631134
1776444102994029800,21.21302978515625,0.6719704866409302,0.10351985692977905,0.21222493052482605
1776444103019046700,21.238046630859376,0.8314012289047241,0.17915575206279755,0.2850954234600067
1776444103044064800,21.263064697265627,0.8009318113327026,0.18462273478507996,0.386640340089798
1776444103069081600,21.28808154296875,0.9180720448493958,0.25321194529533386,0.401483416557312
1776444103094099700,21.313099609375,0.965220034122467,0.28065773844718933,0.3745855987071991
1776444103119116500,21.338116455078126,1.0162291526794434,0.3837152421474457,0.1943986415863037
1776444103144133600,21.363133544921876,1.0130330324172974,0.41545048356056213,-0.04165424779057503
1776444103169151500,21.3881513671875,1.0490258932113647,0.31084144115448,-0.13438251614570618
1776444103194168600,21.41316845703125,1.1682735681533813,0.10019315779209137,-0.11055309325456619
1776444103219186400,21.4381865234375,1.259216070175171,-0.026611827313899994,-0.11272883415222168
1776444103244203500,21.46320361328125,1.353354811668396,-0.05438317731022835,-0.2045138031244278
1776444103269220600,21.488220703125,1.3543238639831543,-0.03400569409132004,-0.216079980134964
1776444103294238500,21.513238525390626,1.4053295850753784,0.013713706284761429,-0.18679416179656982
1776444103319255600,21.538255615234377,1.6206140518188477,0.05293811112642288,-0.14366114139556885
1776444103344273700,21.563273681640624,1.7151880264282227,0.13397355377674103,-0.12952156364917755
1776444103369290500,21.58829052734375,1.6178113222122192,0.24045886099338531,-0.07249213755130768
1776444103394307600,21.6133076171875,1.4736357927322388,0.21938668191432953,-0.03889254853129387
1776444103419325700,21.63832568359375,1.537615418434143,0.015525944530963898,0.029858607798814774
1776444103444342500,21.663342529296877,1.6310304403305054,-0.13567706942558289,0.06330881267786026
1776444103469360600,21.688360595703124,1.6083799600601196,-0.19951851665973663,0.15399853885173798
1776444103494377700,21.713377685546874,1.5340352058410645,-0.29116711020469666,0.22135980427265167
1776444103519394600,21.73839453125,1.458992600440979,-0.43376341462135315,0.22105330228805542
1776444103544412700,21.76341259765625,1.460830807685852,-0.5392091870307922,0.15174143016338348
1776444103569429800,21.7884296875,1.43454110622406,-0.5738800168037415,0.10931689292192459
1776444103594447600,21.813447509765624,1.31409752368927,-0.5289503335952759,0.08773450553417206
1776444103619464700,21.838464599609374,1.175892949104309,-0.4250200092792511,0.08884336799383163
1776444103644481500,21.8634814453125,1.169812798500061,-0.19149549305438995,0.06445669382810593
1776444103669499600,21.888499755859375,0.8008213043212891,0.5056560635566711,0.023356031626462936
1776444103694516700,21.913516845703125,0.7488893270492554,0.27756479382514954,-0.050363048911094666
1776444103719534600,21.93853466796875,0.5409950613975525,0.41612908244132996,-0.13144144415855408
1776444103744551700,21.9635517578125,0.2981405258178711,0.48456746339797974,-0.17573876678943634
1776444103769568800,21.98856884765625,0.03279499337077141,0.7044119238853455,-0.17545218765735626
1776444103794586600,22.013586669921875,0.003302590921521187,0.35418233275413513,-0.1752229928970337
1776444103819603700,22.038603759765625,0.06281016767024994,0.1803889125585556,-0.11229423433542252
1776444103844620800,22.063620849609375,-0.0832211971282959,0.09333387017250061,0.11857685446739197
1776444103869638700,22.088638671875,-0.003381311660632491,-0.036169618368148804,0.3432476818561554
1776444103894655700,22.11365576171875,0.02970683015882969,-0.06359824538230896,0.4536113440990448
1776444103919673600,22.138673583984374,0.06269624084234238,-0.13634148240089417,0.3861258924007416
1776444103944690700,22.163690673828125,0.280967116355896,-0.3035886585712433,0.2646273970603943
1776444103969707300,22.188707275390627,0.5617185831069946,-0.19599822163581848,0.1533612161874771
1776444103994725400,22.213725341796874,0.8758804202079773,0.23509424924850464,0.12714655697345734
1776444104019742200,22.2387421875,1.3959161043167114,0.4251556694507599,0.18841952085494995
1776444104044760600,22.263760498046874,1.897153615951538,0.5762544274330139,0.13665443658828735
1776444104069777200,22.288777099609376,2.3066213130950928,0.6049075722694397,0.04960542172193527
1776444104094794200,22.313794189453127,2.497058391571045,0.5975940823554993,-0.016699159517884254
1776444104119812400,22.338812255859374,2.5288519859313965,0.5659669637680054,-0.03698881343007088
1776444104144829200,22.3638291015625,2.54017972946167,0.5285412669181824,-0.10158955305814743
1776444104169846300,22.38884619140625,2.524447441101074,0.4372805953025818,-0.1516338288784027
1776444104194864400,22.413864501953125,2.3998539447784424,0.28550758957862854,-0.1982872039079666
1776444104219881200,22.438881103515627,2.3318943977355957,0.11265798658132553,-0.260908842086792
1776444104244899300,22.4638994140625,2.265176296234131,-0.05603174492716789,-0.3280142843723297
1776444104269916400,22.48891650390625,2.1984968185424805,-0.1417817324399948,-0.3923853933811188
1776444104294933200,22.513933349609374,2.0737385749816895,-0.2886101305484772,-0.41308388113975525
1776444104319951400,22.538951416015625,1.9423879384994507,-0.34735459089279175,-0.4397665560245514
1776444104344968200,22.56396826171875,1.954141616821289,-0.4265316128730774,-0.38748863339424133
1776444104369986300,22.588986328125,1.8287986516952515,-0.2743012309074402,-0.3514452874660492
1776444104395003400,22.61400341796875,1.717842936515808,-0.26885801553726196,-0.28341004252433777
1776444104420020200,22.639020263671874,1.5704585313796997,-0.08703599870204926,-0.2273353487253189
1776444104445038300,22.664038330078125,1.5310932397842407,-0.033732522279024124,-0.12578058242797852
1776444104470055400,22.689055419921875,1.579237699508667,0.005359388887882233,-0.11976217478513718
1776444104495072300,22.714072265625,1.4980379343032837,0.08830416202545166,-0.055103469640016556
1776444104520090400,22.73909033203125,1.6392873525619507,0.14090996980667114,-0.009444059804081917
1776444104545107500,22.764107421875,1.7419787645339966,0.18213866651058197,0.0219060517847538
1776444104570125300,22.789125244140624,1.7032690048217773,0.29878246784210205,-0.020929334685206413
1776444104595142400,22.814142333984375,1.5260580778121948,0.40830013155937195,-0.014507029205560684
1776444104620159500,22.839159423828125,1.4836345911026,0.5603029131889343,0.055897295475006104
1776444104645177300,22.86417724609375,1.423295259475708,0.6286665797233582,0.12831062078475952
1776444104670194400,22.8891943359375,1.3197530508041382,0.7214198708534241,0.16304853558540344
1776444104695211500,22.91421142578125,1.4423151016235352,0.7946411371231079,0.16094237565994263
1776444104720229400,22.9392294921875,1.3825088739395142,0.7308060526847839,0.24394769966602325
1776444104745246500,22.96424658203125,0.9533525109291077,0.7662075757980347,0.28590282797813416
1776444104770264300,22.989264404296875,0.5292924642562866,0.5541242957115173,0.2663297653198242
1776444104795281400,23.014281494140626,0.35023558139801025,0.42446860671043396,0.4350752532482147
1776444104820298500,23.039298583984376,0.5412969589233398,0.5461944341659546,0.3822788596153259
1776444104845316400,23.06431640625,0.6192402243614197,0.2786206901073456,0.26986241340637207
1776444104870333400,23.08933349609375,0.4881109595298767,0.401431679725647,0.1364537924528122
1776444104895350500,23.1143505859375,0.40318575501441956,0.5267118811607361,0.14330177009105682
1776444104920368400,23.139368408203126,0.3331519365310669,0.6156364679336548,0.21004238724708557
1776444104945385500,23.164385498046876,0.30713918805122375,0.5825648903846741,0.24851922690868378
1776444104970403000,23.189403076171875,0.45130765438079834,0.46255356073379517,0.2307998389005661
1776444104995420200,23.214420166015625,0.8901340365409851,0.24880661070346832,0.08292607963085175
1776444105020437200,23.239437255859375,1.1050361394882202,0.380554735660553,-0.1427069902420044
1776444105045455000,23.264455078125,1.0967096090316772,0.5549662709236145,-0.2639850378036499
1776444105070472200,23.28947216796875,0.8603113293647766,0.8266403079032898,-0.2696373760700226
1776444105095489300,23.3144892578125,0.6801869869232178,0.8958593606948853,-0.1977776139974594
1776444105120507100,23.339507080078125,0.6020558476448059,0.9366695284843445,-0.18488800525665283
1776444105145524200,23.364524169921875,0.6372911930084229,0.9350157976150513,-0.2570830285549164
1776444105170542300,23.389542236328126,0.5778583884239197,0.8120376467704773,-0.2634124755859375
1776444105195559200,23.41455908203125,0.38036099076271057,0.6153685450553894,-0.2012365162372589
1776444105220576300,23.439576171875,0.30086231231689453,0.3453767001628876,-0.1307835727930069
1776444105245594400,23.464594482421877,0.7498111724853516,-0.2018449753522873,-0.07229869812726974
1776444105270611200,23.489611083984375,0.8186377882957458,0.07331947982311249,-0.13282939791679382
1776444105295628300,23.514628173828125,0.8208796977996826,-0.05157151445746422,-0.08285186439752579
1776444105320646400,23.539646484375,0.7609217762947083,-0.22192102670669556,-0.05727430433034897
1776444105345663200,23.564663330078126,0.6506063938140869,-0.35109779238700867,-0.0368582047522068
1776444105370680300,23.589680419921876,0.36858442425727844,-0.38396283984184265,-0.012379201129078865
1776444105395698400,23.614698486328123,0.39875146746635437,-0.42962437868118286,-0.04835037514567375
1776444105420715300,23.63971533203125,0.7021611332893372,-0.464332640171051,-0.1777449995279312
1776444105445733400,23.6647333984375,1.0756213665008545,-0.4706789553165436,-0.30900344252586365
1776444105470750200,23.689750244140626,1.3906828165054321,-0.5110957622528076,-0.37090110778808594
1776444105495767300,23.714767333984376,1.2462691068649292,-0.3844338059425354,-0.4294699430465698
1776444105520785400,23.739785400390623,0.8333006501197815,-0.22194719314575195,-0.4426005482673645
1776444105545802200,23.76480224609375,0.5028872489929199,-0.251547247171402,-0.36466458439826965
1776444105570819300,23.7898193359375,0.29992154240608215,-0.31053662300109863,-0.25429844856262207
1776444105595837400,23.81483740234375,0.3646872043609619,-0.37664321064949036,-0.1700832098722458
1776444105620854300,23.839854248046876,0.39960676431655884,-0.36971160769462585,-0.17960461974143982
1776444105645871400,23.864871337890627,0.17079105973243713,-0.34382686018943787,-0.1466156244277954
1776444105670889500,23.889889404296873,-0.1764599233865738,-0.24543431401252747,-0.07606828957796097
1776444105695906300,23.91490625,-0.17013432085514069,-0.14985251426696777,-0.019727014005184174
1776444105720923100,23.939923095703126,0.03903094306588173,-0.0805545225739479,-0.01905885525047779
1776444105745941500,23.96494140625,0.12759071588516235,-0.0267854705452919,0.00003181677311658859
1776444105770958000,23.9899580078125,-0.09045040607452393,0.027145162224769592,0.0910080298781395
1776444105795976400,24.0149765625,-0.31999969482421875,0.029885288327932358,0.20390023291110992
1776444105820993300,24.0399931640625,-0.3932151198387146,0.03323774412274361,0.25290465354919434
1776444105846010000,24.065010009765626,-0.33926430344581604,-0.00603024335578084,0.2805095314979553
1776444105871028200,24.0900283203125,-0.2646017372608185,0.02327032759785652,0.2779980003833771
1776444105896045300,24.11504541015625,-0.36329999566078186,0.14781554043293,0.2676820755004883
1776444105921062100,24.140062255859377,-0.5819047689437866,0.24384461343288422,0.32640478014945984
1776444105946080300,24.165080322265624,-0.6151384711265564,0.22132965922355652,0.40113529562950134
1776444105971096800,24.190096923828126,-0.49092909693717957,0.13588228821754456,0.42497989535331726
1776444105996113700,24.21511376953125,-0.5014609098434448,0.10031397640705109,0.3829353451728821
1776444106021131800,24.2401318359375,-0.8793470859527588,0.07064686715602875,0.37777474522590637
1776444106046148900,24.26514892578125,-1.2581278085708618,-0.04678359627723694,0.3704182505607605
1776444106071165700,24.290165771484375,-1.4575399160385132,-0.27187496423721313,0.36223605275154114
1776444106096183800,24.315183837890626,-1.6246439218521118,-0.44530752301216125,0.29447048902511597
1776444106121201000,24.340200927734376,-1.763924241065979,-0.621483564376831,0.19126006960868835
1776444106146217700,24.3652177734375,-1.769599437713623,-0.8788411617279053,0.04618189111351967
1776444106171235800,24.39023583984375,-1.6916958093643188,-1.1199508905410767,-0.10813502222299576
1776444106196253000,24.4152529296875,-1.700579285621643,-1.2624684572219849,-0.22433166205883026
1776444106221270800,24.440270751953125,-1.8455390930175781,-1.3510723114013672,-0.299001544713974
1776444106246288000,24.465287841796876,-1.809867024421692,-1.5118645429611206,-0.3686577379703522
1776444106271305000,24.490304931640626,-1.6027543544769287,-1.6611326932907104,-0.4453573226928711
1776444106296322800,24.51532275390625,-1.409590244293213,-1.806347370147705,-0.5003853440284729
1776444106321340000,24.54033984375,-1.4176057577133179,-1.9552785158157349,-0.5443001389503479
1776444106346357000,24.56535693359375,-1.360943078994751,-1.7771605253219604,-0.6103852391242981
1776444106371374800,24.590374755859376,-1.0507700443267822,-1.8207014799118042,-0.694335401058197
1776444106396392000,24.615391845703126,-0.7915520668029785,-1.7807358503341675,-0.7288655042648315
1776444106421408800,24.64040869140625,-0.8700045943260193,-1.3908873796463013,-0.7200354337692261
1776444106446427000,24.665427001953127,-0.6521033048629761,-1.5009440183639526,-0.7302067279815674
1776444106471444000,24.69044384765625,-0.6251445412635803,-1.5700114965438843,-0.7075939178466797
1776444106496460800,24.715460693359375,-0.5590665936470032,-1.68997061252594,-0.6028835773468018
1776444106521479000,24.74047900390625,-0.5498101115226746,-1.7288624048233032,-0.47772541642189026
1776444106546496000,24.76549609375,-0.8218826055526733,-1.5484082698822021,-0.3237246572971344
1776444106571512800,24.790512939453127,-0.6916476488113403,-1.709374189376831,-0.22376316785812378
1776444106596531000,24.815531005859373,-0.40735146403312683,-1.8540759086608887,-0.1591518223285675
1776444106621548000,24.840548095703124,-0.41915133595466614,-1.823809266090393,-0.10930574685335159
1776444106646564900,24.86556494140625,-0.3851124048233032,-1.7332029342651367,-0.05281145125627518
1776444106671583000,24.8905830078125,-0.1892966330051422,-1.654291033744812,0.01905476301908493
1776444106696600000,24.91560009765625,-0.19174309074878693,-1.2058744430541992,0.09212280809879303
1776444106721618000,24.940617919921873,-0.05656886845827103,-1.3275798559188843,0.11195221543312073
1776444106746635000,24.965635009765624,-0.02083747833967209,-1.1021853685379028,0.1325494647026062
1776444106771652000,24.990652099609374,0.10578014701604843,-0.9306831955909729,0.14505845308303833
1776444106796670000,25.015669921875,0.16100966930389404,-0.748544454574585,0.20344573259353638
1776444106821687000,25.04068701171875,0.16729843616485596,-0.6675238609313965,0.30469709634780884
1776444106846703900,25.065703857421877,0.24734564125537872,-0.67970871925354,0.37532779574394226
1776444106871722000,25.090721923828124,0.3305853605270386,-0.704393744468689,0.3892311751842499
1776444106896738800,25.11573876953125,0.33665406703948975,-0.7239453196525574,0.38037779927253723
1776444106921756000,25.140755859375,0.3227623403072357,-0.7461851239204407,0.372712105512619
1776444106946773800,25.165773681640626,0.2759511172771454,-0.8114005327224731,0.3690163195133209
1776444106971791600,25.19079150390625,0.3398064076900482,-0.9218842387199402,0.3058326244354248
1776444106996808200,25.21580810546875,0.41636183857917786,-0.9695829153060913,0.238364115357399
1776444107021826600,25.24082666015625,0.2456362396478653,-0.8513101935386658,0.23326599597930908
1776444107046843400,25.265843505859376,0.3254460394382477,-1.0255699157714844,0.3058626353740692
1776444107071860200,25.290860107421874,0.3307845890522003,-0.9713189005851746,0.38896194100379944
1776444107096878300,25.31587841796875,0.31304648518562317,-0.8016085028648376,0.43723052740097046
1776444107121895400,25.3408955078125,0.2982477843761444,-0.4968474209308624,0.47667601704597473
1776444107146912300,25.365912353515625,0.41586339473724365,-0.45341265201568604,0.5580905079841614
1776444107171930400,25.390930419921876,0.4333650767803192,-0.32420334219932556,0.5992772579193115
1776444107196947500,25.415947509765626,0.4239332377910614,-0.2955116033554077,0.5928749442100525
1776444107221964300,25.44096435546875,0.4280342757701874,-0.3127010464668274,0.580198347568512
1776444107246982400,25.465982421875,0.4776565730571747,-0.4038946330547333,0.5678858160972595
1776444107271999200,25.490999267578125,0.5685985684394836,-0.5388210415840149,0.5258554220199585
1776444107297016300,25.516016357421876,0.644523561000824,-0.6546258926391602,0.4825595021247864
1776444107322034400,25.541034423828126,0.7222219109535217,-0.7049396634101868,0.4336414337158203
1776444107347051300,25.56605126953125,0.6139090061187744,-0.6326091885566711,0.40534549951553345
1776444107372068400,25.591068359375,0.5130943059921265,-0.4901115298271179,0.3686297833919525
1776444107397086500,25.61608642578125,0.38493144512176514,-0.1896529495716095,0.26040586829185486
1776444107422103300,25.641103271484376,0.4398832321166992,-0.46655136346817017,0.15070199966430664
1776444107447120400,25.666120361328126,0.343966543674469,-0.5146405100822449,0.17031525075435638
1776444107472138500,25.691138427734376,0.20265986025333405,-0.4187890887260437,0.279238760471344
1776444107497155300,25.7161552734375,0.15531806647777557,-0.4703759551048279,0.28426429629325867
1776444107522172400,25.74117236328125,-0.0047496105544269085,-0.35923367738723755,0.3538404703140259
1776444107547190500,25.7661904296875,-0.02002624422311783,-0.4278869032859802,0.6200010180473328
1776444107572207400,25.791207275390626,-0.026581889018416405,-0.3125496506690979,0.6431345343589783
1776444107597224400,25.816224365234376,0.07445318251848221,-0.16638804972171783,0.5076534152030945
1776444107622242600,25.84124267578125,0.14566859602928162,0.02140936814248562,0.4271429479122162
1776444107647259400,25.86625927734375,0.19228456914424896,0.19149534404277802,0.38068705797195435
1776444107672276500,25.8912763671875,0.23017016053199768,0.24205893278121948,0.4428207278251648
1776444107697294600,25.916294677734374,0.22747327387332916,0.12077198922634125,0.5240921974182129
1776444107722311400,25.9413115234375,0.27130261063575745,0.022945920005440712,0.6527096629142761
1776444107747328500,25.96632861328125,0.17981663346290588,-0.10923448204994202,0.8398659825325012
1776444107772346600,25.9913466796875,0.1947573721408844,-0.32804805040359497,1.046073317527771
1776444107797363500,26.016363525390624,0.36213937401771545,-0.4915897250175476,1.2152849435806274
1776444107822380300,26.04138037109375,0.30867674946784973,-0.541887640953064,1.4790606498718262
1776444107847398400,26.0663984375,0.25011056661605835,-0.5611269474029541,1.7133519649505615
1776444107872415200,26.091415283203126,0.20799806714057922,-0.5901648998260498,1.748194932937622
1776444107897432300,26.116432373046877,0.27410608530044556,-0.618925929069519,1.6883410215377808
1776444107922450400,26.141450439453124,0.38482043147087097,-0.6242058277130127,1.74515962600708
1776444107947467300,26.16646728515625,0.4639093577861786,-0.7017024159431458,1.7999809980392456
1776444107972484000,26.191484130859376,0.5642495155334473,-0.7238014936447144,1.7988487482070923
1776444107997502200,26.216502197265626,0.6541727185249329,-0.6601479053497314,1.7536348104476929
1776444108022519000,26.24151904296875,0.6748608946800232,-0.7240291237831116,1.7850871086120605
1776444108047536000,26.2665361328125,0.6537862420082092,-0.7920262217521667,1.8847770690917969
1776444108072554000,26.291553955078125,0.494592547416687,-0.7347241640090942,1.8927258253097534
1776444108097571000,26.316571044921876,0.47593995928764343,-0.44028204679489136,1.8244320154190063
1776444108122588200,26.341588134765626,0.1709870547056198,-0.48528537154197693,1.958747386932373
1776444108147606000,26.36660595703125,0.022530747577548027,-0.46673163771629333,1.9904059171676636
1776444108172623000,26.391623046875,-0.10994239896535873,-0.44274526834487915,2.006855010986328
1776444108197640200,26.41664013671875,-0.04574596509337425,-0.2959635555744171,2.01977801322937
1776444108222658000,26.441657958984376,-0.017884615808725357,-0.09038912504911423,1.9325480461120605
1776444108247675100,26.466675048828126,0.08809898793697357,-0.08854124695062637,1.858628511428833
1776444108272692200,26.491692138671876,0.3336625099182129,0.12100913375616074,1.8753939867019653
1776444108297710000,26.5167099609375,0.31125032901763916,0.161670982837677,1.8870173692703247
1776444108322727200,26.54172705078125,0.3880736529827118,0.22380217909812927,1.9032167196273804
1776444108347744300,26.566744140625,0.39736589789390564,0.21983999013900757,1.947452187538147
1776444108372761300,26.59176123046875,0.44661712646484375,0.2486579865217209,1.96159827709198
1776444108397779200,26.616779296875,0.5087378025054932,0.2162892371416092,1.9481335878372192
1776444108422796300,26.64179638671875,0.5519763231277466,0.05267079919576645,1.9540148973464966
1776444108447813400,26.6668134765625,0.5099112391471863,-0.11676152795553207,1.9629720449447632
1776444108472831200,26.691831298828124,0.434472918510437,-0.198921799659729,1.9749839305877686
1776444108497848300,26.716848388671874,0.4263733923435211,-0.2523479163646698,1.8882503509521484
1776444108522865200,26.741865234375,0.4670075476169586,-0.29498597979545593,1.7151623964309692
1776444108547883300,26.76688330078125,0.3811924159526825,-0.306461364030838,1.5849074125289917
1776444108572900000,26.791900146484377,0.24223777651786804,-0.32921552658081055,1.4412761926651
1776444108597917200,26.816917236328123,0.21917054057121277,-0.3623915910720825,1.2425729036331177
1776444108622935000,26.84193505859375,0.20857365429401398,-0.38237881660461426,1.1145002841949463
1776444108647952100,26.8669521484375,0.11496178060770035,-0.3778713643550873,1.0694628953933716
1776444108672969200,26.89196923828125,0.03807399049401283,-0.33060920238494873,1.0012511014938354
1776444108697987000,26.916987060546877,-0.01903374120593071,-0.32181814312934875,0.8831581473350525
1776444108723004200,26.942004150390623,-0.009860520251095295,-0.4294409453868866,0.8212205767631531
1776444108748021200,26.967021240234374,0.022609665989875793,-0.569171667098999,0.9082635641098022
1776444108773039000,26.9920390625,0.06743469089269638,-0.6622660160064697,1.0106154680252075
1776444108798056200,27.01705615234375,0.24705128371715546,-0.6182547807693481,0.9231599569320679
1776444108823073000,27.042072998046876,0.3019159734249115,-0.5225446820259094,0.7407468557357788
1776444108848091100,27.067091064453123,0.2777409255504608,-0.2990339398384094,0.5268792510032654
1776444108873108200,27.092108154296874,0.3960230052471161,-0.14121803641319275,0.44237226247787476
1776444108898125000,27.117125,0.48957523703575134,0.0649198591709137,0.41592565178871155
1776444108923143200,27.14214306640625,0.4012708365917206,0.2526180148124695,0.35800662636756897
1776444108948160300,27.16716015625,0.31272199749946594,0.3989540636539459,0.28427278995513916
1776444108973176800,27.1921767578125,0.2916843891143799,0.5206543803215027,0.2803220748901367
1776444108998194000,27.21719384765625,0.27486711740493774,0.5728788375854492,0.2567043900489807
1776444109023212000,27.2422119140625,0.27574393153190613,0.5198233723640442,0.28693053126335144
1776444109048228900,27.267228759765626,0.24761605262756348,0.37442323565483093,0.2538313567638397
1776444109073246000,27.292245849609376,0.23973558843135834,0.17910470068454742,0.17791935801506042
1776444109098264000,27.31726416015625,0.2588489055633545,0.18406258523464203,0.17727988958358765
1776444109123281000,27.342281005859373,0.22063228487968445,0.20001594722270966,0.2148098200559616
1776444109148298000,27.367298095703124,0.11668500304222107,0.21943514049053192,0.25223129987716675
1776444109173316000,27.392316162109374,0.14942704141139984,0.12786617875099182,0.2517560124397278
1776444109198333000,27.4173330078125,0.17923665046691895,-0.05322859063744545,0.3134056329727173
1776444109223349800,27.442349853515626,0.2520078420639038,-0.20360276103019714,0.3050805628299713
1776444109248368000,27.4673681640625,0.255561500787735,-0.20377705991268158,0.2758580148220062
1776444109273384700,27.492384765625,0.1623343676328659,-0.18138310313224792,0.2699681222438812
1776444109298401800,27.51740185546875,0.4186263978481293,-0.21841399371623993,0.25793689489364624
1776444109323420000,27.542419921875,0.49172818660736084,-0.2594732642173767,0.5646398663520813
1776444109348436700,27.567436767578126,0.5095168948173523,-0.2682565748691559,0.7504503726959229
1776444109373453800,27.592453857421877,0.4609171152114868,-0.175974041223526,0.9954278469085693
1776444109398471000,27.617470947265623,0.48488813638687134,-0.09550374746322632,1.0995628833770752
1776444109423488800,27.64248876953125,0.38040393590927124,-0.08290441334247589,1.1893893480300903
1776444109448505900,27.667505859375,0.24537447094917297,-0.1522890329360962,1.1948033571243286
1776444109473523000,27.69252294921875,0.07992283999919891,-0.21733228862285614,1.1112651824951172
1776444109498540800,27.717540771484376,-0.022371599450707436,-0.22370891273021698,1.2086893320083618
1776444109523558000,27.742557861328127,0.024714913219213486,-0.2427794635295868,1.2597253322601318
1776444109548575000,27.767574951171873,0.0829811617732048,-0.2616250813007355,1.236383080482483
1776444109573592800,27.7925927734375,0.18244048953056335,-0.25036680698394775,1.277228593826294
1776444109598610000,27.81760986328125,0.16945523023605347,-0.2487703412771225,1.2781426906585693
1776444109623627000,27.842626953125,0.07025246322154999,-0.21431779861450195,1.292191982269287
1776444109648644000,27.86764404296875,0.047636982053518295,-0.16785962879657745,1.3772337436676025
1776444109673662000,27.892661865234373,-0.042730432003736496,-0.19394297897815704,1.4101297855377197
1776444109698679000,27.917678955078124,-0.16957120597362518,-0.30639973282814026,1.3696616888046265
1776444109723695900,27.94269580078125,-0.3108690679073334,-0.4121253788471222,1.4447799921035767
1776444109748714000,27.9677138671875,-0.3918386697769165,-0.4969080984592438,1.4823346138000488
1776444109773731000,27.99273095703125,-0.3976026475429535,-0.5831426382064819,1.430571436882019
1776444109798748000,28.017747802734377,-0.3258023262023926,-0.5853461623191833,1.3185408115386963
1776444109823766000,28.04276611328125,-0.2746618688106537,-0.5381606817245483,1.2250326871871948
1776444109848783000,28.067783203125,-0.28259825706481934,-0.4336185157299042,1.2588675022125244
1776444109873799700,28.092799560546876,-0.25527358055114746,-0.36781439185142517,1.246788501739502
1776444109898816800,28.117816650390626,-0.19313734769821167,-0.31572672724723816,1.2323483228683472
1776444109923835000,28.1428349609375,-0.17580252885818481,-0.26498210430145264,1.3016719818115234
1776444109948851700,28.167851806640623,-0.20184069871902466,-0.24649518728256226,1.3981746435165405
1776444109973868800,28.192868896484374,-0.2491292804479599,-0.20549683272838593,1.4758037328720093
1776444109998887000,28.217886962890624,-0.09552669525146484,-0.06476149708032608,1.4325695037841797
1776444110023903700,28.24290380859375,0.20947395265102386,0.06827060878276825,1.2642958164215088
1776444110048920800,28.2679208984375,0.36730751395225525,0.14938706159591675,1.180859088897705
1776444110073939000,28.29293896484375,0.23924016952514648,0.19235673546791077,1.2439756393432617
1776444110098955800,28.317955810546874,0.04210539534687996,0.19440443813800812,1.3452820777893066
1776444110123972900,28.342972900390624,-0.05916683003306389,0.20608572661876678,1.393979787826538
1776444110148991000,28.367990966796874,-0.04333837330341339,0.2790021002292633,1.4251304864883423
1776444110174007800,28.3930078125,0.015569234266877174,0.3395734131336212,1.488637924194336
1776444110199025000,28.41802490234375,-0.11908728629350662,0.3778660297393799,1.6156084537506104
1776444110224042000,28.4430419921875,-0.35490918159484863,0.3579384982585907,1.6385972499847412
1776444110249059800,28.468059814453124,-0.45536157488822937,0.4240127205848694,1.532727837562561
1776444110274077000,28.493076904296874,-0.2808179259300232,0.5296252965927124,1.3777984380722046
1776444110299094000,28.518093994140624,-0.246114119887352,0.48089393973350525,1.1894649267196655
1776444110324112000,28.54311181640625,-0.35626310110092163,0.35072362422943115,1.1069332361221313
1776444110349129000,28.56812890625,-0.18349403142929077,0.41404488682746887,1.0489778518676758
1776444110374146000,28.59314599609375,-0.043990232050418854,0.3976942300796509,1.0106661319732666
1776444110399163000,28.618162841796874,-0.009160137735307217,0.183344766497612,0.9057929515838623
1776444110424181000,28.643180908203124,-0.1373499482870102,-0.015429815277457237,0.875720202922821
1776444110449197800,28.66819775390625,-0.18181298673152924,-0.10507481545209885,0.8566813468933105
1776444110474215000,28.69321484375,0.06141427904367447,-0.1483098268508911,0.73316890001297
1776444110499232800,28.718232666015624,0.09000414609909058,-0.31216591596603394,0.6861906051635742
1776444110524249900,28.743249755859374,-0.057519763708114624,-0.482940673828125,0.718177080154419
1776444110549266700,28.7682666015625,-0.34040695428848267,-0.6351023316383362,0.7927697896957397
1776444110574283800,28.79328369140625,-0.2810547649860382,-0.8109776377677917,1.0405926704406738
1776444110599302000,28.818302001953125,-0.242991641163826,-0.8047757148742676,1.3068885803222656
1776444110624318700,28.843318603515623,-0.1251884400844574,-0.7922393679618835,1.5672563314437866
1776444110649335800,28.868335693359374,-0.0001016620226437226,-0.5932087302207947,1.7002160549163818
1776444110674354000,28.89335400390625,-0.016198813915252686,-0.280563086271286,1.7784546613693237
1776444110699370800,28.918370849609374,0.022493550553917885,-0.055082231760025024,1.8652337789535522
1776444110724387800,28.943387939453125,0.15988168120384216,0.25857120752334595,1.8385157585144043
1776444110749406000,28.968406005859375,0.36287644505500793,0.49510982632637024,1.5100642442703247
1776444110774422800,28.9934228515625,0.562655508518219,0.6479639410972595,1.3726177215576172
1776444110799440000,29.01843994140625,0.9055421352386475,0.6850490570068359,1.4249430894851685
1776444110824458000,29.0434580078125,1.1717591285705566,0.6501957774162292,1.4297499656677246
1776444110849474800,29.068474853515625,1.268615961074829,0.5366887450218201,1.367012858390808
1776444110874492000,29.093491943359375,1.3282428979873657,0.3712141215801239,1.2809191942214966
1776444110899509000,29.118509033203125,1.1824464797973633,0.2417176067829132,1.3366934061050415
1776444110924526800,29.14352685546875,0.7051149010658264,0.17080700397491455,1.4990674257278442
1776444110949544000,29.1685439453125,0.2917611300945282,0.04318754002451897,1.5443214178085327
1776444110974565000,29.193565185546873,0.043886709958314896,-0.1924041211605072,1.5419118404388428
1776444110999583000,29.2185830078125,-0.0617331936955452,-0.38343772292137146,1.556149959564209
1776444111024600000,29.24360009765625,-0.2480158507823944,-0.42530953884124756,1.544922947883606
1776444111049617200,29.2686171875,-0.4166591465473175,-0.37483739852905273,1.5535964965820312
1776444111074634000,29.293634033203126,-0.3690367341041565,-0.27647334337234497,1.6039154529571533
1776444111099652000,29.318652099609373,-0.18437202274799347,-0.11373193562030792,1.63392972946167
1776444111124669200,29.343669189453124,-0.07103247195482254,0.03578177094459534,1.6241933107376099
1776444111149686000,29.36868603515625,0.004217543639242649,0.15351319313049316,1.6100494861602783
1776444111174702800,29.393702880859376,0.12691038846969604,0.21527144312858582,1.5941383838653564
1776444111199721200,29.41872119140625,0.2244083732366562,0.2058224380016327,1.583532691001892
1776444111224737800,29.44373779296875,0.25378239154815674,0.187410369515419,1.5172501802444458
1776444111249755000,29.4687548828125,0.2886825501918793,0.17956343293190002,1.413711667060852
1776444111274773000,29.49377294921875,0.24134521186351776,0.1608700156211853,1.3695106506347656
1776444111299789800,29.518789794921876,0.16284580528736115,0.12307167798280716,1.3667902946472168
1776444111324807000,29.543806884765626,0.159952774643898,0.12291086465120316,1.3005650043487549
1776444111349824000,29.568823974609376,0.19491033256053925,0.09404201805591583,1.2724742889404297
1776444111374841900,29.593841796875,0.20667576789855957,0.09439648687839508,1.1796208620071411
1776444111399859000,29.61885888671875,0.21088367700576782,0.0845436155796051,1.0650616884231567
1776444111424876000,29.6438759765625,0.2003934532403946,0.03548930585384369,0.987280547618866
1776444111449893000,29.66889306640625,0.10554789006710052,-0.008687957189977169,0.9415701627731323
1776444111474911000,29.693910888671876,0.08915770053863525,-0.012590516358613968,0.8557271957397461
1776444111499928000,29.718927978515627,0.2107781320810318,-0.0591803602874279,0.8276586532592773
1776444111524945000,29.74394482421875,0.18239159882068634,-0.13699838519096375,0.8926580548286438
1776444111549963000,29.768962890625,0.11310479044914246,-0.2202269434928894,0.9237054586410522
1776444111574980000,29.79397998046875,-0.02051421068608761,-0.2235083132982254,0.9388555288314819
1776444111599997000,29.818996826171876,-0.21094763278961182,-0.2901209890842438,1.000138521194458
1776444111625014000,29.844013916015626,-0.20470522344112396,-0.3909790515899658,0.950753927230835
1776444111650032000,29.8690322265625,-0.10332490503787994,-0.33359307050704956,0.8798893690109253
1776444111675049000,29.894049072265624,-0.05392540618777275,-0.24100613594055176,0.8714289665222168
1776444111700066000,29.919066162109374,0.01335816364735365,-0.1554153561592102,0.8021305799484253
1776444111725083000,29.944082763671876,0.1164172813296318,-0.10026334971189499,0.7678496837615967
1776444111750101000,29.96910107421875,0.24844640493392944,-0.022096889093518257,0.6642364859580994
1776444111775117800,29.994117919921877,0.3053409159183502,0.0771523043513298,0.5516083836555481
1776444111800135000,30.019135009765623,0.26643750071525574,0.2038944959640503,0.4720008075237274
1776444111825152800,30.04415283203125,0.20404969155788422,0.338379442691803,0.5047040581703186
1776444111850169900,30.069169921875,0.18858467042446136,0.36556029319763184,0.6154231429100037
1776444111875187000,30.09418701171875,0.07214589416980743,0.3422792851924896,0.7315050363540649
1776444111900204000,30.1192041015625,0.02428431436419487,0.31318995356559753,0.671465277671814
1776444111925222000,30.144221923828123,-0.10223431140184402,0.07189205288887024,0.5615779757499695
1776444111950239000,30.169239013671874,-0.21473266184329987,-0.030300317332148552,0.41060417890548706
1776444111975254300,30.194254150390623,-0.4120790660381317,-0.11690327525138855,0.5600454807281494
1776444112000271400,30.219271240234374,-0.4796465039253235,-0.1621246039867401,0.6544212102890015
1776444112025289200,30.244289306640624,-0.40283966064453125,-0.10541220754384995,0.6815937161445618
1776444112050306300,30.269306396484374,-0.2560064196586609,-0.0965193659067154,0.6767622232437134
1776444112075323400,30.294323486328125,-0.19117185473442078,0.012114892713725567,0.6924920082092285
1776444112100341200,30.31934130859375,-0.1811380237340927,0.24874936044216156,0.7157923579216003
1776444112125358300,30.3443583984375,0.11789661645889282,0.368401437997818,0.7345353960990906
1776444112150375400,30.36937548828125,0.1918100118637085,0.5265768766403198,0.7076641321182251
1776444112175392500,30.394392578125,0.2697819471359253,0.6129209995269775,0.7843835949897766
1776444112200410400,30.419410400390625,0.28440961241722107,0.7242342829704285,0.8405905365943909
1776444112225427500,30.444427490234375,0.06906788051128387,0.6252527832984924,0.9440146684646606
1776444112250444300,30.4694443359375,0.02410845458507538,0.5431479811668396,1.0673545598983765
1776444112275461400,30.49446142578125,0.3123517632484436,0.5236402153968811,1.1334620714187622
1776444112300479500,30.5194794921875,0.33325061202049255,0.4417789578437805,1.1965405941009521
1776444112325496300,30.544496337890624,0.24424365162849426,0.4021736979484558,1.2664523124694824
1776444112350513400,30.569513427734375,0.32025930285453796,0.3793067932128906,1.3807458877563477
1776444112375530500,30.594530517578125,0.38103482127189636,0.32377785444259644,1.4842243194580078
1776444112400548400,30.61954833984375,0.5015577673912048,0.26974961161613464,1.5079962015151978
1776444112425565400,30.6445654296875,0.4224967658519745,0.06076497212052345,1.5359630584716797
1776444112450582500,30.66958251953125,0.2097802609205246,-0.1132124662399292,1.5650396347045898
1776444112475600400,30.694600341796875,0.34291279315948486,-0.17054380476474762,1.6089732646942139
1776444112500617500,30.719617431640625,0.6248511672019958,-0.08684729039669037,1.6397106647491455
1776444112525634300,30.74463427734375,0.747331976890564,-0.11409640312194824,1.6663419008255005
1776444112550651400,30.7696513671875,0.5267707109451294,-0.23808947205543518,1.6943076848983765
1776444112575669500,30.79466943359375,0.6402561068534851,-0.28228211402893066,1.694979190826416
1776444112600686300,30.819686279296874,0.7783626317977905,-0.32027196884155273,1.7103724479675293
1776444112625703400,30.844703369140625,0.5420448780059814,-0.3561333119869232,1.6786770820617676
1776444112650720300,30.86972021484375,0.6723634600639343,-0.27759525179862976,1.6185283660888672
1776444112675738400,30.89473828125,0.5667624473571777,-0.23497116565704346,1.6107712984085083
1776444112700755500,30.91975537109375,0.46312934160232544,-0.26124438643455505,1.5324103832244873
1776444112725772300,30.944772216796874,0.7294295430183411,-0.134714275598526,1.3846458196640015
1776444112750789400,30.969789306640624,0.7672103643417358,-0.14535419642925262,1.3644064664840698
