time,seconds_elapsed,z,y,x
1776444081845421000,0.064421142578125,-1.0050048828125,0.104034423828125,0.0929107666015625
1776444081870439200,0.089439208984375,-1.01629638671875,0.085113525390625,0.0595703125
1776444081895457000,0.11445703125,-1.06427001953125,0.0210418701171875,0.0193634033203125
1776444081920474000,0.13947412109375,-1.0821990966796875,0.0363006591796875,0.01971435546875
1776444081945492200,0.1644921875,-1.0054779052734375,0.078704833984375,0.0435943603515625
1776444081970510300,0.18951025390625,-1.02520751953125,0.0894317626953125,0.0606231689453125
1776444081995528200,0.214528076171875,-1.036376953125,0.0504150390625,0.0445709228515625
1776444082020545300,0.239545166015625,-1.0252685546875,-0.0131683349609375,0.0230865478515625
1776444082045563100,0.264563232421875,-1.0003662109375,-0.022857666015625,-0.0111541748046875
1776444082070581200,0.289581298828125,-0.9617767333984375,-0.0081939697265625,-0.009765625
1776444082095599000,0.31459912109375,-0.9580841064453125,0.0377960205078125,0.0896148681640625
1776444082120616200,0.3396162109375,-0.9341583251953125,0.0875091552734375,0.1500091552734375
1776444082145634000,0.364634033203125,-0.9334259033203125,0.085723876953125,0.0964202880859375
1776444082170652200,0.389652099609375,-0.9662322998046875,0.0847625732421875,0.0040740966796875
1776444082195669200,0.414669189453125,-0.9374542236328125,0.1538543701171875,0.0644073486328125
1776444082220687000,0.43968701171875,-0.95263671875,0.2198028564453125,0.0450897216796875
1776444082245705200,0.464705322265625,-0.965789794921875,0.22747802734375,0.053680419921875
1776444082270723000,0.48972314453125,-0.9775543212890625,0.220977783203125,0.0269317626953125
1776444082295740200,0.514740234375,-0.852264404296875,0.269744873046875,-0.0333404541015625
1776444082320758000,0.539758056640625,-0.852294921875,0.1549224853515625,0.0711822509765625
1776444082345776000,0.564776123046875,-0.9487152099609375,-0.0192108154296875,0.12225341796875
1776444082370794000,0.5897939453125,-1.03302001953125,-0.146392822265625,-0.010589599609375
1776444082395811000,0.61481103515625,-1.014007568359375,-0.14520263671875,-0.14959716796875
1776444082420829200,0.6398291015625,-1.0151519775390625,-0.1160736083984375,0.0659637451171875
1776444082445847300,0.664847412109375,-1.1647186279296875,-0.1771392822265625,0.0435943603515625
1776444082470865200,0.689865234375,-1.1602935791015625,-0.121337890625,0.0330047607421875
1776444082495882200,0.71488232421875,-1.0271759033203125,0.0396881103515625,0.074920654296875
1776444082520900400,0.739900390625,-1.005828857421875,0.0676422119140625,0.1195068359375
1776444082545918200,0.764918212890625,-1.03179931640625,0.038787841796875,0.1160888671875
1776444082570936300,0.789936279296875,-1.014495849609375,0.042144775390625,0.08892822265625
1776444082595953200,0.814953125,-1.0572357177734375,0.004730224609375,0.0996551513671875
1776444082620971300,0.83997119140625,-1.0248260498046875,-0.0161895751953125,0.0761566162109375
1776444082645989000,0.864989013671875,-1.0077362060546875,-0.0211944580078125,0.0216522216796875
1776444082671006200,0.890006103515625,-1.0226898193359375,-0.0055999755859375,0.0263671875
1776444082696024000,0.915024169921875,-1.04449462890625,-0.0179595947265625,0.0277862548828125
1776444082721042200,0.940042236328125,-1.100372314453125,-0.049041748046875,0.0438079833984375
1776444082746060000,0.96506005859375,-1.070556640625,-0.0810546875,0.01422119140625
1776444082771077000,0.9900771484375,-1.0601654052734375,-0.095306396484375,0.015716552734375
1776444082796095200,1.01509521484375,-1.06134033203125,-0.0574493408203125,-0.019439697265625
1776444082821113000,1.040113037109375,-1.009033203125,0.0107421875,-0.00030517578125
1776444082846130200,1.065130126953125,-0.9403076171875,0.0386199951171875,-0.0598602294921875
1776444082871148000,1.09014794921875,-0.9522857666015625,0.022705078125,-0.05633544921875
1776444082896166100,1.115166259765625,-0.9836273193359375,0.02532958984375,-0.0676422119140625
1776444082921184000,1.14018408203125,-0.9882049560546875,0.03936767578125,-0.080780029296875
1776444082946200800,1.165200927734375,-0.9561614990234375,0.0387115478515625,-0.0283660888671875
1776444082971219000,1.190218994140625,-0.9394683837890625,0.0137481689453125,-0.0677642822265625
1776444082996236800,1.21523681640625,-0.9564056396484375,0.0204315185546875,-0.0912322998046875
1776444083021254700,1.240254638671875,-0.9387664794921875,0.0628204345703125,-0.027740478515625
1776444083046271700,1.265271728515625,-0.937469482421875,0.057098388671875,-0.000457763671875
1776444083071289900,1.290289794921875,-0.9347991943359375,0.0385284423828125,-0.0336456298828125
1776444083096307700,1.3153076171875,-0.9304656982421875,0.0532073974609375,0.036224365234375
1776444083121324800,1.34032470703125,-0.92083740234375,0.0964202880859375,0.0733795166015625
1776444083146342700,1.3653427734375,-0.9276885986328125,0.13421630859375,0.058837890625
1776444083171360800,1.39036083984375,-0.9486236572265625,0.17095947265625,0.0528411865234375
1776444083196378600,1.415378662109375,-0.8757171630859375,0.2541351318359375,0.09039306640625
1776444083221395700,1.440395751953125,-0.9022216796875,0.1987762451171875,0.0093536376953125
1776444083246413800,1.465413818359375,-0.9937896728515625,0.03399658203125,0.06561279296875
1776444083271431700,1.490431640625,-1.115814208984375,-0.09033203125,0.0421295166015625
1776444083296448800,1.51544873046875,-1.1565399169921875,-0.176544189453125,-0.0556182861328125
1776444083321466600,1.540466552734375,-1.064727783203125,-0.052154541015625,0.1219024658203125
1776444083346484700,1.565484619140625,-1.001983642578125,-0.042236328125,0.0773468017578125
1776444083371502600,1.590502685546875,-1.015380859375,-0.0833282470703125,0.0289154052734375
1776444083396519700,1.615519775390625,-1.0612640380859375,-0.0407257080078125,-0.0355377197265625
1776444083421537500,1.64053759765625,-1.0169219970703125,-0.0242919921875,-0.0095977783203125
1776444083446556000,1.665555908203125,-0.986785888671875,0.0215606689453125,0.0472869873046875
1776444083471572700,1.69057275390625,-1.02752685546875,-0.0787353515625,0.068450927734375
1776444083496590800,1.7155908203125,-1.0986480712890625,-0.149078369140625,0.03765869140625
1776444083521608700,1.740608642578125,-0.98663330078125,-0.0264739990234375,0.085693359375
1776444083546626800,1.765626708984375,-0.9872589111328125,-0.0340118408203125,0.079925537109375
1776444083571644000,1.790643798828125,-1.00494384765625,-0.09735107421875,0.1067962646484375
1776444083596661800,1.815661865234375,-0.9936676025390625,-0.0595550537109375,0.0774688720703125
1776444083621679900,1.840679931640625,-1.01513671875,0.004669189453125,0.0551605224609375
1776444083646696700,1.86569677734375,-1.00811767578125,0.030792236328125,-0.001220703125
1776444083671714800,1.89071484375,-0.990234375,-0.009521484375,0.049224853515625
1776444083696732700,1.915732666015625,-1.0171966552734375,0.0040435791015625,0.054840087890625
1776444083721750800,1.940750732421875,-1.0092010498046875,0.012786865234375,0.055145263671875
1776444083746768000,1.965767822265625,-0.9941558837890625,0.0048370361328125,0.0147857666015625
1776444083771785700,1.99078564453125,-1.0084991455078125,-0.0025177001953125,0.0152740478515625
1776444083796803800,2.015803955078125,-1.07147216796875,0.0972442626953125,-0.0178070068359375
1776444083821820700,2.040820556640625,-1.0771026611328125,0.066070556640625,-0.0444183349609375
1776444083846838800,2.0658388671875,-0.9913177490234375,0.0326080322265625,0.023956298828125
1776444083871856600,2.090856689453125,-0.9886627197265625,-0.0296783447265625,0.0736083984375
1776444083896874800,2.115874755859375,-0.9241180419921875,-0.080535888671875,0.0814208984375
1776444083921891600,2.1408916015625,-0.92999267578125,-0.0984649658203125,0.08599853515625
1776444083946909700,2.16590966796875,-0.9572601318359375,-0.0952606201171875,0.197052001953125
1776444083971927800,2.190927734375,-0.9904632568359375,-0.0587615966796875,0.1714324951171875
1776444083996944600,2.215944580078125,-0.9379730224609375,-0.1475372314453125,0.194183349609375
1776444084021963000,2.240962890625,-1.016326904296875,-0.0395050048828125,0.1084442138671875
1776444084046980900,2.26598095703125,-1.0395050048828125,0.0033111572265625,0.056396484375
1776444084071998000,2.290998046875,-1.05206298828125,0.101104736328125,0.031707763671875
1776444084097015800,2.316015869140625,-1.080352783203125,0.0908203125,-0.0162506103515625
1776444084122034000,2.341033935546875,-0.933319091796875,-0.0631103515625,0.177978515625
1776444084147051800,2.3660517578125,-1.0101165771484375,-0.0798187255859375,0.0244293212890625
1776444084172068900,2.39106884765625,-0.974151611328125,-0.051483154296875,-0.0246734619140625
1776444084197086700,2.416086669921875,-1.0028228759765625,0.0452880859375,-0.2074432373046875
1776444084222104800,2.441104736328125,-1.0608367919921875,-0.1243133544921875,-0.1858978271484375
1776444084247122000,2.466121826171875,-1.0113677978515625,-0.0670928955078125,-0.069091796875
1776444084272139800,2.491139892578125,-0.9213409423828125,0.084259033203125,0.10736083984375
1776444084297158000,2.516157958984375,-0.9279327392578125,0.0785064697265625,0.2609710693359375
1776444084322175700,2.54117578125,-0.945648193359375,0.0704803466796875,0.24298095703125
1776444084347192800,2.56619287109375,-0.978057861328125,0.0811614990234375,0.24090576171875
1776444084372210700,2.591210693359375,-0.9773101806640625,0.081878662109375,0.2982635498046875
1776444084397228800,2.616228759765625,-0.9467620849609375,0.1206207275390625,0.3185882568359375
1776444084422245600,2.64124560546875,-0.917999267578125,0.050384521484375,0.326690673828125
1776444084447263700,2.666263671875,-0.932525634765625,0.0787353515625,0.2761077880859375
1776444084472281600,2.691281494140625,-0.940582275390625,0.08489990234375,0.3013458251953125
1776444084497298700,2.716298583984375,-0.9316864013671875,0.0637969970703125,0.3203887939453125
1776444084522316800,2.74131689453125,-0.9499969482421875,0.0509796142578125,0.2905731201171875
1776444084547334700,2.766334716796875,-0.9683990478515625,0.0588531494140625,0.261871337890625
1776444084572352800,2.791352783203125,-0.9696807861328125,0.025848388671875,0.2459716796875
1776444084597369600,2.81636962890625,-0.9718017578125,0.008758544921875,0.2670440673828125
1776444084622388000,2.841387939453125,-0.9864044189453125,-0.027191162109375,0.310028076171875
1776444084647405800,2.86640576171875,-1.0142059326171875,-0.091461181640625,0.2567291259765625
1776444084672423000,2.8914228515625,-1.01531982421875,-0.0709228515625,0.13580322265625
1776444084697440800,2.916440673828125,-1.0625,-0.0531158447265625,-0.2991180419921875
1776444084722459000,2.941458984375,-1.0658111572265625,-0.1746368408203125,-0.077545166015625
1776444084747476700,2.966476806640625,-1.0630645751953125,-0.177734375,-0.031982421875
1776444084772493800,2.991493896484375,-1.0625457763671875,-0.079132080078125,-0.0944061279296875
1776444084797512000,3.016511962890625,-1.020965576171875,-0.0724029541015625,-0.0404205322265625
1776444084822529800,3.04152978515625,-0.96295166015625,-0.0452880859375,-0.0079193115234375
1776444084847547000,3.066546875,-0.9443817138671875,-0.0702056884765625,-0.060516357421875
1776444084872564700,3.091564697265625,-0.959197998046875,-0.18218994140625,0.0393218994140625
1776444084897582800,3.116582763671875,-1.0479888916015625,-0.09259033203125,0.132568359375
1776444084922599700,3.141599609375,-0.9738311767578125,-0.02789306640625,0.15802001953125
1776444084947618300,3.166618408203125,-0.9804840087890625,0.0101165771484375,0.211090087890625
1776444084972636200,3.19163623046875,-0.983795166015625,-0.02435302734375,0.2323455810546875
1776444084997654300,3.216654296875,-1.016845703125,-0.0193634033203125,0.051971435546875
1776444085022671000,3.241671142578125,-1.0103912353515625,-0.0860595703125,-0.0866851806640625
1776444085047689200,3.266689208984375,-1.0183563232421875,-0.1269989013671875,-0.1853485107421875
1776444085072707000,3.29170703125,-1.0221099853515625,-0.1449432373046875,-0.2073516845703125
1776444085097724200,3.31672412109375,-1.0123748779296875,-0.1904449462890625,-0.1517181396484375
1776444085122742300,3.3417421875,-1.025390625,-0.19580078125,-0.029632568359375
1776444085147760000,3.366760009765625,-1.00982666015625,-0.143402099609375,0.01068115234375
1776444085172777200,3.391777099609375,-1.025604248046875,-0.1230010986328125,0.0879669189453125
1776444085197795000,3.416795166015625,-0.98162841796875,-0.1108551025390625,0.0545654296875
1776444085222813200,3.441813232421875,-0.9636383056640625,-0.07562255859375,0.003173828125
1776444085247831300,3.466831298828125,-0.988433837890625,-0.1720123291015625,0.0660552978515625
1776444085272848100,3.49184814453125,-0.998565673828125,-0.1677703857421875,0.1041259765625
1776444085297866200,3.5168662109375,-0.9225921630859375,-0.122161865234375,0.1353759765625
1776444085322884400,3.54188427734375,-0.9375,-0.0270843505859375,0.1648712158203125
1776444085347901400,3.5669013671875,-1.0093994140625,0.0984344482421875,0.15765380859375
1776444085372919300,3.591919189453125,-1.0113525390625,0.145050048828125,0.184783935546875
1776444085397937400,3.6169375,-0.92059326171875,-0.1760101318359375,0.2507781982421875
1776444085422954200,3.641954345703125,-1.0377197265625,-0.1684722900390625,0.2953948974609375
1776444085447972400,3.666972412109375,-1.0414886474609375,-0.12811279296875,0.2215118408203125
1776444085472990200,3.691990234375,-1.033050537109375,-0.1626434326171875,0.1425018310546875
1776444085498008300,3.71700830078125,-1.0684661865234375,-0.21978759765625,0.0330047607421875
1776444085523025200,3.742025146484375,-1.0297698974609375,-0.0743255615234375,0.050384521484375
1776444085548043300,3.767043212890625,-0.9678802490234375,-0.1354827880859375,-0.0689544677734375
1776444085573061000,3.79206103515625,-0.966522216796875,-0.1225433349609375,-0.149627685546875
1776444085598078200,3.817078125,-1.0015411376953125,0.0216217041015625,-0.1914825439453125
1776444085623096300,3.842096435546875,-0.958770751953125,-0.00128173828125,-0.2452392578125
1776444085648114200,3.8671142578125,-0.95843505859375,-0.0956878662109375,-0.2516326904296875
1776444085673131300,3.89213134765625,-0.9889984130859375,-0.0378875732421875,-0.137664794921875
1776444085698149000,3.917149169921875,-0.9539794921875,0.0073699951171875,-0.0729217529296875
1776444085723167200,3.942167236328125,-0.9320526123046875,0.0661773681640625,0.0103302001953125
1776444085748185000,3.96718505859375,-0.933807373046875,0.066162109375,0.10638427734375
1776444085773202200,3.9922021484375,-0.91351318359375,-0.06982421875,0.128509521484375
1776444085798220000,4.017219970703125,-0.9557342529296875,-0.0391387939453125,0.0149688720703125
1776444085823238100,4.042238037109375,-0.98883056640625,0.088653564453125,0.091796875
1776444085848255200,4.067255126953125,-0.91668701171875,-0.064849853515625,0.0235443115234375
1776444085873273000,4.092273193359375,-1.0596466064453125,-0.1078643798828125,-0.11737060546875
1776444085898291500,4.11729150390625,-1.0276336669921875,-0.1280975341796875,-0.1011962890625
1776444085923308000,4.14230810546875,-1.0320892333984375,-0.071502685546875,0.115966796875
1776444085948326100,4.167326171875,-0.929779052734375,-0.1368408203125,-0.0150146484375
1776444085973344000,4.192343994140625,-0.8994903564453125,-0.1097259521484375,-0.1484832763671875
1776444085998362000,4.217362060546875,-0.958465576171875,-0.3531036376953125,-0.1773681640625
1776444086023379200,4.242379150390625,-0.9717559814453125,-0.09259033203125,0.006866455078125
1776444086048397000,4.26739697265625,-0.99139404296875,-0.009796142578125,-0.0619049072265625
1776444086073415200,4.292415283203125,-0.9948883056640625,-0.2201385498046875,-0.28436279296875
1776444086098432000,4.317431884765625,-1.0576629638671875,-0.30133056640625,-0.2489013671875
1776444086123450000,4.3424501953125,-1.0706787109375,-0.14080810546875,-0.10064697265625
1776444086148468000,4.367468017578125,-1.0877227783203125,-0.0540618896484375,-0.0130157470703125
1776444086173485000,4.392485107421875,-1.1089019775390625,-0.19635009765625,-0.170684814453125
1776444086198503000,4.4175029296875,-1.11279296875,-0.1680450439453125,-0.082000732421875
1776444086223521300,4.442521240234375,-1.1024169921875,-0.0663299560546875,0.1428985595703125
1776444086248538000,4.4675380859375,-1.082550048828125,-0.0535125732421875,0.149078369140625
1776444086273556200,4.49255615234375,-1.059722900390625,-0.1597747802734375,0.0065460205078125
1776444086298574300,4.51757421875,-1.01226806640625,-0.1842803955078125,-0.110443115234375
1776444086323592200,4.54259228515625,-0.9694061279296875,-0.159576416015625,-0.144683837890625
1776444086348609300,4.567609375,-0.9157562255859375,-0.09100341796875,-0.0604248046875
1776444086373627100,4.592627197265625,-0.9761810302734375,-0.2346343994140625,0.4456329345703125
1776444086398645200,4.617645263671875,-0.9734649658203125,-0.1428375244140625,0.3627777099609375
1776444086423662000,4.642662109375,-0.8851470947265625,0.0414276123046875,-0.08544921875
1776444086448680200,4.66768017578125,-0.9430694580078125,0.0493927001953125,-0.1933441162109375
1776444086473698000,4.692697998046875,-0.8756866455078125,0.1022491455078125,0.1544036865234375
1776444086498715100,4.717715087890625,-1.08111572265625,-0.105224609375,0.1094207763671875
1776444086523733200,4.742733154296875,-1.085845947265625,-0.0650177001953125,-0.037567138671875
1776444086548751000,4.767751220703125,-1.0636749267578125,-0.0350799560546875,-0.1157684326171875
1776444086573768200,4.792768310546875,-0.98126220703125,0.0286407470703125,-0.02777099609375
1776444086598786000,4.8177861328125,-0.9704742431640625,0.00738525390625,0.105438232421875
1776444086623804200,4.84280419921875,-0.9352264404296875,0.0539703369140625,0.006805419921875
1776444086648821000,4.867821044921875,-0.914825439453125,0.014801025390625,-0.1182708740234375
1776444086673839000,4.892839111328125,-0.944549560546875,-0.0716094970703125,-0.112640380859375
1776444086698857000,4.91785693359375,-1.02154541015625,-0.1944580078125,-0.0413970947265625
1776444086723874000,4.9428740234375,-1.0045013427734375,-0.1864166259765625,-0.063720703125
1776444086748892200,4.96789208984375,-0.9938507080078125,-0.0811309814453125,-0.1279754638671875
1776444086773910000,4.992909912109375,-1.001983642578125,-0.07696533203125,-0.1441497802734375
1776444086798927000,5.017927001953125,-1.0144195556640625,-0.186279296875,-0.093505859375
1776444086823945000,5.042945068359375,-0.9832763671875,-0.226776123046875,-0.126800537109375
1776444086848963000,5.067963134765625,-0.930999755859375,-0.12298583984375,-0.173828125
1776444086873980200,5.092980224609375,-0.94873046875,-0.0938262939453125,-0.1348876953125
1776444086898998000,5.117998046875,-0.9910430908203125,-0.0850830078125,-0.083953857421875
1776444086924015900,5.143015869140625,-0.985565185546875,-0.1500091552734375,-0.0196075439453125
1776444086949033700,5.16803369140625,-0.9503631591796875,-0.1087799072265625,-0.0174407958984375
1776444086974050800,5.19305078125,-0.9503936767578125,-0.0187225341796875,-0.0350189208984375
1776444086999068700,5.218068603515625,-0.997039794921875,0.0767974853515625,-0.05194091796875
1776444087024086800,5.243086669921875,-0.9760589599609375,0.04632568359375,-0.031402587890625
1776444087049103600,5.268103515625,-0.9739227294921875,0.078521728515625,-0.03997802734375
1776444087074121700,5.293121826171875,-0.984283447265625,0.138641357421875,-0.06842041015625
1776444087099139600,5.3181396484375,-1.0328826904296875,0.05633544921875,0.1790924072265625
1776444087124156700,5.34315673828125,-1.0000152587890625,0.0888519287109375,0.3225555419921875
1776444087149174800,5.3681748046875,-1.0433502197265625,0.1326446533203125,0.11151123046875
1776444087174192600,5.393192626953125,-0.9902496337890625,0.0858306884765625,0.071014404296875
1776444087199209700,5.418209716796875,-1.0036468505859375,0.0487823486328125,0.135650634765625
1776444087224227600,5.4432275390625,-1.0165863037109375,0.0654754638671875,0.0893707275390625
1776444087249245700,5.46824560546875,-1.0518646240234375,-0.0220794677734375,0.1245880126953125
1776444087274262800,5.4932626953125,-1.029144287109375,-0.0337371826171875,0.1413726806640625
1776444087299280600,5.51828076171875,-1.001922607421875,-0.0050811767578125,0.1351470947265625
1776444087324298800,5.543298828125,-1.0292816162109375,0.017974853515625,0.0672454833984375
1776444087349315600,5.568315673828125,-1.00738525390625,-0.0115509033203125,0.006439208984375
1776444087374334000,5.593333984375,-0.985931396484375,0.031097412109375,0.015655517578125
1776444087399351800,5.618351806640625,-0.97613525390625,0.0710906982421875,0.0306396484375
1776444087424369000,5.643368896484375,-0.991546630859375,0.084014892578125,-0.0698699951171875
1776444087449386800,5.66838671875,-1.027191162109375,0.04510498046875,-0.090484619140625
1776444087474404900,5.69340478515625,-0.965240478515625,0.081024169921875,-0.0460205078125
1776444087499422000,5.718421875,-1.007415771484375,-0.0009765625,0.0087432861328125
1776444087524439800,5.743439697265625,-1.0021209716796875,0.0223236083984375,0.01812744140625
1776444087549457700,5.768457763671875,-0.9774932861328125,0.0151519775390625,0.0535125732421875
1776444087574474800,5.793474853515625,-1.0346527099609375,-0.0281982421875,0.0898284912109375
1776444087599492900,5.818492919921875,-0.991790771484375,-0.0085296630859375,0.1147308349609375
1776444087624510700,5.8435107421875,-1.0442657470703125,0.022735595703125,0.1571502685546875
1776444087649527800,5.86852783203125,-1.032745361328125,0.0386199951171875,0.1101226806640625
1776444087674545700,5.893545654296875,-1.0112152099609375,0.040130615234375,0.0981597900390625
1776444087699563800,5.918563720703125,-1.051116943359375,-0.01568603515625,0.1663055419921875
1776444087724580900,5.943580810546875,-1.011444091796875,-0.0034942626953125,0.1200103759765625
1776444087749598700,5.9685986328125,-1.028472900390625,-0.0220947265625,0.10089111328125
1776444087774616800,5.993616943359375,-1.008880615234375,0.0016937255859375,0.16357421875
1776444087799633700,6.018633544921875,-1.035125732421875,-0.0200958251953125,0.0982666015625
1776444087824651800,6.04365185546875,-1.0373077392578125,-0.0619049072265625,0.0206146240234375
1776444087849669600,6.068669677734375,-1.00665283203125,-0.0705108642578125,0.0707855224609375
1776444087874686700,6.093686767578125,-0.9767303466796875,-0.0025177001953125,0.0936431884765625
1776444087899704600,6.11870458984375,-1.0167694091796875,0.0445098876953125,0.1102294921875
1776444087924722700,6.14372265625,-0.9779052734375,-0.1279296875,-0.0227203369140625
1776444087949740000,6.168739990234375,-0.980438232421875,0.0059356689453125,0.0989227294921875
1776444087974758000,6.1937578125,-1.0078582763671875,0.0101470947265625,0.1910400390625
1776444087999776000,6.21877587890625,-1.00250244140625,-0.1340179443359375,0.0663604736328125
1776444088024792800,6.243792724609375,-0.9777984619140625,-0.172515869140625,0.0238189697265625
1776444088049811000,6.26881103515625,-0.9306640625,-0.075408935546875,-0.047119140625
1776444088074829000,6.2938291015625,-0.9774017333984375,-0.07501220703125,-0.2339324951171875
1776444088099846000,6.318845947265625,-0.9347381591796875,0.0174560546875,-0.2353973388671875
1776444088124864000,6.343864013671875,-0.9737396240234375,0.032470703125,-0.2090606689453125
1776444088149882000,6.368882080078125,-0.974761962890625,0.001312255859375,-0.1127471923828125
1776444088174899200,6.393899169921875,-0.9619598388671875,-0.048736572265625,-0.0411834716796875
1776444088199917000,6.4189169921875,-0.9613800048828125,-0.0819549560546875,-0.00079345703125
1776444088224935200,6.44393505859375,-0.9963531494140625,-0.127960205078125,0.031097412109375
1776444088249952000,6.468951904296875,-0.967529296875,-0.0658721923828125,-0.0301361083984375
1776444088274970000,6.49397021484375,-0.9817657470703125,0.02081298828125,-0.099212646484375
1776444088299988000,6.518988037109375,-0.9762115478515625,0.008148193359375,-0.140655517578125
1776444088325005000,6.544005126953125,-1.1060333251953125,-0.1986083984375,-0.08782958984375
1776444088350023000,6.56902294921875,-1.039825439453125,-0.135894775390625,-0.0330047607421875
1776444088375040000,6.5940400390625,-0.9732513427734375,-0.1065216064453125,0.009918212890625
1776444088400058000,6.61905810546875,-0.942840576171875,-0.1175079345703125,0.0314178466796875
1776444088425076000,6.644075927734375,-0.9650421142578125,-0.051025390625,0.0860595703125
1776444088450093000,6.669093017578125,-0.92340087890625,-0.0850677490234375,0.192413330078125
1776444088475111000,6.69411083984375,-0.9827728271484375,-0.0813140869140625,0.1978302001953125
1776444088500129000,6.71912890625,-0.966583251953125,-0.063568115234375,0.2029266357421875
1776444088525146000,6.74414599609375,-0.997344970703125,-0.07647705078125,0.1834869384765625
1776444088550164000,6.7691640625,-0.9508209228515625,-0.1834869384765625,0.20770263671875
1776444088575182000,6.79418212890625,-0.972381591796875,-0.1680908203125,0.2021026611328125
1776444088600199000,6.819198974609375,-0.993560791015625,-0.0828704833984375,0.1903839111328125
1776444088625217000,6.844217041015625,-0.968414306640625,-0.1181640625,0.1867523193359375
1776444088650235000,6.86923486328125,-0.9800567626953125,-0.146942138671875,0.1588134765625
1776444088675252000,6.894251953125,-1.039703369140625,-0.0735015869140625,0.0711822509765625
1776444088700269800,6.919269775390625,-1.029541015625,-0.10382080078125,0.0246734619140625
1776444088725288000,6.944287841796875,-1.0374603271484375,-0.106353759765625,0.0472259521484375
1776444088750305000,6.969304931640625,-1.0446624755859375,-0.0400390625,0.13726806640625
1776444088775323000,6.994322998046875,-1.0633392333984375,-0.0006561279296875,0.1624755859375
1776444088800341000,7.019341064453125,-1.009002685546875,-0.0326690673828125,0.1551666259765625
1776444088825357800,7.04435791015625,-1.0514068603515625,-0.0436553955078125,0.1615753173828125
1776444088850376000,7.0693759765625,-1.069000244140625,-0.0203094482421875,0.1416778564453125
1776444088875394000,7.09439404296875,-1.00628662109375,-0.0332794189453125,0.1327362060546875
1776444088900411000,7.119410888671875,-1.022735595703125,-0.071807861328125,0.087158203125
1776444088925429000,7.144428955078125,-1.01446533203125,0.04266357421875,-0.0596160888671875
1776444088950445300,7.1694453125,-1.0704345703125,0.11688232421875,0.0335235595703125
1776444088975463400,7.19446337890625,-0.9180450439453125,-0.021484375,0.0911407470703125
1776444089000481500,7.2194814453125,-0.9275665283203125,-0.10833740234375,0.122894287109375
1776444089025498400,7.244498291015625,-0.92156982421875,-0.0905609130859375,-0.0074462890625
1776444089050516500,7.2695166015625,-0.9405975341796875,-0.0490570068359375,-0.021484375
1776444089075534600,7.29453466796875,-0.90155029296875,0.0312042236328125,0.0271453857421875
1776444089100551700,7.3195517578125,-0.9617156982421875,-0.042755126953125,0.01513671875
1776444089125569500,7.344569580078125,-0.9538421630859375,-0.0399017333984375,-0.0009613037109375
1776444089150587600,7.369587646484375,-0.994354248046875,-0.0749969482421875,-0.071197509765625
1776444089175604500,7.3946044921875,-0.9684906005859375,-0.02117919921875,0.0922393798828125
1776444089200622600,7.41962255859375,-1.118621826171875,-0.1773681640625,0.01123046875
1776444089225640400,7.444640380859375,-1.05328369140625,-0.1729278564453125,0.0017852783203125
1776444089250657500,7.469657470703125,-1.00677490234375,-0.1057281494140625,0.058990478515625
1776444089275675600,7.494675537109375,-0.954833984375,-0.004150390625,-0.051025390625
1776444089300693500,7.519693603515625,-0.9247283935546875,0.04168701171875,0.07403564453125
1776444089325710600,7.544710693359375,-0.9452972412109375,0.0697174072265625,0.18280029296875
1776444089350728400,7.569728515625,-0.9588165283203125,0.092559814453125,0.1712493896484375
1776444089375745500,7.59474560546875,-0.949005126953125,0.1499176025390625,0.07830810546875
1776444089400763400,7.619763427734375,-0.947113037109375,0.1267547607421875,0.1496429443359375
1776444089425781500,7.644781494140625,-0.9666595458984375,0.1036529541015625,0.24237060546875
1776444089450798600,7.669798583984375,-0.9746551513671875,0.10601806640625,0.2184906005859375
1776444089475816400,7.69481640625,-0.98345947265625,0.11083984375,0.2372283935546875
1776444089500834600,7.71983447265625,-1.0030364990234375,0.123687744140625,0.2447052001953125
1776444089525851400,7.744851318359375,-0.9996795654296875,0.072723388671875,0.2872314453125
1776444089550869500,7.769869384765625,-1.01446533203125,0.0341644287109375,0.301025390625
1776444089575887400,7.794887451171875,-1.008514404296875,0.0302581787109375,0.2165985107421875
1776444089600904400,7.819904541015625,-0.9871063232421875,0.0497283935546875,0.1643218994140625
1776444089625922600,7.844922607421875,-0.983978271484375,0.00970458984375,0.137115478515625
1776444089650940400,7.8699404296875,-0.986175537109375,-0.02716064453125,0.16229248046875
1776444089675957500,7.89495751953125,-0.984527587890625,-0.0681915283203125,0.154296875
1776444089700975400,7.919975341796875,-1.009063720703125,-0.06463623046875,0.1209869384765625
1776444089725992400,7.944992431640625,-0.9865570068359375,-0.0538330078125,0.120361328125
1776444089751010300,7.97001025390625,-0.984771728515625,-0.0760498046875,-0.058563232421875
1776444089776028400,7.9950283203125,-1.04193115234375,-0.1050262451171875,-0.3251495361328125
1776444089801045500,8.02004541015625,-1.044158935546875,-0.113494873046875,-0.048187255859375
1776444089826063400,8.0450634765625,-0.9983062744140625,-0.00323486328125,0.1443328857421875
1776444089851081700,8.070081787109375,-0.95721435546875,0.0655670166015625,0.1310882568359375
1776444089876098300,8.095098388671875,-0.9666748046875,0.03448486328125,-0.125152587890625
1776444089901116700,8.12011669921875,-1.033050537109375,-0.01934814453125,-0.15850830078125
1776444089926134500,8.145134521484374,-1.04632568359375,-0.2251739501953125,-0.142181396484375
1776444089951151600,8.170151611328125,-1.0592193603515625,-0.3840179443359375,-0.1897125244140625
1776444089976170800,8.195170654296875,-0.963531494140625,-0.2118072509765625,-0.013916015625
1776444090001187800,8.220187744140626,-1.0491943359375,-0.0118255615234375,0.2462615966796875
1776444090026205700,8.245205810546874,-1.054412841796875,-0.0951080322265625,0.186981201171875
1776444090051223800,8.270223876953125,-0.986480712890625,-0.0306243896484375,0.1462554931640625
1776444090076241000,8.295240966796875,-1.0008087158203125,0.0738677978515625,0.1504058837890625
1776444090101258800,8.3202587890625,-0.9620513916015625,0.022186279296875,0.0860443115234375
1776444090126276600,8.345276611328124,-0.9391632080078125,-0.040557861328125,0.0774383544921875
1776444090151293700,8.370293701171875,-0.9903411865234375,-0.0869598388671875,0.0515899658203125
1776444090176311800,8.395311767578125,-1.0286712646484375,-0.0734100341796875,0.0006256103515625
1776444090201329700,8.42032958984375,-1.0226898193359375,-0.1189727783203125,0.019073486328125
1776444090226346800,8.4453466796875,-1.019378662109375,-0.1548309326171875,0.0036163330078125
1776444090251364600,8.470364501953124,-1.0126800537109375,-0.08905029296875,0.0137176513671875
1776444090276381700,8.495381591796875,-1.0239715576171875,-0.0869293212890625,0.0392913818359375
1776444090301399800,8.52039990234375,-1.026275634765625,-0.08538818359375,0.004241943359375
1776444090326417700,8.545417724609376,-0.9955902099609375,-0.14532470703125,-0.063873291015625
1776444090351434800,8.570434814453124,-0.976898193359375,-0.147216796875,-0.0634307861328125
1776444090376452600,8.59545263671875,-0.9644317626953125,-0.0876312255859375,0.0037841796875
1776444090401470700,8.620470703125,-1.0115814208984375,-0.03961181640625,0.12896728515625
1776444090426487800,8.64548779296875,-0.9798126220703125,-0.0591888427734375,0.1724700927734375
1776444090451505700,8.670505615234376,-0.964202880859375,-0.0220794677734375,0.12835693359375
1776444090476522800,8.695522705078124,-1.0276336669921875,-0.0518646240234375,0.2134552001953125
1776444090501540600,8.72054052734375,-1.0197601318359375,-0.197265625,0.2347259521484375
1776444090526558700,8.745558837890625,-1.0097198486328125,-0.168670654296875,0.1179962158203125
1776444090551575600,8.770575439453125,-1.018402099609375,-0.041778564453125,-0.0136260986328125
1776444090576593700,8.79559375,-1.016571044921875,-0.1203460693359375,0.0587921142578125
1776444090601611800,8.82061181640625,-1.0450897216796875,-0.0990447998046875,0.0769500732421875
1776444090626628600,8.845628662109375,-1.00201416015625,-0.071044921875,-0.0216064453125
1776444090651647000,8.87064697265625,-0.9589385986328125,-0.1473388671875,-0.1395416259765625
1776444090676664800,8.895664794921874,-0.99749755859375,-0.002044677734375,-0.0625457763671875
1776444090701682000,8.920681884765624,-1.0304107666015625,0.05950927734375,0.008453369140625
1776444090726699800,8.94569970703125,-0.9867401123046875,-0.0360565185546875,0.0238494873046875
1776444090751716900,8.970716796875,-1.000579833984375,0.0222320556640625,0.08673095703125
1776444090776734700,8.995734619140626,-1.0075225830078125,-0.0544586181640625,0.1575775146484375
1776444090801752800,9.0207529296875,-1.0349578857421875,-0.10040283203125,0.08172607421875
1776444090826770000,9.04577001953125,-1.0218963623046875,-0.0911407470703125,0.0739288330078125
1776444090851787800,9.070787841796875,-1.0072784423828125,-0.1060028076171875,-0.0589599609375
1776444090876804900,9.095804931640625,-1.027130126953125,-0.0865478515625,-0.1606292724609375
1776444090901822700,9.12082275390625,-0.96697998046875,-0.02978515625,-0.1310577392578125
1776444090926840800,9.1458408203125,-0.995269775390625,0.1175537109375,-0.12060546875
1776444090951858000,9.17085791015625,-0.9532928466796875,0.0241851806640625,-0.062408447265625
1776444090976874500,9.19587451171875,-0.92633056640625,0.0807037353515625,-0.044158935546875
1776444091001892600,9.220892578125,-0.9253997802734375,0.0834197998046875,0.0631561279296875
1776444091026909700,9.24590966796875,-0.857208251953125,0.143890380859375,0.2220001220703125
1776444091051927600,9.270927490234374,-0.859466552734375,0.029998779296875,0.1905517578125
1776444091076944600,9.295944580078125,-0.9008636474609375,0.0187225341796875,0.2391510009765625
1776444091101962500,9.32096240234375,-0.8880157470703125,0.05731201171875,0.28741455078125
1776444091126980600,9.345980712890626,-0.884033203125,-0.04156494140625,0.3152008056640625
1776444091151997400,9.37099755859375,-0.91778564453125,-0.064666748046875,0.198822021484375
1776444091177015600,9.396015625,-0.9925384521484375,-0.11346435546875,0.145416259765625
1776444091202032600,9.42103271484375,-1.0361480712890625,-0.1865692138671875,0.1283721923828125
1776444091227050500,9.446050537109375,-0.9974822998046875,-0.1329193115234375,-0.0425567626953125
1776444091252068600,9.471068603515626,-1.02337646484375,-0.27728271484375,-0.105499267578125
1776444091277085400,9.49608544921875,-1.0263519287109375,-0.2074737548828125,-0.090240478515625
1776444091302103600,9.521103515625,-1.0531158447265625,-0.23370361328125,-0.1662750244140625
1776444091327121700,9.54612158203125,-1.057403564453125,-0.1441192626953125,-0.1701507568359375
1776444091352138500,9.571138427734375,-1.039886474609375,-0.2122955322265625,-0.3134307861328125
1776444091377156600,9.596156494140626,-1.065948486328125,-0.1926116943359375,-0.081695556640625
1776444091402173400,9.62117333984375,-1.06878662109375,0.043212890625,0.08050537109375
1776444091427191800,9.64619189453125,-1.0552520751953125,-0.0274810791015625,-0.0109405517578125
1776444091452209700,9.671209716796875,-1.0645904541015625,-0.1401824951171875,0.0094757080078125
1776444091477226800,9.696226806640626,-1.047149658203125,-0.0472259521484375,0.0807952880859375
1776444091502244600,9.72124462890625,-1.02386474609375,-0.12542724609375,-0.0301971435546875
1776444091527261700,9.74626171875,-0.990814208984375,-0.22833251953125,-0.1019744873046875
1776444091552279800,9.77127978515625,-0.9703216552734375,-0.09521484375,0.0370330810546875
1776444091577297700,9.796297607421875,-0.980560302734375,-0.0681304931640625,0.08502197265625
1776444091602314800,9.821314697265626,-0.9534759521484375,-0.0928497314453125,0.0430908203125
1776444091627332600,9.84633251953125,-0.9866180419921875,-0.18255615234375,-0.0049896240234375
1776444091652349700,9.871349609375,-1.0120391845703125,-0.1244964599609375,0.0692596435546875
1776444091677367800,9.896367919921875,-1.0155792236328125,-0.12939453125,0.0748748779296875
1776444091702385700,9.9213857421875,-0.9971160888671875,-0.117340087890625,0.0548553466796875
1776444091727402800,9.94640283203125,-0.946563720703125,-0.0267181396484375,0.512054443359375
1776444091752420600,9.971420654296875,-1.0354766845703125,-0.249542236328125,0.0990447998046875
1776444091777437700,9.996437744140625,-0.992034912109375,-0.17010498046875,-0.0264892578125
1776444091802455600,10.02145556640625,-0.9571075439453125,-0.101776123046875,0.1621856689453125
1776444091827473700,10.0464736328125,-0.877288818359375,-0.071014404296875,0.04693603515625
1776444091852490800,10.07149072265625,-0.8905029296875,0.0852813720703125,0.060516357421875
1776444091877508600,10.096508544921875,-1.005615234375,-0.04058837890625,-0.0828094482421875
1776444091902525700,10.121525634765625,-1.0140838623046875,-0.0569305419921875,-0.0711822509765625
1776444091927543600,10.14654345703125,-0.9046173095703125,-0.0970611572265625,-0.050201416015625
1776444091952561700,10.171561767578124,-1.051513671875,-0.1283416748046875,-0.0069427490234375
1776444091977578800,10.196578857421875,-1.0978851318359375,-0.13525390625,0.0396881103515625
1776444092002596900,10.221596923828125,-0.9828033447265625,-0.1591796875,-0.040679931640625
1776444092027614000,10.246614013671875,-1.006103515625,-0.14508056640625,-0.001953125
1776444092052631800,10.2716318359375,-0.9925994873046875,-0.0821533203125,0.053131103515625
1776444092077650000,10.29664990234375,-0.959747314453125,-0.110595703125,0.0795745849609375
1776444092102666800,10.321666748046875,-0.96148681640625,-0.0990447998046875,0.0281982421875
1776444092127684900,10.346684814453125,-0.966156005859375,-0.081451416015625,-0.045013427734375
1776444092152702000,10.371701904296875,-0.967803955078125,-0.0493316650390625,-0.0726165771484375
1776444092177719800,10.3967197265625,-1.0103759765625,-0.0043792724609375,-0.13836669921875
1776444092202738000,10.421738037109375,-1.0247039794921875,-0.07080078125,-0.08868408203125
1776444092227754800,10.446754638671875,-0.98065185546875,-0.1040802001953125,-0.047821044921875
1776444092252772900,10.47177294921875,-1.0429229736328125,-0.07574462890625,-0.1119537353515625
1776444092277790000,10.4967900390625,-1.0384521484375,0.0049591064453125,-0.1226806640625
1776444092302807800,10.521807861328124,-1.0872344970703125,-0.0492095947265625,-0.041046142578125
1776444092327825000,10.546824951171875,-1.0267486572265625,-0.0110626220703125,-0.0301971435546875
1776444092352842800,10.5718427734375,-1.072418212890625,-0.0106048583984375,-0.04583740234375
1776444092377860900,10.59686083984375,-1.067657470703125,-0.0563507080078125,-0.0312347412109375
1776444092402877700,10.621877685546876,-0.9986419677734375,-0.012481689453125,-0.05780029296875
1776444092427895800,10.646895751953124,-0.96954345703125,-0.010406494140625,-0.08746337890625
1776444092452913000,10.671912841796875,-0.9436798095703125,0.0026702880859375,-0.1071014404296875
1776444092477930800,10.6969306640625,-0.922119140625,0.061859130859375,-0.1156768798828125
1776444092502948900,10.721948974609376,-0.9429473876953125,0.002349853515625,-0.031158447265625
1776444092527965700,10.746965576171876,-0.9211578369140625,0.0189666748046875,0.0745697021484375
1776444092552983800,10.77198388671875,-1.01324462890625,0.0212554931640625,0.02288818359375
1776444092578001000,10.7970009765625,-0.997528076171875,-0.0180816650390625,-0.0083770751953125
1776444092603018800,10.822018798828125,-0.998565673828125,-0.0351104736328125,-0.0222930908203125
1776444092628035800,10.847035888671876,-1.0442657470703125,0.0107879638671875,0.0693511962890625
1776444092653053700,10.8720537109375,-1.0297088623046875,-0.0980072021484375,0.12017822265625
1776444092678072000,10.897072021484375,-1.0146331787109375,-0.0861663818359375,0.032257080078125
1776444092703088600,10.922088623046875,-0.9954376220703125,-0.1332855224609375,-0.055450439453125
1776444092728107000,10.94710693359375,-0.9855499267578125,-0.1859283447265625,-0.1662139892578125
1776444092753123800,10.972123779296876,-1.028656005859375,-0.13250732421875,-0.0877227783203125
1776444092778142000,10.997141845703124,-1.0583648681640625,-0.265045166015625,-0.144866943359375
1776444092803158800,11.02215869140625,-1.0409393310546875,-0.176666259765625,-0.03741455078125
1776444092828177000,11.047177001953125,-0.94061279296875,-0.1585540771484375,-0.002777099609375
1776444092853195000,11.072195068359376,-0.9166412353515625,-0.0424652099609375,-0.0179443359375
1776444092878212000,11.097212158203124,-0.9828033447265625,-0.1172943115234375,0.0066375732421875
1776444092903230000,11.12222998046875,-1.0219879150390625,-0.1076812744140625,0.05322265625
1776444092928247000,11.1472470703125,-0.8789520263671875,0.0651702880859375,0.058197021484375
1776444092953265000,11.172264892578125,-0.9220428466796875,-0.0121917724609375,0.119049072265625
1776444092978282000,11.197281982421876,-0.9615325927734375,-0.0147552490234375,0.1520233154296875
1776444093003299800,11.2222998046875,-0.9770965576171875,-0.0369415283203125,0.1699066162109375
1776444093028318000,11.24731787109375,-0.979766845703125,0.1472320556640625,0.198638916015625
1776444093053335000,11.2723349609375,-1.00701904296875,0.084320068359375,0.1870574951171875
1776444093078353000,11.297352783203126,-0.98687744140625,0.069061279296875,0.2046661376953125
1776444093103370000,11.322369873046876,-0.9956207275390625,0.040374755859375,0.17340087890625
1776444093128387800,11.347387939453125,-1.0379638671875,0.0706939697265625,0.1379852294921875
1776444093153405000,11.372405029296875,-1.0609588623046875,0.046173095703125,0.135223388671875
1776444093178423000,11.397423095703125,-1.0442352294921875,0.0382080078125,0.18048095703125
1776444093203439900,11.42243994140625,-0.9961700439453125,0.0205841064453125,0.18707275390625
1776444093228458000,11.4474580078125,-1.1086883544921875,-0.0183258056640625,0.1834564208984375
1776444093253476000,11.47247607421875,-1.0784759521484375,-0.0550994873046875,0.2744293212890625
1776444093278493000,11.497492919921875,-0.9976043701171875,0.008056640625,0.2776336669921875
1776444093303511000,11.522510986328125,-0.9965057373046875,0.0619049072265625,0.18597412109375
1776444093328528000,11.54752783203125,-0.99700927734375,0.0159912109375,0.0941009521484375
1776444093353546200,11.572546142578124,-0.9703521728515625,-0.0345001220703125,-0.05877685546875
1776444093378562800,11.597562744140625,-1.0120697021484375,-0.019561767578125,-0.08868408203125
1776444093403581200,11.622581298828125,-0.9951019287109375,-0.0465087890625,-0.1443939208984375
1776444093428598000,11.647597900390625,-0.9503021240234375,-0.00823974609375,-0.120849609375
1776444093453616000,11.6726162109375,-0.9607086181640625,0.001007080078125,-0.0737457275390625
1776444093478634200,11.69763427734375,-0.9716949462890625,-0.0426483154296875,-0.05950927734375
1776444093503651000,11.722651123046875,-1.034393310546875,-0.037811279296875,-0.0951995849609375
1776444093528669200,11.747669189453125,-1.0565338134765625,0.06243896484375,-0.0771331787109375
1776444093553686000,11.77268603515625,-0.9742279052734375,-0.0440521240234375,-0.0506134033203125
1776444093578704100,11.7977041015625,-0.968292236328125,-0.05548095703125,0.03302001953125
1776444093603721200,11.82272119140625,-1.0045623779296875,-0.0327301025390625,0.0070953369140625
1776444093628739000,11.847739013671875,-0.97735595703125,-0.12359619140625,-0.002288818359375
1776444093653756200,11.872756103515625,-0.9597320556640625,-0.080810546875,0.035736083984375
1776444093678774000,11.89777392578125,-1.00897216796875,-0.072021484375,0.0234222412109375
1776444093703792000,11.922792236328124,-0.9723663330078125,-0.0370941162109375,-0.04571533203125
1776444093728809200,11.947809326171875,-0.9343719482421875,-0.160125732421875,-0.009124755859375
1776444093753827000,11.9728271484375,-1.0089263916015625,-0.2056121826171875,0.05145263671875
1776444093778844200,11.99784423828125,-0.970123291015625,-0.116607666015625,0.08380126953125
1776444093803862000,12.022862060546874,-0.9612579345703125,-0.1560211181640625,0.0893402099609375
1776444093828879000,12.047879150390624,-0.9684295654296875,-0.207122802734375,0.07000732421875
1776444093853897200,12.072897216796875,-0.975433349609375,-0.1762542724609375,0.0830535888671875
1776444093878914000,12.0979140625,-0.9661407470703125,-0.095001220703125,0.0629730224609375
1776444093903932200,12.12293212890625,-0.9177398681640625,-0.082733154296875,0.1277923583984375
1776444093928949000,12.147948974609376,-0.9503173828125,-0.1644744873046875,0.234100341796875
1776444093953967000,12.172967041015625,-0.9888916015625,-0.162994384765625,0.2100982666015625
1776444093978985000,12.19798486328125,-1.005645751953125,-0.1144256591796875,0.2076263427734375
1776444094004002000,12.223001953125,-0.9579315185546875,-0.1845245361328125,0.17254638671875
1776444094029020200,12.248020263671876,-0.9612579345703125,-0.220703125,0.1979217529296875
1776444094054037000,12.273037109375,-1.023040771484375,-0.1198883056640625,0.2245941162109375
1776444094079055000,12.29805517578125,-0.9777069091796875,-0.093536376953125,0.2147216796875
1776444094104072200,12.323072265625,-0.93096923828125,-0.2071533203125,0.2204437255859375
1776444094129090000,12.348090087890625,-1.052978515625,-0.1330413818359375,0.2700958251953125
1776444094154107100,12.373107177734376,-0.9783172607421875,-0.132354736328125,0.2534942626953125
1776444094179125000,12.398125,-0.988433837890625,-0.1581878662109375,0.1976318359375
1776444094204142000,12.42314208984375,-0.997589111328125,-0.169036865234375,0.192108154296875
1776444094229160200,12.44816015625,-1.017578125,-0.1419830322265625,0.1833343505859375
1776444094254177000,12.473177001953125,-1.0035400390625,-0.1054534912109375,0.1607208251953125
1776444094279195100,12.498195068359376,-0.9971771240234375,-0.1211700439453125,0.114532470703125
1776444094304213000,12.523212890625,-1.01275634765625,-0.1133270263671875,0.078216552734375
1776444094329230000,12.54822998046875,-0.9683685302734375,-0.0891876220703125,0.1396026611328125
1776444094354248000,12.573248046875,-1.009124755859375,-0.0487060546875,0.14373779296875
1776444094379265000,12.59826513671875,-0.953643798828125,-0.0803985595703125,0.1110687255859375
1776444094404283100,12.623283203125,-0.9604644775390625,-0.036346435546875,0.063232421875
1776444094429300000,12.648300048828125,-1.0836029052734375,0.212493896484375,-0.27679443359375
1776444094454318000,12.673318115234375,-1.0191802978515625,0.010589599609375,0.0807647705078125
1776444094479335200,12.698335205078125,-0.9202728271484375,-0.12493896484375,0.14593505859375
1776444094504353000,12.72335302734375,-0.8548736572265625,-0.1815948486328125,0.0943450927734375
1776444094529370000,12.7483701171875,-0.9615478515625,-0.08367919921875,0.0561370849609375
1776444094554388000,12.773387939453125,-0.999359130859375,0.0051116943359375,0.07928466796875
1776444094579405000,12.798405029296875,-0.9812164306640625,-0.03411865234375,0.0826568603515625
1776444094604423200,12.823423095703125,-0.9749603271484375,0.042083740234375,0.113922119140625
1776444094629440000,12.84843994140625,-0.935394287109375,-0.0066070556640625,0.0289459228515625
1776444094654458000,12.8734580078125,-1.032012939453125,-0.0147857666015625,0.0379180908203125
1776444094679475000,12.898474853515625,-1.0536651611328125,-0.0765838623046875,-0.0356292724609375
1776444094704493000,12.9234931640625,-1.0847930908203125,-0.2173614501953125,0.09161376953125
1776444094729510100,12.94851025390625,-1.0384521484375,-0.1689300537109375,0.12957763671875
1776444094754528000,12.973528076171876,-0.9989471435546875,-0.11474609375,0.0330963134765625
1776444094779546000,12.998546142578125,-0.9589080810546875,-0.1065673828125,-0.02880859375
1776444094804563000,13.02356298828125,-0.93585205078125,-0.042327880859375,0.0962371826171875
1776444094829581000,13.0485810546875,-0.973236083984375,-0.02569580078125,0.163116455078125
1776444094854598100,13.07359814453125,-0.99017333984375,0.0763702392578125,0.09405517578125
1776444094879616000,13.098615966796874,-0.956878662109375,0.13067626953125,0.0943756103515625
1776444094904633000,13.123633056640625,-0.9250030517578125,0.1260833740234375,0.1527099609375
1776444094929651000,13.14865087890625,-0.9597930908203125,0.091278076171875,0.21466064453125
1776444094954668000,13.17366796875,-0.99468994140625,0.123046875,0.1476287841796875
1776444094979686000,13.198685791015626,-0.9931640625,0.1489105224609375,0.12554931640625
1776444095004702700,13.22370263671875,-0.9748382568359375,0.142730712890625,0.2246246337890625
1776444095029720800,13.248720947265625,-0.9567718505859375,0.099578857421875,0.2409210205078125
1776444095054738000,13.273738037109375,-0.9623870849609375,0.0914764404296875,0.17388916015625
1776444095079755800,13.298755859375,-0.998291015625,0.069366455078125,0.20721435546875
1776444095104772900,13.32377294921875,-1.01043701171875,0.045745849609375,0.239898681640625
1776444095129790700,13.348790771484374,-1.00115966796875,0.0379180908203125,0.181671142578125
1776444095154807800,13.373807861328125,-0.9878082275390625,0.02337646484375,0.1502685546875
1776444095179825700,13.39882568359375,-0.98199462890625,-0.0197601318359375,0.0543975830078125
1776444095204842800,13.4238427734375,-1.032257080078125,-0.10125732421875,-0.179534912109375
1776444095229860900,13.44886083984375,-1.020111083984375,-0.1400909423828125,-0.033538818359375
1776444095254877700,13.473877685546874,-1.016265869140625,-0.0682830810546875,0.112548828125
1776444095279895800,13.498895751953125,-0.9565887451171875,0.046142578125,0.1342010498046875
1776444095304913000,13.523912841796875,-0.9498291015625,0.03118896484375,0.157318115234375
1776444095329930800,13.5489306640625,-0.9700927734375,0.0090179443359375,0.176300048828125
1776444095354947800,13.57394775390625,-1.020965576171875,0.0286712646484375,-0.17327880859375
1776444095379965700,13.598965576171874,-1.021636962890625,0.0415191650390625,-0.1303558349609375
1776444095404982800,13.623982666015625,-0.954681396484375,-0.0506591796875,-0.028717041015625
1776444095430001000,13.6490009765625,-1.00189208984375,-0.1129150390625,-0.037445068359375
1776444095455018800,13.674018798828126,-0.97857666015625,-0.1983489990234375,0.026214599609375
1776444095480035800,13.699035888671874,-1.00189208984375,-0.1309356689453125,0.0476837158203125
1776444095505053000,13.724052978515624,-0.992095947265625,-0.059417724609375,0.180816650390625
1776444095530070800,13.74907080078125,-1.0459747314453125,-0.071685791015625,0.2034149169921875
1776444095555088600,13.774088623046875,-1.106170654296875,-0.00823974609375,0.1951904296875
1776444095580105700,13.799105712890626,-1.04779052734375,0.012847900390625,0.048126220703125
1776444095605123800,13.824123779296874,-1.0379638671875,-0.097015380859375,-0.0789642333984375
1776444095630140700,13.849140625,-1.0618743896484375,-0.09014892578125,-0.079315185546875
1776444095655158800,13.87415869140625,-1.0664520263671875,-0.091552734375,-0.0732269287109375
1776444095680175900,13.89917578125,-1.02099609375,-0.108154296875,-0.1222381591796875
1776444095705193700,13.92419384765625,-0.9780426025390625,-0.101837158203125,-0.08612060546875
1776444095730210800,13.9492109375,-0.9637451171875,-0.0577392578125,-0.0078277587890625
1776444095755228700,13.974228759765625,-0.9411773681640625,-0.0706024169921875,-0.0111236572265625
1776444095780245800,13.999245849609375,-1.0055999755859375,-0.0571136474609375,-0.070526123046875
1776444095805264000,14.024263916015625,-1.03741455078125,-0.0995025634765625,0.030517578125
1776444095830280700,14.04928076171875,-1.027069091796875,-0.1275482177734375,0.0672760009765625
1776444095855298800,14.074298828125,-1.0543212890625,-0.0164031982421875,0.044219970703125
1776444095880316000,14.09931591796875,-1.04449462890625,-0.0652008056640625,0.154876708984375
1776444095905333800,14.124333740234375,-1.0140228271484375,-0.035125732421875,0.09014892578125
1776444095930350800,14.149350830078125,-1.0025634765625,0.028472900390625,0.0267486572265625
1776444095955368700,14.17436865234375,-0.9832763671875,0.0167999267578125,0.0397186279296875
1776444095980385500,14.199385498046874,-0.9438018798828125,-0.003173828125,0.045654296875
1776444096005403400,14.2244033203125,-0.9701690673828125,0.0301513671875,0.0557098388671875
1776444096030420500,14.24942041015625,-0.9558563232421875,0.031005859375,-0.0460205078125
1776444096055438600,14.2744384765625,-0.936004638671875,-0.0471343994140625,-0.085540771484375
1776444096080455400,14.299455322265626,-0.9828338623046875,-0.0367431640625,-0.0360565185546875
1776444096105473500,14.3244736328125,-0.9896392822265625,-0.126373291015625,0.006500244140625
1776444096130490600,14.34949072265625,-0.9658660888671875,-0.021026611328125,-0.0133209228515625
1776444096155508500,14.374508544921875,-0.9645843505859375,0.0001068115234375,0.067108154296875
1776444096180525600,14.399525634765626,-0.987518310546875,-0.0142669677734375,0.084320068359375
1776444096205543400,14.42454345703125,-1.0001220703125,0.0671844482421875,0.156158447265625
1776444096230560500,14.449560546875,-1.030487060546875,0.012420654296875,0.123565673828125
1776444096255578600,14.47457861328125,-1.03253173828125,0.013153076171875,0.0892486572265625
1776444096280595500,14.499595458984375,-0.9970855712890625,-0.0117034912109375,-0.0020294189453125
1776444096305613600,14.524613525390626,-1.0286407470703125,-0.059783935546875,-0.090484619140625
1776444096330630700,14.549630615234374,-1.0261383056640625,-0.0618438720703125,-0.1605987548828125
1776444096355648500,14.5746484375,-1.02001953125,0.0118865966796875,-0.259429931640625
1776444096380665600,14.59966552734375,-0.9962158203125,-0.0859375,-0.1137847900390625
1776444096405683500,14.624683349609375,-1.0271148681640625,-0.0966644287109375,-0.0933990478515625
1776444096430700500,14.649700439453126,-1.011260986328125,-0.0923309326171875,-0.1049957275390625
1776444096455718400,14.674718505859374,-1.01324462890625,-0.1293182373046875,-0.12847900390625
1776444096480735500,14.699735595703125,-0.997283935546875,-0.0996856689453125,-0.130950927734375
1776444096505753600,14.724753662109375,-0.991851806640625,-0.014434814453125,-0.06182861328125
1776444096530770400,14.7497705078125,-0.9902496337890625,0.17840576171875,0.0347747802734375
1776444096555788500,14.77478857421875,-0.9289398193359375,0.14910888671875,0.0998992919921875
1776444096580805600,14.7998056640625,-0.90130615234375,0.0678558349609375,0.0920562744140625
1776444096605823500,14.824823486328125,-0.9598541259765625,0.0723724365234375,-0.0091094970703125
1776444096630840600,14.849840576171875,-0.9228515625,-0.063690185546875,0.0027008056640625
1776444096655858400,14.8748583984375,-0.9399566650390625,0.0617828369140625,0.1355133056640625
1776444096680875500,14.89987548828125,-0.9476165771484375,0.076141357421875,0.0570068359375
1776444096705893600,14.9248935546875,-0.9559173583984375,-0.0061798095703125,-0.0426177978515625
1776444096730910500,14.949910400390625,-0.966461181640625,-0.086517333984375,-0.0749053955078125
1776444096755928600,14.974928466796875,-0.923828125,-0.0435333251953125,-0.07275390625
1776444096780945700,14.999945556640625,-0.9725494384765625,0.0133514404296875,0.017486572265625
1776444096805963500,15.024963623046874,-1.010986328125,0.000457763671875,0.001373291015625
1776444096830980600,15.049980712890624,-1.0507354736328125,-0.1463470458984375,0.1261444091796875
1776444096855998500,15.07499853515625,-0.9962005615234375,-0.1543426513671875,0.03460693359375
1776444096881015600,15.100015625,-1.005523681640625,0.0048370361328125,0.14312744140625
1776444096906032600,15.12503271484375,-0.863006591796875,-0.0115203857421875,-0.1217193603515625
1776444096931050500,15.150050537109376,-0.8936920166015625,-0.132476806640625,-0.1650543212890625
1776444096956067600,15.175067626953124,-0.98675537109375,-0.2007598876953125,-0.07470703125
1776444096981086200,15.200086181640625,-0.9843597412109375,-0.11529541015625,-0.0403594970703125
1776444097006103300,15.225103271484375,-1.0857696533203125,-0.2313079833984375,-0.0930633544921875
1776444097031121200,15.25012109375,-1.1416778564453125,-0.2878265380859375,-0.1138153076171875
1776444097056138200,15.27513818359375,-1.1678619384765625,-0.253448486328125,0.0180206298828125
1776444097081156400,15.30015625,-1.1748199462890625,-0.1768646240234375,-0.0605926513671875
1776444097106173200,15.325173095703125,-1.1622772216796875,-0.2303924560546875,-0.087127685546875
1776444097131191300,15.35019140625,-1.1996917724609375,-0.171417236328125,-0.11907958984375
1776444097156208400,15.37520849609375,-1.089141845703125,-0.154541015625,0.0000762939453125
1776444097181226200,15.400226318359374,-1.069580078125,-0.107818603515625,-0.023468017578125
1776444097206243300,15.425243408203125,-1.0388946533203125,-0.25665283203125,-0.042144775390625
1776444097231261200,15.45026123046875,-1.06512451171875,-0.1190185546875,0.090423583984375
1776444097256278300,15.4752783203125,-1.0389556884765625,-0.0430908203125,0.1588897705078125
1776444097281296100,15.500296142578126,-0.9969329833984375,-0.1259765625,0.0876007080078125
1776444097306313200,15.525313232421874,-0.96990966796875,-0.1700897216796875,0.0434112548828125
1776444097331331300,15.550331298828125,-0.9482574462890625,-0.13525390625,0.043914794921875
1776444097356348200,15.57534814453125,-0.93304443359375,-0.102508544921875,0.0410308837890625
1776444097381366300,15.6003662109375,-0.93475341796875,-0.097625732421875,0.0475006103515625
1776444097406383400,15.62538330078125,-0.89013671875,0.0041656494140625,0.40484619140625
1776444097431401200,15.650401123046874,-1.063812255859375,-0.1842803955078125,0.26373291015625
1776444097456418300,15.675418212890625,-0.9321441650390625,-0.2561492919921875,0.1502227783203125
1776444097481436200,15.700436279296875,-0.8637847900390625,-0.0497283935546875,-0.0066986083984375
1776444097506453200,15.725453369140626,-0.9014739990234375,0.05963134765625,-0.1324920654296875
1776444097531471400,15.750471435546874,-0.975555419921875,-0.0141448974609375,0.1074066162109375
1776444097556488200,15.77548828125,-1.1263885498046875,-0.1795654296875,0.084625244140625
1776444097581506300,15.80050634765625,-0.9356231689453125,-0.0233306884765625,-0.067962646484375
1776444097606523400,15.8255234375,-1.0139923095703125,-0.0483551025390625,-0.0249786376953125
1776444097631540200,15.850540283203125,-0.9367828369140625,-0.003173828125,-0.1016845703125
1776444097656558300,15.875558349609374,-0.956756591796875,-0.03094482421875,-0.01275634765625
1776444097681575400,15.900575439453124,-0.9784088134765625,-0.002685546875,0.0140838623046875
1776444097706593300,15.92559326171875,-0.96307373046875,-0.0413818359375,0.0262908935546875
1776444097731610400,15.9506103515625,-0.9892730712890625,-0.0499725341796875,0.02191162109375
1776444097756628200,15.975628173828126,-0.957794189453125,-0.0440826416015625,0.0661773681640625
1776444097781645300,16.000645263671874,-0.925567626953125,-0.0790252685546875,0.0513458251953125
1776444097806663200,16.0256630859375,-0.9297943115234375,-0.0637664794921875,0.0063934326171875
1776444097831680300,16.05068017578125,-0.9900970458984375,-0.1066131591796875,0.011993408203125
1776444097856698400,16.075698486328125,-0.9844512939453125,-0.1007843017578125,0.0376434326171875
1776444097881715200,16.100715087890624,-0.9731903076171875,-0.07427978515625,0.0265655517578125
1776444097906733300,16.1257333984375,-0.968170166015625,-0.065582275390625,-0.0135498046875
1776444097931750400,16.15075048828125,-0.9180755615234375,-0.113311767578125,-0.026458740234375
1776444097956768300,16.175768310546875,-1.061614990234375,-0.2291259765625,-0.0054473876953125
1776444097981785000,16.20078515625,-0.969635009765625,-0.213775634765625,-0.0261077880859375
1776444098006803000,16.225802978515624,-0.919097900390625,-0.1227264404296875,-0.1076812744140625
1776444098031820000,16.250820068359374,-0.9691009521484375,-0.0737762451171875,-0.1744842529296875
1776444098056838100,16.275838134765625,-0.940582275390625,0.0199127197265625,-0.187744140625
1776444098081855000,16.30085498046875,-0.994598388671875,-0.019378662109375,-0.1636199951171875
1776444098106873000,16.325873046875,-0.9444580078125,-0.0104827880859375,-0.168731689453125
1776444098131890200,16.35089013671875,-1.0266265869140625,0.038238525390625,-0.1320953369140625
1776444098156907000,16.375906982421874,-1.05584716796875,0.0355224609375,-0.0418701171875
1776444098181925000,16.400925048828125,-1.027069091796875,0.04949951171875,-0.0006103515625
1776444098206942200,16.425942138671875,-1.0689849853515625,0.12359619140625,0.01910400390625
1776444098231960000,16.4509599609375,-1.0745697021484375,0.1367340087890625,0.0356597900390625
1776444098256977200,16.47597705078125,-1.031982421875,0.079803466796875,0.0233154296875
1776444098281995000,16.5009951171875,-1.025970458984375,0.0859222412109375,-0.0325469970703125
1776444098307012000,16.52601220703125,-1.009246826171875,0.080963134765625,-0.08551025390625
1776444098332030000,16.551030029296875,-0.9825592041015625,0.0928497314453125,-0.1055908203125
1776444098357047000,16.576047119140625,-1.010589599609375,0.065216064453125,-0.099639892578125
1776444098382065200,16.601065185546876,-0.9752197265625,0.0684661865234375,-0.0343475341796875
1776444098407082000,16.62608203125,-1.0449066162109375,-0.00994873046875,-0.0175628662109375
1776444098432100000,16.65110009765625,-1.0246734619140625,0.048553466796875,-0.09710693359375
1776444098457117200,16.6761171875,-1.0557403564453125,0.0017547607421875,-0.047088623046875
1776444098482135000,16.701135009765625,-1.0326690673828125,-0.0218048095703125,0.056121826171875
1776444098507152100,16.726152099609376,-1.0472412109375,-0.092864990234375,0.043121337890625
1776444098532169200,16.751169189453126,-1.02154541015625,-0.123748779296875,0.0311279296875
1776444098557187000,16.77618701171875,-0.9322052001953125,-0.1466827392578125,0.0152435302734375
1776444098582204200,16.8012041015625,-0.9286346435546875,-0.0696563720703125,0.0583038330078125
1776444098607222000,16.826221923828125,-0.9669036865234375,-0.014984130859375,0.20294189453125
1776444098632239000,16.851239013671876,-0.979217529296875,0.02447509765625,0.234039306640625
1776444098657257000,16.876257080078126,-0.9143829345703125,0.0802001953125,0.22698974609375
1776444098682274000,16.901274169921876,-0.9585113525390625,0.09326171875,0.2035064697265625
1776444098707292200,16.926292236328123,-0.964324951171875,0.1180419921875,0.1438446044921875
1776444098732309000,16.95130908203125,-0.9535980224609375,0.086761474609375,0.0941619873046875
1776444098757327000,16.9763271484375,-0.929656982421875,0.0742340087890625,0.173858642578125
1776444098782344200,17.00134423828125,-0.978179931640625,0.0237579345703125,0.25750732421875
1776444098807362000,17.026362060546877,-0.9953155517578125,0.0392608642578125,0.2046051025390625
1776444098832379100,17.051379150390623,-0.9989776611328125,0.0034332275390625,0.17681884765625
1776444098857396000,17.07639599609375,-1.05535888671875,0.0913543701171875,0.2458343505859375
1776444098882414000,17.1014140625,-0.989471435546875,0.0946197509765625,0.38507080078125
1776444098907431000,17.126430908203126,-0.959075927734375,0.082000732421875,0.3569793701171875
1776444098932449000,17.151448974609377,-1.01531982421875,0.1749725341796875,0.2232666015625
1776444098957465900,17.1764658203125,-1.038787841796875,0.1057891845703125,0.1826019287109375
1776444098982487300,17.2014873046875,-1.053009033203125,0.0952301025390625,0.22833251953125
1776444099007504100,17.226504150390625,-0.99267578125,0.0761260986328125,0.2088165283203125
1776444099032522200,17.251522216796875,-1.0266876220703125,-0.017425537109375,0.14190673828125
1776444099057539300,17.276539306640625,-1.025177001953125,0.0479278564453125,0.0996246337890625
1776444099082557200,17.30155712890625,-0.966552734375,0.0796966552734375,0.12823486328125
1776444099107574300,17.32657421875,-0.9898834228515625,-0.0095977783203125,0.1252899169921875
1776444099132592000,17.351592041015625,-1.00897216796875,-0.0176849365234375,0.071746826171875
1776444099157609200,17.376609130859375,-1.0284271240234375,-0.125518798828125,-0.1542816162109375
1776444099182626300,17.401626220703125,-1.0820465087890625,0.09051513671875,-0.0413970947265625
1776444099207644200,17.42664404296875,-0.9410400390625,0.0145111083984375,0.13519287109375
1776444099232661200,17.4516611328125,-0.9281463623046875,-0.095428466796875,0.275970458984375
1776444099257679000,17.47667919921875,-0.9953460693359375,-0.094879150390625,0.310272216796875
1776444099282696200,17.5016962890625,-0.9205169677734375,-0.2181243896484375,0.1588592529296875
1776444099307714300,17.52671435546875,-0.922698974609375,-0.2293701171875,0.0994415283203125
1776444099332731100,17.551731201171876,-0.9921722412109375,-0.0330657958984375,-0.06268310546875
1776444099357749200,17.576749267578126,-0.9925994873046875,0.0370635986328125,-0.033111572265625
1776444099382766300,17.601766357421877,-0.953094482421875,0.04302978515625,-0.111968994140625
1776444099407784200,17.6267841796875,-0.944580078125,-0.066619873046875,-0.13555908203125
1776444099432801300,17.65180126953125,-0.95843505859375,-0.066802978515625,-0.1094207763671875
1776444099457818400,17.676818359375,-0.9934234619140625,-0.0532989501953125,-0.0810699462890625
1776444099482836200,17.701836181640626,-0.995941162109375,0.011627197265625,-0.048736572265625
1776444099507853300,17.726853271484377,-0.9593353271484375,0.0907745361328125,0.0270538330078125
1776444099532871200,17.75187109375,-0.945709228515625,0.0577239990234375,0.1312713623046875
1776444099557888300,17.77688818359375,-0.946990966796875,-0.0117340087890625,0.2482147216796875
1776444099582906400,17.80190625,-0.9701995849609375,-0.011474609375,0.210357666015625
1776444099607923200,17.826923095703126,-0.9720458984375,-0.0163726806640625,0.1454315185546875
1776444099632941300,17.85194140625,-1.02923583984375,-0.06182861328125,0.121368408203125
1776444099657958100,17.876958251953123,-1.0498046875,-0.0548858642578125,0.1161041259765625
1776444099682976300,17.901976318359374,-1.0435333251953125,-0.0495758056640625,0.1046142578125
1776444099707993300,17.926993408203124,-1.0376739501953125,-0.0371246337890625,0.1174163818359375
1776444099733010200,17.95201025390625,-1.013427734375,-0.0700531005859375,0.1456146240234375
1776444099758028300,17.9770283203125,-1.07025146484375,-0.037139892578125,0.175201416015625
1776444099783045400,18.00204541015625,-1.035858154296875,-0.0512542724609375,0.1750030517578125
1776444099808063200,18.027063232421874,-1.004791259765625,-0.0697021484375,0.198699951171875
1776444099833080300,18.052080322265624,-1.0278472900390625,-0.0496673583984375,0.2237548828125
1776444099858098200,18.07709814453125,-1.0077056884765625,-0.052734375,0.182708740234375
1776444099883115300,18.102115234375,-1.01190185546875,-0.0477294921875,0.149444580078125
1776444099908133400,18.12713330078125,-0.9835662841796875,-0.05609130859375,0.13177490234375
1776444099933150200,18.152150146484374,-1.0395355224609375,-0.0198974609375,0.1053619384765625
1776444099958167300,18.177167236328124,-1.00372314453125,-0.04052734375,0.0625762939453125
1776444099983185700,18.202185546875,-0.9986572265625,-0.046356201171875,0.03985595703125
1776444100008202800,18.22720263671875,-1.04620361328125,-0.0176544189453125,0.040679931640625
1776444100033220900,18.252220947265624,-0.968414306640625,0.0262298583984375,-0.1358184814453125
1776444100058237700,18.27723779296875,-0.9676513671875,0.0395050048828125,-0.0133819580078125
1776444100083255800,18.302255859375,-0.9534912109375,0.1192779541015625,-0.1274871826171875
1776444100108273000,18.32727294921875,-1.001220703125,0.0055999755859375,0.046142578125
1776444100133290800,18.352290771484373,-0.9185638427734375,-0.0853424072265625,0.1046905517578125
1776444100158307800,18.377307861328124,-0.9274139404296875,-0.0499267578125,0.0650482177734375
1776444100183325000,18.402324951171874,-0.995513916015625,0.0424041748046875,0.0032958984375
1776444100208342800,18.4273427734375,-1.005584716796875,0.040618896484375,-0.033782958984375
1776444100233360000,18.45235986328125,-0.9688720703125,-0.028076171875,0.0652008056640625
1776444100258377700,18.477377685546877,-0.973419189453125,0.0202789306640625,0.127471923828125
1776444100283394800,18.502394775390623,-0.97314453125,0.0293121337890625,0.041015625
1776444100308412700,18.52741259765625,-0.9880828857421875,-0.00347900390625,0.0030670166015625
1776444100333429800,18.5524296875,-0.9313812255859375,-0.0066680908203125,0.0140228271484375
1776444100358446800,18.57744677734375,-0.9428558349609375,-0.064544677734375,0.0276031494140625
1776444100383464700,18.602464599609377,-0.9501495361328125,-0.0291290283203125,0.0763092041015625
1776444100408481800,18.627481689453123,-1.0625457763671875,-0.12115478515625,0.1021728515625
1776444100433500000,18.6525,-1.008544921875,-0.0841064453125,0.1277923583984375
1776444100458516700,18.677516845703124,-0.9424285888671875,-0.01025390625,0.058197021484375
1776444100483534800,18.702534912109375,-0.934417724609375,-0.003082275390625,-0.05804443359375
1776444100508552000,18.727552001953125,-0.9627838134765625,-0.0596160888671875,0.0200958251953125
1776444100533569800,18.75256982421875,-1.01043701171875,-0.0758209228515625,0.119171142578125
1776444100558587000,18.7775869140625,-1.038665771484375,-0.0613861083984375,0.2625732421875
1776444100583604000,18.80260400390625,-1.0360260009765625,-0.0408172607421875,0.234893798828125
1776444100608621800,18.827621826171875,-1.0239105224609375,-0.02081298828125,0.209747314453125
1776444100633639000,18.852638916015625,-1.0248870849609375,-0.0079498291015625,0.205718994140625
1776444100658656800,18.87765673828125,-1.02972412109375,0.0060272216796875,0.2201690673828125
1776444100683673900,18.902673828125,-1.030487060546875,-0.0018310546875,0.2706756591796875
1776444100708691700,18.927691650390624,-0.9998779296875,0.0277252197265625,0.2285614013671875
1776444100733708800,18.952708740234375,-0.9677581787109375,0.0434112548828125,0.1979217529296875
1776444100758726000,18.977725830078125,-0.975860595703125,-0.016082763671875,0.2690277099609375
1776444100783743700,19.00274365234375,-0.9954833984375,-0.017578125,0.2879791259765625
1776444100808760800,19.0277607421875,-0.99322509765625,-0.0399017333984375,0.276397705078125
1776444100833779000,19.052779052734376,-0.9862823486328125,-0.021820068359375,0.2491607666015625
1776444100858795800,19.077795654296875,-0.9683837890625,-0.0369110107421875,0.238189697265625
1776444100883814000,19.10281396484375,-0.9722900390625,-0.043182373046875,0.2513885498046875
1776444100908831000,19.1278310546875,-0.9812164306640625,-0.051361083984375,0.26666259765625
1776444100933848800,19.152848876953126,-0.9865875244140625,-0.0674285888671875,0.264251708984375
1776444100958866000,19.177865966796876,-0.9819793701171875,-0.06005859375,0.282684326171875
1776444100983882800,19.2028828125,-0.9856109619140625,-0.044281005859375,0.281768798828125
1776444101008900900,19.22790087890625,-0.9823760986328125,-0.03369140625,0.211761474609375
1776444101033917700,19.252917724609375,-1.015594482421875,-0.0482940673828125,-0.0932464599609375
1776444101058935800,19.277935791015626,-1.0395050048828125,-0.0963134765625,-0.0803375244140625
1776444101083952600,19.30295263671875,-1.0262908935546875,-0.086029052734375,0.018463134765625
1776444101108971000,19.327970947265626,-0.98095703125,-0.0085296630859375,0.1692962646484375
1776444101133987600,19.352987548828125,-0.968475341796875,0.03271484375,0.1397857666015625
1776444101159004700,19.378004638671875,-0.955596923828125,0.09063720703125,-0.0364227294921875
1776444101184022800,19.403022705078126,-0.9521942138671875,-0.0776214599609375,-0.051422119140625
1776444101209039600,19.42803955078125,-0.966156005859375,-0.0525054931640625,-0.0378875732421875
1776444101234057700,19.4530576171875,-0.8958587646484375,-0.1423797607421875,0.0582733154296875
1776444101259074600,19.478074462890625,-0.8792877197265625,-0.05950927734375,-0.0714569091796875
1776444101284091600,19.503091552734375,-0.904571533203125,-0.01519775390625,0.0162353515625
1776444101309109800,19.52810986328125,-0.93658447265625,-0.1004180908203125,0.042083740234375
1776444101334126600,19.553126708984376,-1.0198516845703125,-0.09808349609375,0.03857421875
1776444101359144700,19.578144775390626,-1.0764617919921875,-0.046905517578125,0.0472564697265625
1776444101384161800,19.603161865234377,-1.0706939697265625,-0.199951171875,-0.0367584228515625
1776444101409179600,19.6281796875,-1.08349609375,-0.1798858642578125,-0.0497894287109375
1776444101434196700,19.65319677734375,-1.094482421875,-0.208831787109375,0.01812744140625
1776444101459213800,19.6782138671875,-1.0789794921875,-0.1619720458984375,-0.00439453125
1776444101484231700,19.703231689453126,-1.084716796875,-0.1041259765625,0.017242431640625
1776444101509248800,19.728248779296877,-1.0557708740234375,-0.1036834716796875,0.008880615234375
1776444101534266600,19.7532666015625,-1.0398101806640625,-0.1172943115234375,-0.06060791015625
1776444101559283700,19.77828369140625,-1.054107666015625,-0.1609649658203125,-0.0480194091796875
1776444101584301800,19.8033017578125,-1.0490570068359375,-0.19488525390625,-0.019256591796875
1776444101609318700,19.828318603515626,-1.034698486328125,-0.1778717041015625,-0.0943603515625
1776444101634335700,19.853335693359377,-1.007354736328125,-0.1343536376953125,-0.0890045166015625
1776444101659353900,19.878353759765623,-1.00433349609375,-0.0792694091796875,-0.029266357421875
1776444101684370700,19.90337060546875,-0.96807861328125,-0.135650634765625,0.02203369140625
1776444101709388800,19.928388916015624,-0.9353790283203125,-0.0660247802734375,-0.06488037109375
1776444101734405600,19.953405517578126,-0.9431915283203125,-0.100189208984375,-0.0576934814453125
1776444101759422700,19.978422607421876,-0.93408203125,-0.0485687255859375,-0.063812255859375
1776444101784440800,20.00344091796875,-0.9333648681640625,0.01361083984375,0.03045654296875
1776444101809457700,20.028457763671874,-0.936065673828125,-0.0243682861328125,0.170562744140625
1776444101834475800,20.053475830078124,-0.942718505859375,-0.0683135986328125,0.2364654541015625
1776444101859492900,20.078492919921874,-0.97540283203125,-0.0043182373046875,0.2288665771484375
1776444101884510700,20.1035107421875,-0.988616943359375,-0.0513916015625,0.20477294921875
1776444101909527800,20.12852783203125,-1.0365753173828125,0.0428924560546875,0.2408447265625
1776444101934545000,20.153544921875,-1.0132598876953125,-0.017852783203125,0.3073272705078125
1776444101959562800,20.178562744140624,-1.0562286376953125,0.0082550048828125,0.243408203125
1776444101984576000,20.203575927734374,-1.06439208984375,-0.07745361328125,0.1828460693359375
1776444102009593900,20.22859375,-1.01385498046875,-0.072113037109375,0.0842742919921875
1776444102034611000,20.25361083984375,-0.9984130859375,-0.0009918212890625,-0.0102081298828125
1776444102059629000,20.278629150390625,-1.0442047119140625,0.0178985595703125,-0.0671234130859375
1776444102084646000,20.30364599609375,-0.9760284423828125,-0.1542816162109375,-0.01702880859375
1776444102109663000,20.3286630859375,-0.9428253173828125,-0.0147552490234375,-0.0931854248046875
1776444102134681000,20.35368115234375,-0.98046875,0.0423126220703125,-0.0643157958984375
1776444102159698000,20.378697998046874,-0.994140625,0.0716552734375,0.036224365234375
1776444102184716000,20.403716064453125,-0.9056396484375,0.2134552001953125,0.209442138671875
1776444102209733000,20.428733154296875,-0.9329986572265625,0.033843994140625,0.2828216552734375
1776444102234749700,20.453749755859373,-1.0050811767578125,0.001434326171875,0.2466888427734375
1776444102259768000,20.47876806640625,-1.0180511474609375,-0.0465850830078125,0.28033447265625
1776444102284785000,20.503784912109374,-0.9805908203125,-0.0778656005859375,0.4373779296875
1776444102309803000,20.528802978515625,-0.9325103759765625,0.028106689453125,0.4541015625
1776444102334819800,20.55381982421875,-0.95330810546875,-0.015594482421875,0.2691650390625
1776444102359837000,20.5788369140625,-0.9563751220703125,-0.0742950439453125,0.2438812255859375
1776444102384854800,20.603854736328124,-0.9665679931640625,0.0629730224609375,0.2205047607421875
1776444102409872000,20.628871826171874,-0.955230712890625,0.0727691650390625,0.057373046875
1776444102434889700,20.6538896484375,-0.974456787109375,-0.05206298828125,-0.0594635009765625
1776444102459906800,20.67890673828125,-0.9984893798828125,-0.0640716552734375,-0.106292724609375
1776444102484924700,20.703924560546874,-0.97406005859375,-0.013427734375,-0.279449462890625
1776444102509941800,20.728941650390624,-0.98675537109375,-0.0235137939453125,-0.2217254638671875
1776444102534958800,20.753958740234374,-0.9454193115234375,0.0243682861328125,-0.214263916015625
1776444102559976700,20.778976806640625,-0.9991302490234375,-0.093017578125,-0.126953125
1776444102584993800,20.803993896484375,-0.977264404296875,0.0767974853515625,-0.0390472412109375
1776444102610012000,20.829011962890625,-0.936126708984375,0.082122802734375,-0.156158447265625
1776444102635028700,20.85402880859375,-0.9643707275390625,-0.0679779052734375,-0.166717529296875
1776444102660045800,20.8790458984375,-0.9653167724609375,0.01763916015625,0.0031890869140625
1776444102685064000,20.90406396484375,-0.9810791015625,0.0953369140625,0.047027587890625
1776444102710080800,20.929080810546875,-1.0130767822265625,-0.06280517578125,-0.04827880859375
1776444102735099000,20.954098876953125,-1.03656005859375,-0.034027099609375,0.0100250244140625
1776444102760116000,20.979115966796876,-1.052764892578125,0.002655029296875,0.1197357177734375
1776444102785132800,21.0041328125,-1.005218505859375,-0.0365142822265625,-0.0056304931640625
1776444102810151000,21.02915087890625,-1.0696563720703125,-0.2583770751953125,-0.0858917236328125
1776444102835168000,21.05416796875,-1.0528717041015625,0.0281982421875,-0.0447998046875
1776444102860185900,21.079185791015625,-1.0184326171875,-0.05072021484375,-0.0356903076171875
1776444102885203000,21.104202880859376,-0.967376708984375,-0.11334228515625,-0.2702484130859375
1776444102910220000,21.129219970703126,-1.029083251953125,-0.159881591796875,-0.4076080322265625
1776444102935238000,21.15423779296875,-1.05645751953125,0.083770751953125,-0.00054931640625
1776444102960255000,21.1792548828125,-0.9470977783203125,0.15771484375,0.771820068359375
1776444102985273600,21.204273681640625,-1.08184814453125,-0.2025604248046875,0.261993408203125
1776444103010290700,21.229290771484376,-0.9571533203125,-0.251007080078125,0.054901123046875
1776444103035307500,21.2543076171875,-0.8510589599609375,-0.0510406494140625,0.0418243408203125
1776444103060325600,21.27932568359375,-0.9541015625,-0.0762939453125,-0.0897674560546875
1776444103085342700,21.3043427734375,-0.939239501953125,-0.120330810546875,-0.06536865234375
1776444103110360600,21.329360595703125,-0.9896392822265625,-0.15936279296875,0.0164794921875
1776444103135377700,21.354377685546876,-1.1490325927734375,-0.1575927734375,0.055328369140625
1776444103160394800,21.379394775390626,-1.110748291015625,-0.0726470947265625,0.1257781982421875
1776444103185412600,21.40441259765625,-1.013916015625,-0.056365966796875,0.095123291015625
1776444103210429700,21.4294296875,-1.08074951171875,-0.0677947998046875,0.12860107421875
1776444103235447600,21.454447509765625,-0.98309326171875,-0.011810302734375,0.1419219970703125
1776444103260464600,21.479464599609376,-0.993896484375,-0.0655059814453125,0.17401123046875
1776444103285481700,21.504481689453126,-0.9525909423828125,-0.0077972412109375,0.0660858154296875
1776444103310499600,21.52949951171875,-0.95361328125,-0.0387725830078125,0.08465576171875
1776444103335516700,21.5545166015625,-0.9172821044921875,-0.0857086181640625,0.0360565185546875
1776444103360534800,21.57953466796875,-0.9480743408203125,-0.0377655029296875,0.0045013427734375
1776444103385551600,21.604551513671876,-0.9943695068359375,0.01177978515625,0.024383544921875
1776444103410568700,21.629568603515626,-1.02069091796875,-0.049896240234375,0.051300048828125
1776444103435586800,21.6545869140625,-1.057861328125,-0.0808258056640625,0.0799560546875
1776444103460603600,21.679603759765627,-1.0104217529296875,-0.0419769287109375,0.0528717041015625
1776444103485621800,21.704621826171874,-1.0188140869140625,-0.021270751953125,0.0461883544921875
1776444103510638600,21.729638671875,-1.0191192626953125,-0.0640716552734375,0.06329345703125
1776444103535655700,21.75465576171875,-1.01922607421875,-0.0751953125,0.0378570556640625
1776444103560673800,21.779673828125,-0.9779205322265625,-0.087249755859375,-0.020660400390625
1776444103585690600,21.804690673828127,-0.9456634521484375,-0.0665130615234375,-0.067413330078125
1776444103610707700,21.829707763671873,-0.9340362548828125,-0.030242919921875,-0.1283721923828125
1776444103635725800,21.854725830078124,-0.939849853515625,-0.058868408203125,-0.2166595458984375
1776444103660742700,21.87974267578125,-0.9327239990234375,-0.027099609375,-0.0721282958984375
1776444103685760800,21.9047607421875,-0.943695068359375,-0.03448486328125,-0.304931640625
1776444103710777900,21.92977783203125,-1.0194854736328125,-0.031829833984375,-0.32354736328125
1776444103735794400,21.95479443359375,-1.0013885498046875,-0.028167724609375,-0.25054931640625
1776444103760812800,21.979812744140624,-1.011688232421875,0.0056304931640625,-0.236083984375
1776444103785829600,22.00482958984375,-1.0424346923828125,-0.081756591796875,0.11737060546875
1776444103810847700,22.02984765625,-1.0831756591796875,0.034912109375,0.1213531494140625
1776444103835864600,22.054864501953126,-1.099029541015625,0.098846435546875,0.1593170166015625
1776444103860881700,22.079881591796877,-0.9801025390625,0.01171875,0.0147857666015625
1776444103885899500,22.1048994140625,-0.9720611572265625,-0.1031494140625,-0.0540313720703125
1776444103910916600,22.12991650390625,-0.9819793701171875,-0.1450653076171875,-0.0608673095703125
1776444103935934500,22.1549345703125,-1.030792236328125,-0.092926025390625,0.014434814453125
1776444103960951600,22.17995166015625,-1.110382080078125,-0.100830078125,-0.0641632080078125
1776444103985968400,22.204968505859377,-1.0880584716796875,-0.266082763671875,-0.186248779296875
1776444104010986200,22.229986328125,-0.9289398193359375,-0.1483917236328125,-0.133453369140625
1776444104036003300,22.25500341796875,-0.9794921875,-0.1689453125,-0.02130126953125
1776444104061020400,22.2800205078125,-0.9876861572265625,-0.2077789306640625,0.0123291015625
1776444104086038300,22.305038330078126,-0.9816131591796875,-0.16912841796875,0.0211029052734375
1776444104111055400,22.330055419921877,-0.9182281494140625,-0.0942230224609375,0.033905029296875
1776444104136073500,22.355073486328124,-0.9345245361328125,-0.060089111328125,0.0496673583984375
1776444104161090300,22.38009033203125,-0.9312286376953125,-0.0981292724609375,0.0238800048828125
1776444104186107400,22.405107421875,-0.9292449951171875,-0.0892181396484375,0.1144561767578125
1776444104226135300,22.44513525390625,-0.9626922607421875,-0.094635009765625,0.0767059326171875
1776444104266163500,22.48516357421875,-0.993927001953125,-0.0601806640625,0.0098419189453125
1776444104306191400,22.52519140625,-0.9854888916015625,-0.04150390625,0.1334686279296875
1776444104346219300,22.56521923828125,-0.985870361328125,0.003875732421875,0.0107879638671875
1776444104386246400,22.605246337890627,-0.994781494140625,-0.033050537109375,-0.0433197021484375
1776444104426274300,22.6452744140625,-1.0452423095703125,0.0434722900390625,-0.0781402587890625
1776444104466302500,22.685302490234374,-1.06048583984375,-0.0516357421875,-0.031036376953125
1776444104506330400,22.725330322265624,-1.0058135986328125,0.02069091796875,-0.042510986328125
1776444104546358300,22.765358154296877,-1.0071868896484375,0.0043182373046875,0.02874755859375
1776444104586385200,22.80538525390625,-0.9985198974609375,-0.04461669921875,-0.0288848876953125
1776444104626413300,22.845413330078124,-0.9152984619140625,0.0051116943359375,-0.0484161376953125
1776444104666441500,22.88544140625,-0.9651947021484375,0.026123046875,0.00482177734375
1776444104706469400,22.925469482421875,-1.0238189697265625,0.02923583984375,0.0018463134765625
1776444104746497300,22.965497314453124,-0.9626922607421875,-0.1877593994140625,0.143157958984375
1776444104786525200,23.005525146484374,-0.9217987060546875,-0.00140380859375,-0.0123443603515625
1776444104826552300,23.04555224609375,-1.0593109130859375,-0.0389404296875,0.00909423828125
1776444104866580200,23.085580322265624,-1.07000732421875,-0.1228790283203125,0.101318359375
1776444104906608400,23.1256083984375,-0.9768524169921875,-0.055328369140625,0.0520782470703125
1776444104946636500,23.165636474609375,-0.9674224853515625,-0.0613861083984375,0.244659423828125
1776444104986663400,23.205663330078124,-0.9353485107421875,-0.1750946044921875,0.3634796142578125
1776444105026691000,23.245691162109374,-1.0069427490234375,-0.131561279296875,0.248809814453125
1776444105066719200,23.28571923828125,-0.9895782470703125,-0.102569580078125,0.1541290283203125
1776444105106747400,23.325747314453125,-0.9238128662109375,-0.1631317138671875,0.221435546875
1776444105146775300,23.365775390625,-0.9637603759765625,-0.0986785888671875,0.311187744140625
1776444105186802400,23.405802490234375,-0.95794677734375,-0.075958251953125,0.4312591552734375
1776444105226830300,23.445830322265625,-0.9311065673828125,-0.155029296875,0.398773193359375
1776444105266858200,23.485858154296874,-0.9841766357421875,-0.1024169921875,0.5877685546875
1776444105306886100,23.52588623046875,-0.9671173095703125,-0.1450042724609375,0.4140777587890625
1776444105346914300,23.565914306640625,-0.9795989990234375,-0.1135711669921875,0.35955810546875
1776444105386941200,23.605941162109374,-0.9411773681640625,-0.1694793701171875,0.2973785400390625
1776444105426969300,23.64596923828125,-0.970916748046875,-0.1566009521484375,0.3108978271484375
1776444105466997500,23.68599755859375,-0.96685791015625,-0.1207275390625,0.325469970703125
1776444105507025200,23.726025146484375,-0.97381591796875,-0.1311798095703125,0.1835784912109375
1776444105547052300,23.76605224609375,-0.9660186767578125,-0.0795440673828125,0.188446044921875
1776444105587080200,23.806080078125,-0.9322357177734375,-0.079071044921875,0.17266845703125
1776444105627108400,23.8461083984375,-1.0029449462890625,-0.0290069580078125,0.166748046875
1776444105667136300,23.88613623046875,-0.9881439208984375,-0.0462799072265625,0.08514404296875
1776444105707164200,23.9261640625,-0.9345703125,-0.10943603515625,0.159088134765625
1776444105747191300,23.96619140625,-0.961517333984375,-0.058441162109375,0.1505584716796875
1776444105787219200,24.00621923828125,-0.95489501953125,-0.105010986328125,0.123687744140625
1776444105827247400,24.046247314453126,-0.9879608154296875,-0.068084716796875,0.1581268310546875
1776444105867275300,24.086275146484375,-0.9949951171875,-0.085601806640625,0.1486358642578125
1776444105907302400,24.126302490234377,-1.0130615234375,-0.0960540771484375,0.103363037109375
1776444105947330300,24.166330322265626,-0.9821014404296875,-0.1043548583984375,0.1650848388671875
1776444105987358000,24.20635791015625,-0.99365234375,-0.091552734375,0.2137451171875
1776444106027385900,24.2463857421875,-0.97784423828125,-0.1683197021484375,0.192108154296875
1776444106067412700,24.286412841796874,-0.96087646484375,-0.14276123046875,0.259246826171875
1776444106107441000,24.32644091796875,-0.956756591796875,-0.1434478759765625,0.2284393310546875
1776444106147468800,24.36646875,-0.96197509765625,-0.1450653076171875,0.2498779296875
1776444106187497000,24.4064970703125,-0.9500579833984375,-0.1398468017578125,0.20245361328125
1776444106227524900,24.44652490234375,-0.9521636962890625,-0.1632232666015625,0.1594696044921875
1776444106267552000,24.486552001953125,-0.958740234375,-0.1519012451171875,0.110870361328125
1776444106307579600,24.52657958984375,-0.9373931884765625,-0.1063079833984375,0.0321044921875
1776444106347607800,24.56660791015625,-0.976806640625,-0.1666259765625,-0.140350341796875
1776444106387636000,24.606635986328126,-0.9308319091796875,-0.0893402099609375,-0.1597747802734375
1776444106427662800,24.646662841796875,-0.985137939453125,-0.0477447509765625,-0.2261810302734375
1776444106467691000,24.68669091796875,-0.9869232177734375,0.02008056640625,-0.3064117431640625
1776444106507719000,24.726718994140626,-0.9702606201171875,0.151458740234375,-0.25872802734375
1776444106547746800,24.766746826171875,-0.91290283203125,0.034210205078125,-0.2556304931640625
1776444106587773700,24.806773681640625,-0.96484375,0.062255859375,-0.4834442138671875
1776444106627801900,24.8468017578125,-0.9293060302734375,0.0523529052734375,-0.5360260009765625
1776444106667829800,24.886829833984375,-0.85797119140625,-0.0117034912109375,-0.558685302734375
1776444106707858000,24.92685791015625,-0.809783935546875,0.002685546875,-0.70892333984375
1776444106747885800,24.9668857421875,-0.78741455078125,-0.0250396728515625,-0.6968994140625
1776444106787913700,25.006913818359376,-0.7266693115234375,0.0211181640625,-0.712799072265625
1776444106827940900,25.04694091796875,-0.710205078125,0.018463134765625,-0.691741943359375
1776444106867968800,25.08696875,-0.6719818115234375,-0.018524169921875,-0.6815643310546875
1776444106907997000,25.126996826171876,-0.6551055908203125,0.039337158203125,-0.699554443359375
1776444106948024800,25.16702490234375,-0.641815185546875,-0.00885009765625,-0.7284698486328125
1776444106988052500,25.207052490234375,-0.6174774169921875,0.0135650634765625,-0.7284698486328125
1776444107028080400,25.247080322265624,-0.559967041015625,0.0614166259765625,-0.73541259765625
1776444107068108300,25.2871083984375,-0.521820068359375,0.0285186767578125,-0.8395843505859375
1776444107108135400,25.327135498046875,-0.5087127685546875,0.080291748046875,-0.9328460693359375
1776444107148163300,25.367163330078125,-0.4887847900390625,0.0282440185546875,-0.9829559326171875
1776444107188191500,25.40719140625,-0.4728546142578125,0.0067138671875,-0.9190673828125
1776444107228219400,25.447219482421875,-0.4521636962890625,0.02685546875,-0.8662872314453125
1776444107268246500,25.48724658203125,-0.439605712890625,-0.0301666259765625,-0.81134033203125
1776444107308274400,25.5272744140625,-0.4044036865234375,0.00775146484375,-0.8008575439453125
1776444107348302300,25.56730224609375,-0.3921966552734375,0.01605224609375,-0.883056640625
1776444107388330500,25.60733056640625,-0.385955810546875,0.06103515625,-0.90496826171875
1776444107428357400,25.647357421875,-0.3624420166015625,0.10687255859375,-0.9203033447265625
1776444107468385500,25.687385498046876,-0.342376708984375,0.166015625,-0.9150543212890625
1776444107508413400,25.727413330078125,-0.1667938232421875,0.008087158203125,-0.98211669921875
1776444107548441300,25.76744140625,-0.3626861572265625,0.207489013671875,-1.0658721923828125
1776444107588468200,25.80746826171875,-0.3636016845703125,0.038421630859375,-1.021087646484375
1776444107628496400,25.847496337890625,-0.3431243896484375,0.028350830078125,-1.038665771484375
1776444107668524500,25.887524658203127,-0.360321044921875,0.11407470703125,-0.9835662841796875
1776444107708552400,25.927552490234376,-0.3104248046875,0.055572509765625,-0.8863677978515625
1776444107748579600,25.96757958984375,-0.2653045654296875,0.1686248779296875,-0.9232025146484375
1776444107788607200,26.007607177734375,-0.3008575439453125,0.0635528564453125,-0.9949493408203125
1776444107828635400,26.047635498046876,-0.1872711181640625,0.14642333984375,-0.9298095703125
1776444107868663300,26.087663330078126,-0.274627685546875,0.1032867431640625,-0.87969970703125
1776444107908690400,26.1276904296875,-0.2599029541015625,0.0039520263671875,-0.9773406982421875
1776444107948718300,26.16771826171875,-0.2228546142578125,0.0375823974609375,-0.9457244873046875
1776444107988746200,26.207746337890626,-0.264617919921875,-0.0103302001953125,-1.0691986083984375
1776444108028773000,26.247773193359375,-0.1956939697265625,0.063568115234375,-0.9400177001953125
1776444108068801300,26.28780126953125,-0.138092041015625,0.040313720703125,-0.910888671875
1776444108108829200,26.3278291015625,-0.12646484375,0.0549163818359375,-0.913604736328125
1776444108148857000,26.367857177734376,-0.0807952880859375,0.0228729248046875,-0.821746826171875
1776444108188884200,26.40788427734375,-0.116943359375,-0.0010528564453125,-0.9700164794921875
1776444108228912000,26.447912109375,-0.082855224609375,-0.0810089111328125,-1.0004730224609375
1776444108268940300,26.487940185546876,-0.116851806640625,0.0031280517578125,-1.032501220703125
1776444108308967200,26.52796728515625,-0.10736083984375,-0.0316009521484375,-1.0762176513671875
1776444108348995300,26.567995361328126,-0.1395111083984375,0.007598876953125,-1.0243988037109375
1776444108389023000,26.60802294921875,-0.1887359619140625,-0.030059814453125,-1.0786590576171875
1776444108429051100,26.648051025390625,-0.212615966796875,0.005950927734375,-0.9912872314453125
1776444108469078000,26.688078125,-0.2123565673828125,0.00921630859375,-0.9884033203125
1776444108509106200,26.728106201171876,-0.2607421875,-0.0250091552734375,-1.039093017578125
1776444108549134300,26.76813427734375,-0.26568603515625,-0.00311279296875,-0.9775238037109375
1776444108589161200,26.8081611328125,-0.2790374755859375,-0.034759521484375,-0.97515869140625
1776444108629189400,26.848189453125,-0.2616424560546875,0.03125,-0.966644287109375
1776444108669217000,26.888217041015626,-0.2396697998046875,0.039794921875,-0.955352783203125
1776444108709245200,26.9282451171875,-0.1542510986328125,0.010162353515625,-0.9478302001953125
1776444108749272000,26.96827197265625,-0.058349609375,0.0948944091796875,-0.976043701171875
1776444108789300200,27.00830029296875,-0.1338043212890625,0.0338592529296875,-1.1034088134765625
1776444108829328100,27.048328125,-0.126861572265625,-0.10595703125,-1.0521392822265625
1776444108869355300,27.088355224609376,-0.1688232421875,0.025146484375,-1.1675567626953125
1776444108909383200,27.128383056640626,-0.1349029541015625,0.088104248046875,-1.0817718505859375
1776444108949411000,27.1684111328125,-0.056060791015625,0.119140625,-1.035003662109375
1776444108989439000,27.20843896484375,-0.0436859130859375,0.1357574462890625,-0.97576904296875
1776444109029465900,27.2484658203125,-0.0482330322265625,0.165618896484375,-0.9462738037109375
1776444109069494000,27.288493896484376,-0.1049652099609375,0.03125,-0.9049224853515625
1776444109109522000,27.32852197265625,-0.183807373046875,0.108184814453125,-0.9822235107421875
1776444109149549000,27.368549072265626,-0.1642303466796875,0.2068023681640625,-0.9835968017578125
1776444109189577000,27.408576904296876,-0.16705322265625,0.15057373046875,-0.9726409912109375
1776444109229604900,27.44860498046875,-0.211669921875,0.1519775390625,-0.9910430908203125
1776444109269631700,27.4886318359375,-0.1711273193359375,0.146392822265625,-1.0333251953125
1776444109309660000,27.528659912109376,-0.1324615478515625,0.1235504150390625,-1.1950836181640625
1776444109349687800,27.568687744140625,-0.16851806640625,0.1787567138671875,-0.9837188720703125
1776444109389715000,27.60871484375,-0.0233154296875,0.20867919921875,-0.971435546875
1776444109429742800,27.648742919921876,-0.10931396484375,0.1857147216796875,-0.820587158203125
1776444109469771000,27.68877099609375,-0.0562286376953125,0.1310577392578125,-0.8303070068359375
1776444109509799000,27.728798828125,-0.21160888671875,0.1962432861328125,-0.9120025634765625
1776444109549825800,27.76882568359375,-0.10467529296875,0.18280029296875,-0.9746551513671875
1776444109589854000,27.80885400390625,-0.150726318359375,0.17132568359375,-0.9595794677734375
1776444109629881900,27.8488818359375,-0.1155242919921875,0.210601806640625,-0.93487548828125
1776444109669909000,27.888908935546876,-0.1887054443359375,0.185699462890625,-0.8720703125
1776444109709937000,27.92893701171875,-0.0872955322265625,0.250457763671875,-0.8336944580078125
1776444109749965000,27.968965087890624,-0.1513824462890625,0.1965179443359375,-0.8756866455078125
1776444109789992000,28.008991943359376,-0.1512603759765625,0.1208953857421875,-0.985137939453125
1776444109830019800,28.049019775390626,-0.09332275390625,0.1313018798828125,-1.0183563232421875
1776444109870047700,28.0890478515625,-0.1346588134765625,0.086090087890625,-1.032501220703125
1776444109910075000,28.129074951171877,-0.08447265625,0.0887908935546875,-1.019805908203125
1776444109950102800,28.169102783203126,-0.101654052734375,0.08038330078125,-0.9676055908203125
1776444109990131000,28.209130859375,-0.0962066650390625,0.023773193359375,-1.0793609619140625
1776444110030157800,28.24915771484375,-0.0624237060546875,-0.044281005859375,-1.223480224609375
1776444110070186000,28.28918603515625,-0.06610107421875,0.0446624755859375,-1.0189208984375
1776444110110213600,28.329213623046876,-0.0343017578125,0.093994140625,-0.9588623046875
1776444110150241800,28.36924169921875,-0.049468994140625,0.077606201171875,-1.048431396484375
1776444110190268700,28.4092685546875,-0.122283935546875,0.0861968994140625,-0.9276123046875
1776444110230296800,28.449296875,-0.0972747802734375,0.0563812255859375,-0.8608551025390625
1776444110270325000,28.489324951171874,-0.1734161376953125,-0.0539398193359375,-1.017364501953125
1776444110310352000,28.529351806640626,-0.1633453369140625,-0.0592193603515625,-0.95916748046875
1776444110350380000,28.569380126953124,-0.230133056640625,-0.0238494873046875,-1.0524444580078125
1776444110390407700,28.60940771484375,-0.215667724609375,-0.1112060546875,-0.968902587890625
1776444110430434800,28.649434814453127,-0.2678070068359375,0.0093231201171875,-0.85955810546875
1776444110470462700,28.689462646484376,-0.331756591796875,-0.0329132080078125,-1.029388427734375
1776444110510491000,28.729490966796874,-0.31072998046875,-0.0655059814453125,-0.787139892578125
1776444110550517800,28.769517822265627,-0.25323486328125,-0.0580596923828125,-0.8190155029296875
1776444110590546000,28.8095458984375,-0.036834716796875,-0.0091552734375,-1.05267333984375
1776444110630572800,28.84957275390625,0.0143585205078125,-0.051483154296875,-1.02587890625
1776444110670601000,28.88960107421875,-0.11260986328125,-0.0394287109375,-1.0449066162109375
1776444110710628900,28.92962890625,-0.0120086669921875,0.0027008056640625,-1.1381988525390625
1776444110750656000,28.969656005859374,-0.19891357421875,-0.165618896484375,-1.1102294921875
1776444110790684000,29.009683837890623,-0.069854736328125,-0.0313568115234375,-1.07159423828125
1776444110830711800,29.0497119140625,-0.1179656982421875,-0.0992584228515625,-1.0137481689453125
1776444110870739000,29.089739013671874,-0.175750732421875,-0.08416748046875,-0.907073974609375
1776444110910766800,29.129766845703124,-0.0718231201171875,0.0634918212890625,-0.997528076171875
1776444110950795000,29.169794921875,-0.1441497802734375,0.0240325927734375,-0.987518310546875
1776444110990826000,29.209825927734375,-0.0972900390625,-0.0125579833984375,-0.969329833984375
1776444111030854000,29.24985400390625,-0.1133575439453125,-0.0052947998046875,-1.0068206787109375
1776444111070882000,29.289882080078126,-0.0477447509765625,0.015777587890625,-1.0698699951171875
1776444111110909000,29.329908935546875,-0.0787353515625,-0.056915283203125,-1.1040191650390625
1776444111150937000,29.36993701171875,-0.0620574951171875,-0.036529541015625,-1.04119873046875
1776444111190965000,29.409965087890626,-0.0595855712890625,-0.04254150390625,-1.0116119384765625
1776444111230992100,29.4499921875,-0.0856170654296875,-0.0304412841796875,-0.972930908203125
1776444111271020000,29.49002001953125,-0.0821685791015625,-0.0005035400390625,-0.9606781005859375
1776444111311048000,29.5300478515625,-0.0938568115234375,-0.008209228515625,-0.9583282470703125
1776444111351074800,29.57007470703125,-0.0565338134765625,-0.0059051513671875,-0.947723388671875
1776444111391103000,29.61010302734375,-0.1240081787109375,-0.05157470703125,-0.9381561279296875
1776444111431131000,29.650130859375,-0.0868377685546875,-0.0097808837890625,-0.9371185302734375
1776444111471158000,29.690157958984376,-0.104217529296875,-0.01434326171875,-0.9624786376953125
1776444111511186000,29.73018603515625,-0.0990753173828125,-0.0009918212890625,-0.938568115234375
1776444111551214000,29.770214111328126,-0.142242431640625,0.0184478759765625,-0.99493408203125
1776444111591241000,29.810240966796876,-0.0491180419921875,0.05401611328125,-0.9739990234375
1776444111631268900,29.850268798828125,-0.069610595703125,-0.03369140625,-0.9915313720703125
1776444111671296000,29.8902958984375,-0.0701904296875,-0.1161956787109375,-1.0524749755859375
1776444111711324000,29.930323974609376,-0.1279449462890625,-0.1407470703125,-1.02947998046875
1776444111751352000,29.97035205078125,-0.08660888671875,-0.096160888671875,-1.055938720703125
1776444111791379000,30.01037890625,0.0058441162109375,-0.0904998779296875,-1.079071044921875
1776444111831407000,30.050406982421876,0.012451171875,-0.0311279296875,-1.0756683349609375
1776444111871435000,30.09043505859375,-0.113433837890625,0.0417938232421875,-0.9993896484375
1776444111911462100,30.130462158203127,0.01226806640625,-0.0286865234375,-0.90728759765625
1776444111951490000,30.170489990234376,-0.1773529052734375,-0.1214752197265625,-0.95751953125
1776444111991516400,30.210516357421874,-0.0807342529296875,0.0215606689453125,-1.0271148681640625
1776444112031543600,30.25054345703125,-0.1035308837890625,-0.0832672119140625,-1.0314788818359375
1776444112071571500,30.290571533203124,-0.1071929931640625,-0.1019439697265625,-1.083526611328125
1776444112111598600,30.3305986328125,-0.1121826171875,-0.067718505859375,-1.17352294921875
1776444112151626200,30.370626220703127,-0.092193603515625,-0.185272216796875,-1.1137237548828125
1776444112191654400,30.410654296875,-0.0587158203125,-0.055145263671875,-1.059478759765625
1776444112231681300,30.450681396484374,-0.0636138916015625,-0.0018463134765625,-0.91302490234375
1776444112271709400,30.49070947265625,-0.1429901123046875,-0.031585693359375,-0.9642333984375
1776444112311737300,30.5307373046875,-0.1036834716796875,0.0208892822265625,-0.8838348388671875
1776444112351764500,30.570764404296874,-0.098388671875,0.040924072265625,-0.909515380859375
1776444112391792400,30.61079248046875,-0.2316131591796875,-0.051483154296875,-0.916595458984375
1776444112431819500,30.650819580078124,-0.292999267578125,-0.06634521484375,-0.8449859619140625
1776444112471847200,30.69084716796875,-0.1694488525390625,-0.0263671875,-0.9447479248046875
1776444112511875300,30.730875244140623,-0.2338714599609375,-0.088592529296875,-1.0347137451171875
1776444112551902200,30.770902099609376,-0.169769287109375,-0.0358123779296875,-0.9192047119140625
1776444112591930400,30.810930419921874,-0.1465606689453125,-0.021331787109375,-1.01995849609375
1776444112631958500,30.85095849609375,-0.17193603515625,-0.0602264404296875,-1.0089874267578125
1776444112671985400,30.8909853515625,-0.0720977783203125,0.0162506103515625,-1.0117645263671875
1776444112712013600,30.931013671875,-0.139678955078125,-0.1310882568359375,-1.048980712890625
1776444112752040400,30.97104052734375,-0.0212249755859375,-0.0016326904296875,-1.0081787109375
1776444112792068600,31.011068603515625,-0.094573974609375,-0.014129638671875,-0.9878387451171875
1776444112832096300,31.05109619140625,-0.0201873779296875,0.049957275390625,-0.9658203125
1776444112872123400,31.091123291015624,-0.106170654296875,-0.0613861083984375,-1.0455169677734375
1776444112912151300,31.1311513671875,-0.1230010986328125,-0.0268707275390625,-1.20953369140625
1776444112952179500,31.171179443359375,-0.0568695068359375,0.2076568603515625,-1.025360107421875
1776444112992204300,31.211204345703123,-0.0193634033203125,-0.0435943603515625,-1.140350341796875
1776444113032232200,31.251232177734376,-0.128662109375,0.119537353515625,-1.1007080078125
1776444113072259000,31.291259033203126,-0.2042694091796875,0.03167724609375,-0.89190673828125
1776444113112287200,31.331287353515624,-0.2071990966796875,0.2495880126953125,-0.8536376953125
1776444113152315100,31.371315185546877,-0.3330535888671875,0.215423583984375,-0.8712310791015625
1776444113192342300,31.41134228515625,-0.134796142578125,0.1766510009765625,-0.8798828125
1776444113232370200,31.4513701171875,-0.183441162109375,0.11810302734375,-0.863311767578125
1776444113272397300,31.491397216796877,-0.168792724609375,0.0361328125,-0.86181640625
1776444113312425200,31.53142529296875,-0.196258544921875,-0.0088043212890625,-0.798309326171875
1776444113352453000,31.571453125,-0.198822021484375,-0.115325927734375,-0.88824462890625
1776444113392480300,31.611480224609377,-0.1901092529296875,0.0518798828125,-0.9523468017578125
1776444113432508200,31.651508056640626,-0.1954345703125,0.0192718505859375,-1.0328826904296875
1776444113472535000,31.69153515625,-0.2552947998046875,0.0078582763671875,-1.086181640625
1776444113512563200,31.731563232421873,-0.311370849609375,-0.0567474365234375,-1.0786285400390625
1776444113552591400,31.77159130859375,-0.3227386474609375,-0.0145111083984375,-1.0556488037109375
1776444113592618200,31.8116181640625,-0.2862701416015625,0.1047515869140625,-1.0400390625
1776444113632646400,31.851646484375,-0.2784423828125,0.1176300048828125,-1.0324859619140625
1776444113672673300,31.89167333984375,-0.2744140625,0.1164398193359375,-1.0224761962890625
1776444113712701400,31.931701416015624,-0.261810302734375,0.097625732421875,-0.971405029296875
1776444113752729000,31.97172900390625,-0.2562408447265625,0.117095947265625,-0.9971771240234375
1776444113792756200,32.01175610351562,-0.26837158203125,0.1290435791015625,-0.98187255859375
1776444113832784100,32.0517841796875,-0.270263671875,0.084716796875,-0.9589996337890625
1776444113872811300,32.09181127929688,-0.269989013671875,0.201751708984375,-0.8769683837890625
1776444113912839200,32.13183911132813,-0.282379150390625,0.2132415771484375,-0.8606414794921875
1776444113952867300,32.17186743164063,-0.2797088623046875,0.0920562744140625,-0.8718414306640625
1776444113992898300,32.211898193359374,-0.26849365234375,0.1679534912109375,-0.8688507080078125
1776444114032926200,32.25192626953125,-0.2546539306640625,0.154449462890625,-0.8434600830078125
1776444114072953300,32.29195336914062,-0.2425689697265625,0.0414886474609375,-0.9271392822265625
1776444114112981000,32.33198095703125,-0.2169952392578125,0.055328369140625,-0.914398193359375
1776444114153008000,32.372008056640624,-0.1932373046875,0.054962158203125,-1.0075836181640625
1776444114193036000,32.4120361328125,-0.173797607421875,0.0358123779296875,-1.00567626953125
1776444114233064200,32.452064208984375,-0.165008544921875,0.083099365234375,-1.0535736083984375
1776444114273091000,32.49209106445313,-0.1263427734375,0.0186767578125,-1.1097564697265625
1776444114313119200,32.532119140625,0.072021484375,0.0362091064453125,-0.9443817138671875
1776444114353146000,32.57214599609375,0.0595703125,0.1383514404296875,-1.01837158203125
1776444114393174300,32.61217431640625,-0.0606689453125,0.1452178955078125,-1.01275634765625
1776444114433202200,32.6522021484375,-0.1828155517578125,0.136138916015625,-1.0554962158203125
1776444114473229000,32.69222900390625,-0.0644683837890625,0.0161590576171875,-0.97381591796875
1776444114513257200,32.73225732421875,-0.0849761962890625,0.137969970703125,-0.924285888671875
1776444114553284000,32.7722841796875,-0.1655731201171875,0.061859130859375,-0.9369659423828125
1776444114593312300,32.812312255859375,-0.2365570068359375,0.1075592041015625,-1.0147247314453125
1776444114633339100,32.85233911132813,-0.202606201171875,0.026123046875,-1.021942138671875
1776444114673367300,32.8923671875,-0.2077178955078125,-0.06256103515625,-1.037506103515625
1776444114713395200,32.93239526367187,-0.2843017578125,-0.11553955078125,-1.0976715087890625
1776444114753422300,32.97242236328125,-0.22265625,-0.063507080078125,-1.0987091064453125
1776444114793450200,33.0124501953125,-0.169158935546875,0.0152130126953125,-1.0712890625
1776444114833477400,33.05247729492187,-0.1396026611328125,0.0509033203125,-1.0571441650390625
1776444114873505000,33.09250512695313,-0.090911865234375,0.071014404296875,-0.9522857666015625
1776444114913533200,33.132533203125,-0.0338897705078125,0.0208282470703125,-0.904510498046875
1776444114953560000,33.17256005859375,-0.107421875,0.0591888427734375,-0.976104736328125
1776444114993587700,33.21258764648437,-0.00872802734375,-0.0448760986328125,-1.0121917724609375
1776444115033614800,33.25261474609375,-0.001068115234375,-0.0173797607421875,-1.0566253662109375
1776444115073642800,33.29264282226563,-0.018951416015625,-0.0115966796875,-1.07330322265625
1776444115113670000,33.332669921875,-0.0139923095703125,-0.0319366455078125,-1.0733795166015625
1776444115153697800,33.37269775390625,0.0173492431640625,-0.0157623291015625,-1.122283935546875
1776444115193726000,33.412725830078124,-0.0104522705078125,0.03289794921875,-0.94708251953125
1776444115233752800,33.4527529296875,-0.0436248779296875,0.0550537109375,-0.92572021484375
1776444115273780700,33.49278076171875,-0.05731201171875,0.0406341552734375,-0.9420928955078125
1776444115313807600,33.5328076171875,-0.1151275634765625,0.1021728515625,-0.9636383056640625
1776444115353834800,33.572834716796876,-0.1316375732421875,0.0886383056640625,-1.0081939697265625
1776444115393862700,33.612862548828126,-0.1900787353515625,0.1302947998046875,-0.9622955322265625
1776444115433889800,33.65288989257812,-0.198822021484375,0.0986480712890625,-0.8201141357421875
1776444115473917700,33.69291772460937,-0.2302093505859375,0.1075592041015625,-0.9363250732421875
1776444115513945900,33.73294580078125,-0.2452545166015625,0.0430450439453125,-0.8502655029296875
1776444115553972700,33.77297265625,-0.200775146484375,0.111846923828125,-0.87054443359375
1776444115594001000,33.8130009765625,-0.2643890380859375,0.1184539794921875,-0.8800811767578125
1776444115634027800,33.85302783203125,-0.282440185546875,-0.0281829833984375,-0.80511474609375
1776444115674056000,33.893055908203124,-0.0579071044921875,0.1324462890625,-1.07769775390625
1776444115714082800,33.93308276367188,-0.0433197021484375,0.0478363037109375,-0.9799957275390625
1776444115754110700,33.97311083984375,-0.306915283203125,0.02899169921875,-1.0605316162109375
1776444115794138600,34.013138671875,-0.1625823974609375,0.106964111328125,-1.1036376953125
1776444115834165800,34.05316577148437,0.0526885986328125,0.0947265625,-1.12518310546875
1776444115874193700,34.09319360351562,-0.0722198486328125,0.06005859375,-1.0886077880859375
1776444115914220800,34.133220703125,-0.0505523681640625,0.0979156494140625,-1.0506591796875
1776444115954248700,34.17324877929688,-0.0916900634765625,0.1298980712890625,-0.952423095703125
1776444115994272000,34.21327197265625,-0.1571044921875,0.1600494384765625,-0.9406280517578125
1776444116034300200,34.25330004882812,-0.1702423095703125,0.15728759765625,-0.901397705078125
1776444116074327000,34.2933271484375,-0.200103759765625,0.0892181396484375,-0.997406005859375
1776444116114355200,34.33335522460938,-0.203277587890625,-0.0133514404296875,-0.91412353515625
1776444116154382800,34.3733828125,-0.0618133544921875,0.0244903564453125,-1.07177734375
1776444116194410000,34.41340991210937,-0.0611572265625,0.0699005126953125,-1.17279052734375
1776444116234438000,34.45343798828125,-0.071563720703125,0.0031585693359375,-1.00665283203125
1776444116274465000,34.49346508789063,-0.116119384765625,-0.0406036376953125,-0.98779296875
1776444116314493000,34.533492919921876,-0.1063079833984375,-0.0177764892578125,-0.9546356201171875
1776444116354520000,34.57352001953125,-0.1815185546875,-0.0430755615234375,-0.95501708984375
1776444116394548000,34.6135478515625,-0.185516357421875,-0.007354736328125,-0.9490966796875
1776444116434575000,34.6535751953125,-0.1773834228515625,0.026092529296875,-0.9970245361328125
1776444116474603000,34.69360302734375,-0.2516632080078125,0.0759735107421875,-1.0095062255859375
1776444116514630100,34.73363012695312,0.032257080078125,0.1701812744140625,-1.0742645263671875
1776444116554658000,34.77365795898437,-0.137847900390625,0.06414794921875,-1.0577850341796875
1776444116594686000,34.81368603515625,-0.108978271484375,0.0122528076171875,-1.01824951171875
1776444116634712800,34.853712890625,-0.068115234375,0.0054931640625,-1.02679443359375
1776444116674741000,34.89374096679688,-0.14251708984375,-0.0500335693359375,-0.9722137451171875
1776444116714768000,34.93376782226562,-0.156463623046875,-0.1068115234375,-0.9845428466796875
1776444116754796000,34.973796142578124,-0.155517578125,-0.0785369873046875,-0.950103759765625
1776444116794823000,35.01382299804688,-0.1295928955078125,-0.070587158203125,-0.9592132568359375
1776444116834851000,35.05385107421875,-0.1618499755859375,-0.0316925048828125,-0.95770263671875
1776444116874878000,35.0938779296875,-0.178985595703125,-0.0434722900390625,-0.9891815185546875
1776444116914906000,35.13390600585937,-0.2268218994140625,-0.0960540771484375,-0.9486846923828125
1776444116954933000,35.17393310546875,-0.0846099853515625,-0.1981353759765625,-0.962738037109375
1776444116994961200,35.21396118164063,-0.2064056396484375,-0.115997314453125,-0.8719024658203125
1776444117034988300,35.25398828125,-0.22760009765625,-0.0961761474609375,-0.962646484375
1776444117075016200,35.29401611328125,-0.160247802734375,-0.156707763671875,-0.8869476318359375
1776444117115044400,35.33404443359375,-0.0868072509765625,-0.0493621826171875,-0.97735595703125
1776444117155071200,35.3740712890625,-0.1639556884765625,-0.0046234130859375,-1.0608367919921875
1776444117195099400,35.41409936523438,-0.1782989501953125,0.0232391357421875,-1.184967041015625
1776444117235126300,35.454126220703124,-0.087982177734375,-0.147186279296875,-1.19586181640625
1776444117275154400,35.494154541015625,0.0988616943359375,-0.0613555908203125,-0.9652252197265625
1776444117315181300,35.53418139648438,-0.1638031005859375,-0.1537322998046875,-0.8904571533203125
1776444117355209500,35.57420947265625,-0.072235107421875,-0.1544952392578125,-0.932220458984375
1776444117395236400,35.614236328125,-0.0252838134765625,-0.1172943115234375,-0.96240234375
1776444117435264300,35.65426416015625,-0.15423583984375,-0.238311767578125,-1.114288330078125
1776444117475291100,35.694291015625,-0.0849761962890625,-0.232208251953125,-1.1701202392578125
1776444117515319300,35.7343193359375,-0.1193084716796875,-0.286590576171875,-1.09271240234375
1776444117555346200,35.77434619140625,-0.105987548828125,-0.1991424560546875,-0.9764251708984375
1776444117595374300,35.814374267578124,-0.1392974853515625,-0.137664794921875,-0.9729766845703125
1776444117635401200,35.85440112304688,-0.0464324951171875,-0.0011749267578125,-0.91619873046875
1776444117675429400,35.89442944335938,-0.20001220703125,-0.1064910888671875,-0.7907257080078125
1776444117715456300,35.934456298828124,-0.1903076171875,-0.095855712890625,-0.9580078125
1776444117755484400,35.974484375,-0.24224853515625,-0.189544677734375,-0.9060516357421875
1776444117795512300,36.01451220703125,-0.2380218505859375,-0.1804046630859375,-0.917694091796875
1776444117835539500,36.05453955078125,-0.2311248779296875,-0.165374755859375,-0.988861083984375
1776444117875567400,36.0945673828125,-0.1842193603515625,-0.09869384765625,-0.99798583984375
1776444117915594200,36.13459423828125,-0.1818389892578125,-0.044830322265625,-1.003021240234375
1776444117955622400,36.174622314453124,-0.175689697265625,-0.0151824951171875,-0.97607421875
1776444117995648500,36.2146484375,-0.1664276123046875,-0.05975341796875,-1.0294952392578125
1776444118035676700,36.2546767578125,-0.12469482421875,0.0117340087890625,-1.117950439453125
1776444118075703600,36.29470361328125,-0.0972442626953125,0.052276611328125,-0.98724365234375
1776444118115731700,36.33473168945312,-0.2119598388671875,0.036529541015625,-0.9423675537109375
1776444118155758600,36.374758544921875,-0.1417694091796875,0.024505615234375,-0.9969635009765625
1776444118195786800,36.414786865234376,-0.2290496826171875,-0.132781982421875,-1.268341064453125
1776444118235813600,36.45481372070312,-0.169403076171875,-0.04547119140625,-1.0089569091796875
1776444118275841800,36.494841796875,-0.1462249755859375,-0.0389862060546875,-0.89276123046875
1776444118315868700,36.53486865234375,-0.058013916015625,0.0157623291015625,-0.6690826416015625
1776444118355896800,36.574896728515625,-0.2952117919921875,0.05322265625,-0.9530029296875
1776444118395923700,36.614923828125,-0.24359130859375,0.0820159912109375,-0.976776123046875
1776444118435951600,36.65495166015625,-0.1635284423828125,0.1232452392578125,-0.9393310546875
1776444118475978500,36.694978515625,-0.1819305419921875,0.09942626953125,-1.0489349365234375
1776444118516006700,36.735006591796875,-0.3088836669921875,-0.0229339599609375,-1.11041259765625
1776444118556033500,36.77503344726563,-0.2866058349609375,-0.030303955078125,-1.1773681640625
1776444118596061700,36.81506176757812,-0.236053466796875,-0.020599365234375,-1.0290679931640625
1776444118636088600,36.855088623046875,-0.261566162109375,0.0315093994140625,-0.9838104248046875
1776444118676116700,36.89511669921875,-0.29681396484375,-0.0911712646484375,-0.8858642578125
1776444118716144600,36.93514453125,-0.27752685546875,0.071502685546875,-0.863739013671875
1776444118756171800,36.975171875,-0.210784912109375,0.0878448486328125,-0.879852294921875
1776444118796199700,37.01519970703125,-0.1548309326171875,0.1049652099609375,-0.8954315185546875
1776444118836226800,37.055226806640626,-0.1644744873046875,0.037353515625,-0.920166015625
1776444118876254500,37.09525439453125,-0.19427490234375,0.0713348388671875,-0.8998260498046875
1776444118916281600,37.13528149414063,-0.21514892578125,0.0067291259765625,-0.9022369384765625
1776444118956309500,37.1753095703125,-0.257537841796875,-0.0467681884765625,-0.9239044189453125
1776444118996336400,37.21533642578125,-0.2853240966796875,-0.085693359375,-0.9575653076171875
1776444119036364500,37.255364501953125,-0.2891387939453125,-0.129180908203125,-0.9531097412109375
1776444119076391400,37.29539135742188,-0.266387939453125,-0.1130828857421875,-0.9615936279296875
1776444119116419600,37.33541967773437,-0.2760467529296875,-0.0796051025390625,-0.987152099609375
1776444119156446500,37.375446533203124,-0.273712158203125,-0.1717529296875,-1.0041351318359375
1776444119196474600,37.415474609375,-0.2752532958984375,-0.1248779296875,-1.013092041015625
1776444119236501500,37.45550146484375,-0.240753173828125,-0.120697021484375,-1.016754150390625
1776444119276529700,37.49552978515625,-0.1956329345703125,-0.0160369873046875,-0.97918701171875
1776444119316556500,37.535556640625,-0.1727752685546875,0.0599365234375,-0.9384918212890625
1776444119356584400,37.57558447265625,-0.20556640625,-0.051727294921875,-0.99700927734375
1776444119396611300,37.615611328125,-0.1754150390625,-0.0242462158203125,-0.9604644775390625
1776444119436639500,37.65563940429688,-0.125762939453125,0.07415771484375,-0.9287261962890625
1776444119476666400,37.69566625976562,-0.1436614990234375,-0.0460662841796875,-0.984344482421875
1776444119516694500,37.735694580078125,-0.003662109375,-0.0732269287109375,-0.9065399169921875
1776444119556721400,37.77572143554688,0.03424072265625,0.0269927978515625,-0.950714111328125
1776444119596749600,37.81574951171875,0.015960693359375,-0.0467071533203125,-1.11370849609375
