time,seconds_elapsed,z,y,x
1776444081854178000,0.073177978515625,-37.64117431640625,13.855743408203125,13.134170532226562
1776444081879195000,0.09819482421875,-37.408050537109375,13.986099243164062,13.080963134765625
1776444081904213000,0.123212890625,-37.7020263671875,13.662918090820312,13.140533447265625
1776444081929230800,0.14823095703125,-37.8658447265625,13.57147216796875,13.109420776367188
1776444081954249200,0.173249267578125,-38.373870849609375,13.493927001953125,13.123428344726562
1776444081979266000,0.19826611328125,-37.96551513671875,13.18890380859375,12.984390258789062
1776444082004284200,0.2232841796875,-38.069366455078125,13.2171630859375,13.081008911132812
1776444082029302000,0.248302001953125,-38.0958251953125,12.99945068359375,13.227920532226562
1776444082054320000,0.273320068359375,-38.308990478515625,12.752456665039062,13.49835205078125
1776444082079337200,0.298337158203125,-38.13812255859375,12.266510009765625,13.629547119140625
1776444082104355000,0.32335498046875,-38.241912841796875,12.373764038085938,13.8402099609375
1776444082129373200,0.348373291015625,-38.52911376953125,12.225326538085938,13.912673950195312
1776444082154391000,0.37339111328125,-38.458099365234375,11.845489501953125,13.74200439453125
1776444082179408100,0.398408203125,-39.012451171875,11.8311767578125,13.359283447265625
1776444082204426000,0.423426025390625,-39.347503662109375,11.125885009765625,13.177276611328125
1776444082229444400,0.4484443359375,-39.143157958984375,10.525924682617188,12.90093994140625
1776444082254462200,0.473462158203125,-39.532012939453125,10.449661254882812,13.159194946289062
1776444082279479300,0.498479248046875,-40.139251708984375,10.080062866210938,13.148712158203125
1776444082304497200,0.5234970703125,-39.219879150390625,9.789276123046875,13.47052001953125
1776444082329515300,0.548515380859375,-39.7296142578125,9.485504150390625,13.617294311523438
1776444082354532400,0.573532470703125,-39.65130615234375,9.11859130859375,13.89398193359375
1776444082379550200,0.59855029296875,-39.959197998046875,8.678665161132812,13.865066528320312
1776444082404568300,0.623568359375,-39.242950439453125,8.924514770507812,14.320755004882812
1776444082429586200,0.648586181640625,-39.252655029296875,9.424819946289062,14.737091064453125
1776444082454603300,0.673603271484375,-38.94439697265625,9.427169799804688,15.120254516601562
1776444082479621000,0.69862109375,-38.869873046875,9.816665649414062,15.160797119140625
1776444082504639200,0.72363916015625,-38.6146240234375,9.741943359375,15.327423095703125
1776444082529657000,0.748656982421875,-38.73699951171875,9.849960327148438,15.149490356445312
1776444082554674200,0.773674072265625,-38.777191162109375,10.160232543945312,15.355300903320312
1776444082579692000,0.798692138671875,-39.017608642578125,9.67681884765625,14.944290161132812
1776444082604710100,0.823710205078125,-38.8968505859375,10.009414672851562,14.97283935546875
1776444082629728000,0.84872802734375,-39.159881591796875,9.881118774414062,14.645294189453125
1776444082654745000,0.8737451171875,-38.554595947265625,9.865386962890625,14.758621215820312
1776444082679763200,0.89876318359375,-38.974639892578125,10.319961547851562,14.732345581054688
1776444082704781000,0.923781005859375,-38.6204833984375,9.72088623046875,14.601531982421875
1776444082729798100,0.948798095703125,-38.7335205078125,9.867141723632812,14.4842529296875
1776444082754816000,0.97381591796875,-38.89654541015625,10.369796752929688,14.495391845703125
1776444082779834400,0.99883447265625,-39.029754638671875,10.189971923828125,14.204147338867188
1776444082804852200,1.023852294921875,-38.916351318359375,10.057571411132812,14.057098388671875
1776444082829869300,1.048869384765625,-39.17877197265625,10.198822021484375,14.11724853515625
1776444082854887200,1.07388720703125,-39.12286376953125,9.9510498046875,13.85418701171875
1776444082879905300,1.0989052734375,-39.317535400390625,9.631057739257812,13.868316650390625
1776444082904922400,1.12392236328125,-39.912811279296875,9.191741943359375,13.695877075195312
1776444082929940200,1.148940185546875,-39.392181396484375,8.881256103515625,14.03729248046875
1776444082954957800,1.173957763671875,-39.85333251953125,8.275039672851562,14.274856567382812
1776444082979975700,1.1989755859375,-39.988189697265625,7.7128753662109375,14.011032104492188
1776444083004992800,1.22399267578125,-40.041168212890625,7.36016845703125,14.563858032226562
1776444083030010600,1.2490107421875,-40.1688232421875,6.505523681640625,14.524627685546875
1776444083055028700,1.27402880859375,-40.54443359375,5.7557220458984375,15.016357421875
1776444083080046600,1.299046630859375,-40.317352294921875,5.0858612060546875,15.243011474609375
1776444083105063700,1.324063720703125,-39.931915283203125,3.824493408203125,15.659103393554688
1776444083130081500,1.34908154296875,-40.002593994140625,3.1534423828125,15.424453735351562
1776444083155099600,1.374099609375,-40.85382080078125,2.2047271728515625,15.470291137695312
1776444083180116700,1.39911669921875,-40.87030029296875,1.8780364990234375,15.74530029296875
1776444083205134600,1.424134521484375,-40.69403076171875,0.6826629638671875,16.067520141601562
1776444083230153000,1.449153076171875,-40.5001220703125,0.402191162109375,16.332138061523438
1776444083255170800,1.4741708984375,-39.637420654296875,-0.5607147216796875,16.648284912109375
1776444083280188000,1.49918798828125,-39.859039306640625,-0.96502685546875,16.69085693359375
1776444083305205800,1.524205810546875,-40.736602783203125,-1.9456024169921875,16.786361694335938
1776444083330223900,1.549223876953125,-39.98492431640625,-2.553009033203125,16.879547119140625
1776444083355240700,1.57424072265625,-40.05401611328125,-3.0392608642578125,16.642913818359375
1776444083380258800,1.5992587890625,-40.880615234375,-3.1835784912109375,16.592422485351562
1776444083405276700,1.624276611328125,-40.359649658203125,-3.9019927978515625,16.666122436523438
1776444083430294800,1.649294677734375,-40.470672607421875,-4.298126220703125,16.98919677734375
1776444083455312000,1.674311767578125,-40.658477783203125,-5.1985626220703125,16.483245849609375
1776444083480329700,1.699329833984375,-40.864013671875,-5.8294525146484375,16.357162475585938
1776444083505347800,1.724347900390625,-40.4525146484375,-6.19635009765625,16.326766967773438
1776444083530364700,1.74936474609375,-40.64666748046875,-6.8216705322265625,16.278732299804688
1776444083555382800,1.7743828125,-40.6182861328125,-7.3268890380859375,16.4984130859375
1776444083580400600,1.799400634765625,-40.374176025390625,-7.9269866943359375,15.986083984375
1776444083605418800,1.824418701171875,-40.41961669921875,-8.584152221679688,15.708892822265625
1776444083630435600,1.849435546875,-40.64776611328125,-8.9996337890625,15.500244140625
1776444083655453700,1.87445361328125,-40.869964599609375,-9.039215087890625,15.057754516601562
1776444083680471600,1.899471435546875,-40.181365966796875,-9.919403076171875,14.4989013671875
1776444083705488600,1.924488525390625,-40.462799072265625,-10.383346557617188,14.520217895507812
1776444083730506800,1.9495068359375,-40.66876220703125,-10.924209594726562,14.389022827148438
1776444083755524600,1.974524658203125,-40.716522216796875,-11.19195556640625,14.053863525390625
1776444083780543000,1.99954296875,-40.47589111328125,-11.338150024414062,13.542037963867188
1776444083805559600,2.0245595703125,-40.53765869140625,-11.8302001953125,13.261795043945312
1776444083830578000,2.049577880859375,-40.12506103515625,-12.3831787109375,13.256027221679688
1776444083855595800,2.074595703125,-40.2735595703125,-13.020156860351562,13.12933349609375
1776444083880612900,2.09961279296875,-39.484588623046875,-13.936904907226562,13.773147583007812
1776444083905630700,2.124630615234375,-39.224517822265625,-14.544387817382812,13.499267578125
1776444083930648800,2.14964892578125,-39.109466552734375,-15.353805541992188,13.82427978515625
1776444083955666000,2.174666015625,-39.201873779296875,-15.44696044921875,13.994155883789062
1776444083980683800,2.199683837890625,-39.180328369140625,-15.872299194335938,13.777130126953125
1776444084005702000,2.224701904296875,-39.02789306640625,-16.354583740234375,13.323150634765625
1776444084030719700,2.2497197265625,-39.56292724609375,-16.487136840820312,12.47076416015625
1776444084055736800,2.27473681640625,-39.305633544921875,-16.346145629882812,11.99554443359375
1776444084080754700,2.299754638671875,-39.070831298828125,-16.641006469726562,11.49932861328125
1776444084105772800,2.324772705078125,-39.546356201171875,-16.948013305664062,11.354202270507812
1776444084130789600,2.34978955078125,-39.09686279296875,-16.605117797851562,11.444046020507812
1776444084155807700,2.374807861328125,-39.7952880859375,-16.68157958984375,10.98077392578125
1776444084180825600,2.39982568359375,-39.79266357421875,-16.75640869140625,10.544143676757812
1776444084205843700,2.42484375,-40.05938720703125,-16.633956909179688,10.292755126953125
1776444084230860800,2.44986083984375,-40.28826904296875,-16.590057373046875,10.046844482421875
1776444084255878700,2.474878662109375,-40.618865966796875,-16.382949829101562,10.1173095703125
1776444084280897000,2.49989697265625,-40.507049560546875,-16.262191772460938,9.890335083007812
1776444084305913600,2.52491357421875,-40.566375732421875,-16.276504516601562,10.047653198242188
1776444084330932000,2.549931884765625,-40.5167236328125,-16.23583984375,10.034637451171875
1776444084355949800,2.57494970703125,-40.20928955078125,-16.029541015625,10.267745971679688
1776444084380967000,2.599966796875,-40.103759765625,-16.141387939453125,10.494049072265625
1776444084405984800,2.62498486328125,-40.13275146484375,-16.535537719726562,10.309860229492188
1776444084431003000,2.6500029296875,-40.454010009765625,-16.501541137695312,10.199539184570312
1776444084456020700,2.675020751953125,-40.39239501953125,-16.64215087890625,10.095993041992188
1776444084481037800,2.700037841796875,-40.454132080078125,-16.997695922851562,9.590301513671875
1776444084506056000,2.725055908203125,-40.33197021484375,-17.135772705078125,9.378814697265625
1776444084531073800,2.75007373046875,-40.425628662109375,-17.3880615234375,8.641372680664062
1776444084556091000,2.7750908203125,-40.115753173828125,-17.659835815429688,8.258956909179688
1776444084581108700,2.800108642578125,-40.4864501953125,-17.865951538085938,7.0898590087890625
1776444084606126800,2.825126953125,-40.84698486328125,-18.09478759765625,6.5781707763671875
1776444084631144700,2.850144775390625,-40.70086669921875,-18.440475463867188,5.5492401123046875
1776444084656161800,2.875161865234375,-40.908782958984375,-18.965774536132812,4.482452392578125
1776444084681179600,2.9001796875,-41.07275390625,-19.2264404296875,3.2372589111328125
1776444084706197800,2.92519775390625,-40.56561279296875,-19.281173706054688,2.8100128173828125
1776444084731214800,2.95021484375,-40.75006103515625,-19.090972900390625,1.8390350341796875
1776444084756232700,2.975232666015625,-40.569091796875,-19.432479858398438,1.51123046875
1776444084781250800,3.000250732421875,-40.531707763671875,-19.694549560546875,1.5743408203125
1776444084806268700,3.0252685546875,-40.5732421875,-19.558059692382812,0.88555908203125
1776444084831285800,3.05028564453125,-40.62225341796875,-19.3221435546875,0.1490631103515625
1776444084856303600,3.0753037109375,-40.763458251953125,-19.577651977539062,-0.0618133544921875
1776444084881321700,3.10032177734375,-40.76763916015625,-19.212448120117188,-0.504669189453125
1776444084906338800,3.1253388671875,-41.117523193359375,-18.901412963867188,-0.6358795166015625
1776444084931356700,3.150356689453125,-41.341064453125,-19.168487548828125,-1.3981781005859375
1776444084956375000,3.175375,-40.98504638671875,-19.2506103515625,-2.067596435546875
1776444084981392100,3.20039208984375,-40.739990234375,-19.209884643554688,-2.5792083740234375
1776444085006410200,3.22541015625,-40.578826904296875,-19.236099243164062,-3.73931884765625
1776444085031428400,3.250428466796875,-40.340240478515625,-19.29705810546875,-4.9971466064453125
1776444085056445400,3.275445556640625,-40.383514404296875,-19.209060668945312,-5.4885711669921875
1776444085081463300,3.30046337890625,-40.32666015625,-18.652069091796875,-7.1693267822265625
1776444085106481400,3.3254814453125,-40.25201416015625,-18.725433349609375,-7.8576202392578125
1776444085131499300,3.350499267578125,-40.41009521484375,-18.075469970703125,-8.635589599609375
1776444085156516400,3.375516357421875,-40.235504150390625,-17.710464477539062,-9.097763061523438
1776444085181534200,3.4005341796875,-40.70086669921875,-17.137710571289062,-9.6785888671875
1776444085206552300,3.42555224609375,-40.800384521484375,-16.498458862304688,-10.098770141601562
1776444085231569400,3.4505693359375,-41.01251220703125,-15.96295166015625,-10.659820556640625
1776444085256587300,3.475587158203125,-41.05926513671875,-15.610183715820312,-10.925338745117188
1776444085281605000,3.500605224609375,-41.22601318359375,-14.89996337890625,-11.497283935546875
1776444085306623200,3.525623291015625,-41.41583251953125,-14.64697265625,-11.715087890625
1776444085331640300,3.550640380859375,-41.38970947265625,-14.27392578125,-12.3118896484375
1776444085356658200,3.575658203125,-41.054656982421875,-14.0494384765625,-12.791336059570312
1776444085381676300,3.60067626953125,-40.613037109375,-13.51812744140625,-13.37786865234375
1776444085406693000,3.625693115234375,-40.623046875,-13.491317749023438,-13.921279907226562
1776444085431711200,3.650711181640625,-40.490478515625,-13.172149658203125,-14.494613647460938
1776444085456729000,3.67572900390625,-40.511962890625,-12.93743896484375,-15.137039184570312
1776444085481746200,3.70074609375,-40.260406494140625,-12.206512451171875,-16.10235595703125
1776444085506764300,3.725764404296875,-39.609771728515625,-12.064498901367188,-17.0240478515625
1776444085531782100,3.7507822265625,-40.130645751953125,-11.204116821289062,-18.1185302734375
1776444085556800000,3.775800048828125,-39.887420654296875,-10.776123046875,-18.693954467773438
1776444085581817000,3.800817138671875,-39.3489990234375,-9.957794189453125,-18.935943603515625
1776444085606835200,3.825835205078125,-39.555389404296875,-9.366455078125,-19.337936401367188
1776444085631853300,3.850853271484375,-39.627716064453125,-8.894668579101562,-19.602859497070312
1776444085656870100,3.8758701171875,-39.678436279296875,-8.665740966796875,-19.22515869140625
1776444085681888300,3.90088818359375,-40.130126953125,-7.9335174560546875,-19.095657348632812
1776444085706906400,3.92590625,-40.436981201171875,-7.7104034423828125,-19.255218505859375
1776444085731923500,3.95092333984375,-40.212371826171875,-7.5101165771484375,-18.844940185546875
1776444085756941300,3.97594140625,-40.325164794921875,-7.1774749755859375,-18.46734619140625
1776444085781959200,4.000959228515625,-40.397857666015625,-7.1683807373046875,-18.296432495117188
1776444085806976300,4.025976318359375,-40.92059326171875,-7.023406982421875,-18.15875244140625
1776444085831994400,4.050994384765625,-41.129974365234375,-6.5040435791015625,-17.860198974609375
1776444085857012200,4.07601220703125,-41.227203369140625,-6.607208251953125,-17.941452026367188
1776444085882030300,4.1010302734375,-40.6190185546875,-6.410125732421875,-17.938934326171875
1776444085907047200,4.126047119140625,-40.2552490234375,-5.81842041015625,-18.753799438476562
1776444085932065300,4.151065185546875,-40.206390380859375,-5.3361663818359375,-19.251312255859375
1776444085957083100,4.176083251953125,-40.7099609375,-4.9231719970703125,-19.504257202148438
1776444085982100000,4.201099853515625,-40.705352783203125,-4.8680419921875,-19.70513916015625
1776444086007118300,4.226118408203125,-40.3853759765625,-4.4678192138671875,-20.160140991210938
1776444086032136200,4.25113623046875,-40.0687255859375,-4.0443878173828125,-20.218276977539062
1776444086057153300,4.2761533203125,-39.903961181640625,-3.573272705078125,-20.485260009765625
1776444086082171100,4.301171142578125,-40.356201171875,-3.5936431884765625,-20.776275634765625
1776444086107189200,4.326189208984375,-40.404815673828125,-2.917724609375,-20.453659057617188
1776444086132207000,4.35120703125,-40.646484375,-2.5110931396484375,-20.177276611328125
1776444086157224200,4.37622412109375,-40.199127197265625,-1.86492919921875,-19.90301513671875
1776444086182242000,4.401241943359375,-40.3658447265625,-1.228546142578125,-19.62841796875
1776444086207260200,4.42626025390625,-40.084320068359375,0.08343505859375,-19.36358642578125
1776444086232277200,4.45127734375,-40.282440185546875,0.6522369384765625,-19.256561279296875
1776444086257295000,4.476295166015625,-40.181365966796875,1.718994140625,-19.065383911132812
1776444086282313200,4.501313232421875,-40.00823974609375,2.675506591796875,-19.562667846679688
1776444086307330000,4.526330078125,-39.883819580078125,3.5435943603515625,-19.22418212890625
1776444086332348200,4.55134814453125,-39.94683837890625,4.43377685546875,-19.04302978515625
1776444086357366000,4.576365966796875,-40.058319091796875,5.6729888916015625,-18.470260620117188
1776444086382383000,4.601383056640625,-40.289703369140625,6.3505096435546875,-18.031158447265625
1776444086407401000,4.62640087890625,-40.190887451171875,7.3901519775390625,-17.60748291015625
1776444086432419000,4.651419189453125,-40.072509765625,7.5579833984375,-17.2171630859375
1776444086457436200,4.676436279296875,-40.084869384765625,8.2623291015625,-16.4476318359375
1776444086482454000,4.7014541015625,-40.5660400390625,8.219818115234375,-16.382675170898438
1776444086507472100,4.72647216796875,-40.421142578125,8.340728759765625,-16.158462524414062
1776444086532490000,4.751489990234375,-40.67889404296875,8.049636840820312,-15.976318359375
1776444086557507000,4.776507080078125,-40.2943115234375,8.054168701171875,-15.907363891601562
1776444086582525000,4.80152490234375,-40.61083984375,8.400283813476562,-15.605987548828125
1776444086607543300,4.826543212890625,-40.6656494140625,8.61077880859375,-15.7584228515625
1776444086632560000,4.85156005859375,-40.956451416015625,8.746246337890625,-15.349929809570312
1776444086657578200,4.876578125,-40.856414794921875,9.023300170898438,-14.874420166015625
1776444086682596000,4.90159619140625,-41.305206298828125,8.935302734375,-14.439178466796875
1776444086707613200,4.92661328125,-41.0841064453125,9.227783203125,-13.899887084960938
1776444086732631300,4.95163134765625,-41.055633544921875,9.292526245117188,-13.401016235351562
1776444086757649200,4.976649169921875,-41.070953369140625,9.87139892578125,-13.030563354492188
1776444086782666200,5.001666259765625,-41.291168212890625,10.100082397460938,-12.8515625
1776444086807684000,5.02668408203125,-41.32391357421875,10.7406005859375,-12.154830932617188
1776444086832702200,5.0517021484375,-41.311767578125,11.354232788085938,-11.734970092773438
1776444086857719300,5.07671923828125,-41.32391357421875,12.314788818359375,-10.579376220703125
1776444086882737200,5.101737060546875,-41.18365478515625,12.811065673828125,-9.550506591796875
1776444086907755300,5.12675537109375,-41.54913330078125,13.085952758789062,-8.110458374023438
1776444086932772000,5.151772216796875,-40.8763427734375,13.757125854492188,-7.057403564453125
1776444086957789700,5.176789794921875,-40.82244873046875,14.558090209960938,-5.737457275390625
1776444086982807600,5.2018076171875,-41.067962646484375,14.868179321289062,-4.4984893798828125
1776444087007824600,5.22682470703125,-40.269927978515625,15.76904296875,-3.429718017578125
1776444087032842800,5.2518427734375,-40.599822998046875,16.3240966796875,-2.6535186767578125
1776444087057860900,5.27686083984375,-40.194549560546875,16.9364013671875,-1.9966278076171875
1776444087082877700,5.301877685546875,-39.80548095703125,17.359756469726562,-1.463165283203125
1776444087107895800,5.326895751953125,-39.383514404296875,17.732452392578125,-1.0555877685546875
1776444087132914000,5.351913818359375,-39.458648681640625,17.972366333007812,-0.674713134765625
1776444087157930800,5.3769306640625,-39.423431396484375,18.400283813476562,-0.5897064208984375
1776444087182948900,5.401948974609375,-39.084930419921875,18.507186889648438,-0.3838958740234375
1776444087207966700,5.426966796875,-39.29742431640625,18.58013916015625,-0.2568817138671875
1776444087232983800,5.45198388671875,-38.970855712890625,18.449630737304688,-0.147674560546875
1776444087258002000,5.477001953125,-38.975616455078125,18.170989990234375,-0.1970062255859375
1776444087283019800,5.502019775390625,-39.311614990234375,17.904769897460938,-0.048828125
1776444087308037600,5.52703759765625,-39.414947509765625,17.429275512695312,-0.0056304931640625
1776444087333054700,5.5520546875,-39.86529541015625,16.921005249023438,0.2768096923828125
1776444087358072800,5.57707275390625,-39.61126708984375,16.555206298828125,0.909912109375
1776444087383089700,5.602089599609375,-39.7667236328125,15.983108520507812,1.5241546630859375
1776444087408107800,5.627107666015625,-40.076324462890625,15.537979125976562,2.1240692138671875
1776444087433125600,5.652125732421875,-40.00592041015625,15.521392822265625,3.0431365966796875
1776444087458143700,5.677143798828125,-39.989654541015625,15.104415893554688,4.2941131591796875
1776444087483160800,5.702160888671875,-40.220855712890625,15.139617919921875,5.1640167236328125
1776444087508178700,5.7271787109375,-40.192657470703125,15.045639038085938,7.0057220458984375
1776444087533196800,5.75219677734375,-39.967193603515625,14.52020263671875,8.053070068359375
1776444087558213600,5.777213623046875,-39.472320556640625,14.08197021484375,9.316421508789062
1776444087583231700,5.802231689453125,-39.937713623046875,13.676437377929688,10.835784912109375
1776444087608249600,5.82724951171875,-39.812225341796875,13.07513427734375,12.172531127929688
1776444087633266700,5.8522666015625,-39.478118896484375,12.597671508789062,12.574783325195312
1776444087658284500,5.877284423828125,-39.3521728515625,11.926254272460938,13.491531372070312
1776444087683302700,5.902302734375,-39.3043212890625,11.386932373046875,13.945907592773438
1776444087708319700,5.92731982421875,-39.034698486328125,11.0938720703125,14.127182006835938
1776444087733337600,5.952337646484375,-39.2796630859375,10.3812255859375,14.318710327148438
1776444087758356000,5.97735595703125,-39.4127197265625,10.06793212890625,14.566543579101562
1776444087783372500,6.00237255859375,-39.627044677734375,9.213027954101562,14.80609130859375
1776444087808391000,6.027390869140625,-39.758026123046875,8.965377807617188,14.857330322265625
1776444087833408800,6.05240869140625,-39.7657470703125,8.516387939453125,15.15826416015625
1776444087858425900,6.07742578125,-39.659881591796875,8.299179077148438,15.178009033203125
1776444087883443700,6.102443603515625,-40.3072509765625,7.408416748046875,15.399276733398438
1776444087908460800,6.127460693359375,-40.300933837890625,6.7937469482421875,15.48468017578125
1776444087933479000,6.15247900390625,-40.781982421875,5.628692626953125,15.415679931640625
1776444087958497000,6.1774970703125,-40.666412353515625,5.3827667236328125,15.382171630859375
1776444087983515100,6.20251513671875,-41.180023193359375,4.2869415283203125,14.822799682617188
1776444088008532000,6.227531982421875,-41.30303955078125,3.8324127197265625,14.604995727539062
1776444088033550000,6.252550048828125,-41.916229248046875,3.3228302001953125,13.602386474609375
1776444088058567200,6.277567138671875,-42.083038330078125,3.307952880859375,13.19287109375
1776444088083585000,6.3025849609375,-41.53533935546875,3.0810089111328125,12.739639282226562
1776444088108603000,6.327602783203125,-41.945343017578125,2.7689666748046875,12.715667724609375
1776444088133620000,6.352619873046875,-42.340118408203125,2.5600433349609375,13.130645751953125
1776444088158638000,6.37763818359375,-41.72344970703125,2.428924560546875,13.69500732421875
1776444088183656000,6.402656005859375,-41.806884765625,1.787811279296875,14.047515869140625
1776444088208673000,6.427673095703125,-41.5447998046875,1.4851837158203125,14.571121215820312
1776444088233691000,6.45269091796875,-41.2236328125,0.8317718505859375,15.31536865234375
1776444088258709000,6.477708984375,-40.95050048828125,0.5181121826171875,15.516647338867188
1776444088283726000,6.50272607421875,-40.45458984375,-0.2900390625,16.176681518554688
1776444088308744000,6.527743896484375,-40.1226806640625,-0.523956298828125,16.825912475585938
1776444088333762000,6.552761962890625,-40.467071533203125,-0.9932403564453125,17.219879150390625
1776444088358779000,6.57777880859375,-40.100494384765625,-1.03997802734375,17.6866455078125
1776444088383797000,6.602796875,-39.656982421875,-1.3045501708984375,17.967300415039062
1776444088408814800,6.62781494140625,-39.79547119140625,-1.5876617431640625,18.325454711914062
1776444088433832000,6.65283203125,-39.152374267578125,-1.87701416015625,18.656158447265625
1776444088458849800,6.677849853515625,-39.097991943359375,-2.074920654296875,19.036865234375
1776444088483868000,6.702867919921875,-38.830902099609375,-2.6453094482421875,19.97509765625
1776444088508885000,6.727885009765625,-38.663055419921875,-3.4718017578125,20.064483642578125
1776444088533902800,6.75290283203125,-38.50836181640625,-4.01409912109375,20.319869995117188
1776444088558921200,6.777921142578125,-38.44482421875,-4.540069580078125,20.3580322265625
1776444088583937800,6.802937744140625,-38.011474609375,-5.3153533935546875,20.075515747070312
1776444088608956200,6.8279560546875,-38.3916015625,-5.4977264404296875,20.092620849609375
1776444088633974000,6.85297412109375,-38.461456298828125,-6.235504150390625,19.65423583984375
1776444088658991000,6.8779912109375,-38.3177490234375,-6.7588958740234375,19.554580688476562
1776444088684009000,6.903009033203125,-38.127288818359375,-7.59326171875,19.257781982421875
1776444088709027000,6.928027099609375,-38.77783203125,-7.6189727783203125,19.02587890625
1776444088734044200,6.953044189453125,-38.4619140625,-7.973114013671875,19.350601196289062
1776444088759062000,6.97806201171875,-38.42584228515625,-8.8846435546875,19.041351318359375
1776444088784079000,7.0030791015625,-38.16796875,-8.972930908203125,19.024917602539062
1776444088809097000,7.028096923828125,-38.169921875,-9.71697998046875,18.658447265625
1776444088834115000,7.053114990234375,-38.438323974609375,-10.510101318359375,18.522491455078125
1776444088859132200,7.078132080078125,-38.487701416015625,-11.187057495117188,18.520523071289062
1776444088884150000,7.10314990234375,-38.353240966796875,-11.918441772460938,17.733367919921875
1776444088909168000,7.128168212890625,-38.291656494140625,-12.282180786132812,17.518112182617188
1776444088934185000,7.15318505859375,-38.107818603515625,-12.504547119140625,17.028060913085938
1776444088959202600,7.17820263671875,-38.314727783203125,-12.732040405273438,16.934326171875
1776444088984220400,7.203220458984375,-38.466461181640625,-12.654220581054688,16.029510498046875
1776444089009237500,7.228237548828125,-39.175567626953125,-12.791580200195312,15.521987915039062
1776444089034255600,7.253255615234375,-39.35516357421875,-12.666702270507812,14.662872314453125
1776444089059273500,7.2782734375,-39.5130615234375,-12.793563842773438,14.378433227539062
1776444089084290600,7.30329052734375,-39.5679931640625,-12.409469604492188,14.154373168945312
1776444089109308400,7.328308349609375,-39.80364990234375,-12.865203857421875,13.977371215820312
1776444089134326500,7.353326416015625,-39.90478515625,-13.211822509765625,13.798141479492188
1776444089159343400,7.37834326171875,-39.473297119140625,-13.453109741210938,13.863128662109375
1776444089184361500,7.403361572265625,-39.19415283203125,-13.641143798828125,13.935623168945312
1776444089209378600,7.428378662109375,-39.236541748046875,-13.901214599609375,14.020004272460938
1776444089234396400,7.453396484375,-39.356536865234375,-13.69732666015625,13.766250610351562
1776444089259414500,7.47841455078125,-39.3636474609375,-13.526702880859375,14.128311157226562
1776444089284431400,7.503431396484375,-39.78607177734375,-13.010650634765625,13.949356079101562
1776444089309449500,7.528449462890625,-39.198150634765625,-12.880355834960938,14.205245971679688
1776444089334467300,7.55346728515625,-39.436370849609375,-13.149627685546875,14.469100952148438
1776444089359484400,7.578484375,-39.38336181640625,-13.006317138671875,14.448562622070312
1776444089384502500,7.60350244140625,-39.160247802734375,-13.065933227539062,14.444091796875
1776444089409520400,7.628520263671875,-38.68304443359375,-13.083648681640625,14.36065673828125
1776444089434537500,7.653537353515625,-39.61676025390625,-13.709365844726562,14.1290283203125
1776444089459555300,7.678555419921875,-39.627105712890625,-14.225921630859375,13.697235107421875
1776444089484573700,7.70357373046875,-39.46759033203125,-15.04852294921875,12.896041870117188
1776444089509590300,7.72859033203125,-39.196197509765625,-15.780075073242188,12.123489379882812
1776444089534608600,7.753608642578125,-39.45867919921875,-16.315643310546875,10.5955810546875
1776444089559626500,7.77862646484375,-39.66595458984375,-16.793426513671875,9.985321044921875
1776444089584643600,7.8036435546875,-39.680328369140625,-16.9161376953125,8.522079467773438
1776444089609661700,7.82866162109375,-39.453948974609375,-17.511184692382812,7.77899169921875
1776444089634678500,7.853678466796875,-39.911407470703125,-17.87115478515625,6.5570220947265625
1776444089659696600,7.878696533203125,-40.08172607421875,-18.244659423828125,6.03594970703125
1776444089684714500,7.903714599609375,-39.737274169921875,-18.952301025390625,5.2266387939453125
1776444089709731600,7.928731689453125,-39.200347900390625,-19.0657958984375,4.893829345703125
1776444089734749400,7.95374951171875,-39.551300048828125,-19.2003173828125,4.4120635986328125
1776444089759767600,7.978767578125,-39.10687255859375,-19.026748657226562,4.254638671875
1776444089784784600,8.00378466796875,-39.335205078125,-19.058639526367188,4.1395263671875
1776444089809802500,8.028802490234375,-39.432647705078125,-19.189468383789062,4.0706787109375
1776444089834820600,8.053820556640625,-39.910125732421875,-19.515151977539062,4.1914825439453125
1776444089859837400,8.07883740234375,-39.81048583984375,-19.619720458984375,4.3138580322265625
1776444089884855600,8.10385546875,-40.003021240234375,-19.609359741210938,4.1313629150390625
1776444089909872600,8.12887255859375,-39.578094482421875,-19.716476440429688,4.3456573486328125
1776444089934890500,8.153890380859375,-39.769378662109375,-19.582443237304688,5.059478759765625
1776444089959909600,8.17890966796875,-39.364044189453125,-19.3807373046875,5.3564453125
1776444089984926700,8.2039267578125,-40.178985595703125,-18.990859985351562,5.1837310791015625
1776444090009944600,8.228944580078124,-40.422454833984375,-18.97674560546875,4.61224365234375
1776444090034962700,8.253962646484375,-40.319549560546875,-18.9305419921875,3.976470947265625
1776444090059979800,8.278979736328125,-40.364044189453125,-19.045028686523438,3.066436767578125
1776444090084997600,8.30399755859375,-39.94989013671875,-19.047149658203125,2.4269866943359375
1776444090110015700,8.329015625,-40.051727294921875,-19.137863159179688,1.525360107421875
1776444090135032600,8.354032470703125,-40.280303955078125,-19.462722778320312,0.7721405029296875
1776444090160050700,8.37905078125,-39.738128662109375,-19.359375,-0.008819580078125
1776444090185067800,8.40406787109375,-39.9188232421875,-19.374679565429688,-1.1350250244140625
1776444090210085600,8.429085693359376,-40.05731201171875,-19.666839599609375,-1.6248626708984375
1776444090235103700,8.454103759765625,-40.61334228515625,-19.642730712890625,-2.4451751708984375
1776444090260120600,8.47912060546875,-40.02032470703125,-19.22808837890625,-3.1045684814453125
1776444090285139000,8.504138916015625,-40.745361328125,-18.867111206054688,-3.714385986328125
1776444090310156800,8.52915673828125,-40.0843505859375,-18.54718017578125,-4.457244873046875
1776444090335174000,8.554173828125,-40.86346435546875,-18.046905517578125,-4.8457183837890625
1776444090360191700,8.579191650390625,-40.747955322265625,-17.59765625,-5.4394989013671875
1776444090385208800,8.604208740234375,-40.758453369140625,-17.00311279296875,-5.6917266845703125
1776444090410227000,8.62922705078125,-40.56268310546875,-16.664474487304688,-6.1931610107421875
1776444090435244800,8.654244873046874,-41.1103515625,-16.498519897460938,-6.7422637939453125
1776444090460262000,8.679261962890624,-41.11041259765625,-16.109832763671875,-7.798126220703125
1776444090485279700,8.70427978515625,-41.057861328125,-15.515701293945312,-8.939773559570312
1776444090510297900,8.7292978515625,-40.6827392578125,-15.0589599609375,-10.200042724609375
1776444090535314700,8.754314697265626,-40.541473388671875,-14.683883666992188,-11.564422607421875
1776444090560332800,8.779332763671874,-40.140106201171875,-14.138046264648438,-13.558181762695312
1776444090585350700,8.8043505859375,-40.417877197265625,-13.720169067382812,-14.870574951171875
1776444090610367700,8.82936767578125,-39.7939453125,-12.476394653320312,-16.3929443359375
1776444090635385900,8.8543857421875,-39.610443115234375,-11.81414794921875,-17.21246337890625
1776444090660402700,8.879402587890626,-39.124053955078125,-10.9959716796875,-18.08856201171875
1776444090685420800,8.9044208984375,-39.5281982421875,-10.206024169921875,-18.296646118164062
1776444090710438700,8.929438720703125,-39.34228515625,-9.78851318359375,-18.763641357421875
1776444090735455700,8.954455810546875,-39.6953125,-9.457992553710938,-18.28466796875
1776444090760473900,8.979473876953126,-40.012481689453125,-8.845596313476562,-17.911026000976562
1776444090785490700,9.00449072265625,-40.2415771484375,-8.453155517578125,-17.531463623046875
1776444090810508800,9.0295087890625,-40.392364501953125,-8.057571411132812,-17.084228515625
1776444090835526700,9.054526611328125,-40.783233642578125,-7.8118743896484375,-17.08575439453125
1776444090860543700,9.079543701171875,-40.64813232421875,-7.5631103515625,-16.638641357421875
1776444090885561600,9.1045615234375,-40.427337646484375,-6.8027801513671875,-16.787628173828125
1776444090910579700,9.129579833984375,-40.556732177734375,-6.0955810546875,-16.627456665039062
1776444090935596800,9.1545966796875,-40.535125732421875,-5.46173095703125,-16.666656494140625
1776444090960613600,9.179613525390625,-40.67950439453125,-4.569793701171875,-16.784744262695312
1776444090985630500,9.20463037109375,-41.00164794921875,-4.3966217041015625,-16.59027099609375
1776444091010648800,9.22964892578125,-41.096649169921875,-3.6761932373046875,-16.578704833984375
1776444091035666700,9.254666748046875,-41.386138916015625,-3.726898193359375,-16.228012084960938
1776444091060683800,9.279683837890625,-41.367095947265625,-3.8423919677734375,-15.423126220703125
1776444091085701600,9.30470166015625,-41.705108642578125,-4.04779052734375,-14.89410400390625
1776444091110719700,9.3297197265625,-41.847503662109375,-4.3306121826171875,-14.714279174804688
1776444091135736600,9.354736572265624,-42.04547119140625,-4.8802947998046875,-14.517196655273438
1776444091160754700,9.379754638671875,-41.67034912109375,-5.274261474609375,-14.790237426757812
1776444091185771800,9.404771728515625,-42.1488037109375,-5.4608612060546875,-14.986373901367188
1776444091210789600,9.42978955078125,-41.202667236328125,-5.7359771728515625,-16.013580322265625
1776444091235807700,9.454807861328124,-41.326904296875,-5.8161773681640625,-16.384078979492188
1776444091260824600,9.479824462890624,-40.5982666015625,-5.6129302978515625,-17.166793823242188
1776444091285842700,9.5048427734375,-40.338470458984375,-5.2712249755859375,-17.526031494140625
1776444091310859800,9.52985986328125,-40.013092041015625,-4.5483551025390625,-17.92974853515625
1776444091335877600,9.554877685546876,-40.33941650390625,-4.28045654296875,-18.101043701171875
1776444091360895700,9.579895751953124,-39.957733154296875,-3.8549041748046875,-18.427932739257812
1776444091385912600,9.60491259765625,-40.140106201171875,-3.2922821044921875,-18.001449584960938
1776444091410930700,9.6299306640625,-40.166778564453125,-2.59210205078125,-17.970947265625
1776444091435948500,9.654948486328125,-40.437774658203125,-2.0150604248046875,-17.648406982421875
1776444091460965600,9.679965576171876,-40.035888671875,-1.3113250732421875,-17.2640380859375
1776444091485983500,9.7049833984375,-40.121185302734375,-0.8573150634765625,-17.046463012695312
1776444091511000600,9.73000048828125,-40.45965576171875,0.1269073486328125,-16.674392700195312
1776444091536018700,9.755018798828125,-41.20428466796875,0.2789306640625,-16.51934814453125
1776444091561036500,9.78003662109375,-40.68206787109375,1.001861572265625,-16.540298461914062
1776444091586053600,9.8050537109375,-40.786834716796875,1.5990142822265625,-16.087478637695312
1776444091611071500,9.830071533203125,-40.601287841796875,1.93731689453125,-15.899871826171875
1776444091636088600,9.855088623046875,-40.74676513671875,2.553253173828125,-15.432281494140625
1776444091661106700,9.880106689453125,-40.746551513671875,3.0053253173828125,-15.11517333984375
1776444091686124500,9.90512451171875,-40.824432373046875,3.4505462646484375,-14.722427368164062
1776444091711141600,9.9301416015625,-40.5867919921875,3.9368896484375,-15.00244140625
1776444091736159500,9.955159423828125,-40.51019287109375,4.2850341796875,-14.7161865234375
1776444091761176600,9.980176513671875,-40.822296142578125,4.5816802978515625,-14.738235473632812
1776444091786194700,10.005194580078125,-40.952301025390625,5.1145477294921875,-14.365814208984375
1776444091811212500,10.030212646484374,-40.269805908203125,5.4525909423828125,-14.702743530273438
1776444091836229600,10.055229736328124,-40.215911865234375,5.805389404296875,-14.952362060546875
1776444091861247500,10.08024755859375,-40.22222900390625,6.228179931640625,-15.446685791015625
1776444091886264600,10.1052646484375,-40.706207275390625,6.2195892333984375,-15.24908447265625
1776444091911282400,10.130282470703126,-40.5601806640625,6.2325592041015625,-15.135299682617188
1776444091936300500,10.155300537109374,-40.62115478515625,6.1497039794921875,-14.8045654296875
1776444091961318000,10.18031787109375,-40.686309814453125,6.294830322265625,-14.5830078125
1776444091986335700,10.205335693359375,-40.854339599609375,6.772308349609375,-14.731857299804688
1776444092011352800,10.230352783203125,-40.61041259765625,7.324554443359375,-14.160476684570312
1776444092036370700,10.25537060546875,-40.907989501953125,7.8713226318359375,-13.749984741210938
1776444092061389000,10.28038916015625,-40.608245849609375,8.634109497070312,-12.813980102539062
1776444092086405600,10.305405517578125,-40.7978515625,9.265945434570312,-12.401809692382812
1776444092111424000,10.330424072265625,-40.93048095703125,10.00836181640625,-11.81317138671875
1776444092136440800,10.35544091796875,-40.49365234375,10.47650146484375,-11.51470947265625
1776444092161459000,10.380458984375,-40.419769287109375,11.040863037109375,-11.089447021484375
1776444092186475800,10.405475830078124,-40.994232177734375,11.273284912109375,-10.647918701171875
1776444092211494000,10.430493896484375,-40.455078125,12.164443969726562,-9.920822143554688
1776444092236512000,10.455511962890625,-40.351043701171875,12.611770629882812,-9.581573486328125
1776444092261529000,10.480529052734376,-40.16162109375,12.798553466796875,-9.1456298828125
1776444092286547000,10.505546875,-40.282257080078125,13.4271240234375,-8.570709228515625
1776444092311564000,10.53056396484375,-40.045745849609375,13.479171752929688,-8.323440551757812
1776444092336582000,10.555581787109375,-40.411163330078125,13.551559448242188,-7.5207061767578125
1776444092361600000,10.58060009765625,-40.3624267578125,13.887100219726562,-7.156646728515625
1776444092386616800,10.605616943359376,-40.233154296875,13.860366821289062,-6.7125091552734375
1776444092411635000,10.630635009765625,-40.013092041015625,13.999908447265625,-6.26275634765625
1776444092436652000,10.655652099609375,-40.203277587890625,14.310577392578125,-5.8690948486328125
1776444092461670000,10.680669921875,-39.910308837890625,14.174118041992188,-5.5331268310546875
1776444092486687000,10.70568701171875,-39.764617919921875,14.400360107421875,-5.1109619140625
1776444092511704800,10.730704833984374,-40.1402587890625,14.183853149414062,-5.113250732421875
1776444092536723000,10.755722900390625,-40.6651611328125,14.280960083007812,-4.5347442626953125
1776444092561740000,10.780739990234375,-40.357666015625,14.331039428710938,-4.03619384765625
1776444092586758000,10.8057578125,-40.4110107421875,14.241455078125,-3.2850341796875
1776444092611775000,10.83077490234375,-40.6046142578125,14.138824462890625,-2.5906829833984375
1776444092636792800,10.855792724609374,-41.13470458984375,14.113494873046875,-2.2070159912109375
1776444092661810000,10.880809814453125,-40.9456787109375,13.899383544921875,-2.2028350830078125
1776444092686827800,10.905827880859375,-41.024322509765625,13.687332153320312,-2.1049346923828125
1776444092711846000,10.930845947265626,-40.970916748046875,13.581344604492188,-2.3462066650390625
1776444092736863000,10.955863037109374,-40.9140625,13.754974365234375,-2.22991943359375
1776444092761880800,10.980880859375,-41.230499267578125,13.382781982421875,-2.12139892578125
1776444092786898000,11.00589794921875,-41.350982666015625,13.457687377929688,-1.52325439453125
1776444092811915800,11.030915771484375,-41.162750244140625,13.580337524414062,-0.909454345703125
1776444092836934000,11.055933837890626,-41.15032958984375,13.86688232421875,0.228668212890625
1776444092861951000,11.080950927734374,-40.941802978515625,13.995712280273438,1.6003570556640625
1776444092886968800,11.10596875,-40.5255126953125,14.048736572265625,3.446258544921875
1776444092911986000,11.13098583984375,-40.8006591796875,14.136520385742188,4.6945953369140625
1776444092937003800,11.156003662109375,-40.2774658203125,14.50750732421875,6.640625
1776444092962021000,11.181021240234376,-39.926605224609375,14.366348266601562,7.993682861328125
1776444092987039000,11.2060390625,-40.048614501953125,14.372604370117188,9.507644653320312
1776444093012056000,11.23105615234375,-39.36480712890625,14.078399658203125,10.59637451171875
1776444093037074200,11.25607421875,-38.835113525390625,13.915786743164062,12.149658203125
1776444093062092000,11.281092041015626,-38.39227294921875,14.095428466796875,12.902053833007812
1776444093087109000,11.306109130859374,-38.304229736328125,13.444686889648438,13.531173706054688
1776444093112127000,11.331126953125,-38.1243896484375,13.631240844726562,14.251632690429688
1776444093137144000,11.35614404296875,-38.151580810546875,13.244338989257812,14.822006225585938
1776444093162162200,11.381162109375,-38.215179443359375,13.182235717773438,15.032730102539062
1776444093187179000,11.406178955078126,-38.109954833984375,12.949447631835938,15.122650146484375
1776444093212197000,11.431197021484374,-38.14544677734375,12.653411865234375,15.481842041015625
1776444093237215000,11.456215087890625,-38.259765625,11.946762084960938,15.220870971679688
1776444093262232000,11.481232177734375,-38.2220458984375,11.685928344726562,15.200897216796875
1776444093287250000,11.50625,-38.58856201171875,10.96636962890625,14.99896240234375
1776444093312267000,11.53126708984375,-38.963043212890625,10.401641845703125,14.724075317382812
1776444093337285000,11.55628515625,-39.557952880859375,9.513427734375,14.652557373046875
1776444093362302000,11.581302001953125,-39.224334716796875,9.021377563476562,14.0693359375
1776444093387320000,11.606320068359375,-40.293426513671875,8.09857177734375,13.588226318359375
1776444093412337200,11.631337158203126,-40.49029541015625,7.891876220703125,13.122085571289062
1776444093437355000,11.65635498046875,-40.472900390625,7.4806671142578125,13.303375244140625
1776444093462373000,11.681373046875,-40.36767578125,7.2157440185546875,12.795562744140625
1776444093487390000,11.706389892578125,-41.013671875,6.39935302734375,13.13525390625
1776444093512408000,11.731407958984375,-41.09637451171875,6.4564361572265625,13.47869873046875
1776444093537425200,11.756425048828126,-40.545623779296875,5.9320831298828125,13.513107299804688
1776444093562443000,11.781443115234374,-40.798492431640625,5.853515625,14.479263305664062
1776444093587460000,11.806460205078125,-40.8226318359375,5.1064605712890625,14.930831909179688
1776444093612478000,11.83147802734375,-40.32183837890625,4.427825927734375,15.618667602539062
1776444093637495000,11.8564951171875,-40.33642578125,3.171112060546875,16.201385498046875
1776444093662513000,11.881512939453126,-39.84912109375,2.786346435546875,16.573226928710938
1776444093687531000,11.906531005859375,-40.157958984375,2.0542144775390625,17.178451538085938
1776444093712548000,11.931548095703125,-39.580047607421875,1.668731689453125,17.796295166015625
1776444093737566000,11.95656591796875,-39.57763671875,0.8209686279296875,18.285690307617188
1776444093762583000,11.9815830078125,-39.17828369140625,0.6512451171875,18.8643798828125
1776444093787601000,12.006600830078124,-39.49566650390625,0.2903900146484375,18.967742919921875
1776444093812618000,12.031617919921874,-39.413055419921875,0.088043212890625,19.30731201171875
1776444093837636000,12.056635986328125,-39.233978271484375,-0.095794677734375,19.84381103515625
1776444093862653000,12.08165283203125,-39.107635498046875,-0.196380615234375,19.498153686523438
1776444093887671000,12.106671142578126,-39.11309814453125,-0.5484466552734375,19.654830932617188
1776444093912688000,12.131688232421874,-39.03472900390625,-0.9716339111328125,19.92181396484375
1776444093937706000,12.1567060546875,-39.2418212890625,-1.7891845703125,20.315673828125
1776444093962724000,12.18172412109375,-38.727020263671875,-2.2401275634765625,20.671432495117188
1776444093987741000,12.206740966796875,-38.26422119140625,-3.027862548828125,21.297500610351562
1776444094012759000,12.231759033203126,-38.107421875,-3.88494873046875,21.419906616210938
1776444094037776000,12.25677587890625,-37.40997314453125,-5.2476959228515625,22.17376708984375
1776444094062794000,12.2817939453125,-37.16680908203125,-5.79925537109375,22.714263916015625
1776444094087811000,12.30681103515625,-36.51806640625,-6.5630340576171875,23.21954345703125
1776444094112829000,12.331828857421876,-36.33538818359375,-7.2931365966796875,23.19000244140625
1776444094137846000,12.356845947265626,-36.535919189453125,-8.442672729492188,23.45928955078125
1776444094162863900,12.38186376953125,-36.377197265625,-9.270172119140625,23.116180419921875
1776444094187881000,12.406880859375,-36.546112060546875,-9.85968017578125,22.591217041015625
1776444094212899000,12.431899169921875,-36.216094970703125,-10.093399047851562,22.4622802734375
1776444094237916000,12.456916015625,-36.821258544921875,-10.309341430664062,21.789306640625
1776444094262934000,12.48193408203125,-37.103363037109375,-10.708023071289062,21.542922973632812
1776444094287951000,12.506951171875,-37.170654296875,-10.663970947265625,20.842330932617188
1776444094312969000,12.531968994140625,-37.631500244140625,-10.750732421875,20.458892822265625
1776444094337987000,12.556987060546875,-37.914825439453125,-10.93682861328125,19.945648193359375
1776444094363004000,12.58200390625,-38.279083251953125,-10.883712768554688,19.519699096679688
1776444094388022000,12.60702197265625,-38.6309814453125,-11.053070068359375,19.08636474609375
1776444094413038800,12.632038818359375,-38.604156494140625,-11.023651123046875,18.47552490234375
1776444094438057000,12.657056884765625,-38.64605712890625,-11.342742919921875,17.961837768554688
1776444094463074000,12.682073974609375,-38.577178955078125,-10.962844848632812,18.127304077148438
1776444094488092000,12.707091796875,-38.83319091796875,-11.188827514648438,17.784515380859375
1776444094513109000,12.73210888671875,-38.735107421875,-11.083770751953125,17.364776611328125
1776444094538126800,12.757126953125,-38.506500244140625,-11.15765380859375,17.199691772460938
1776444094563144000,12.78214404296875,-38.62445068359375,-11.241897583007812,17.316253662109375
1776444094588162000,12.807162109375,-39.058380126953125,-11.01177978515625,17.417083740234375
1776444094613179000,12.832178955078126,-38.74298095703125,-11.743255615234375,16.84759521484375
1776444094638197000,12.857197021484374,-39.092010498046875,-12.31854248046875,16.717681884765625
1776444094663214000,12.882214111328125,-38.570220947265625,-12.701614379882812,16.413055419921875
1776444094688232000,12.90723193359375,-38.730804443359375,-13.02374267578125,16.414840698242188
1776444094713250000,12.93225,-38.828033447265625,-13.3673095703125,16.494918823242188
1776444094738267000,12.957266845703124,-39.3824462890625,-13.28271484375,15.697418212890625
1776444094763285000,12.982284912109375,-39.219451904296875,-13.386001586914062,15.235687255859375
1776444094788301800,13.0073017578125,-39.69921875,-13.313278198242188,14.519012451171875
1776444094813320000,13.03231982421875,-39.498321533203125,-13.435073852539062,14.219451904296875
1776444094838337000,13.0573369140625,-39.792633056640625,-13.628524780273438,14.113113403320312
1776444094863355000,13.08235498046875,-39.73760986328125,-13.306488037109375,14.426193237304688
1776444094888372000,13.1073720703125,-40.221771240234375,-13.330245971679688,14.325836181640625
1776444094913389800,13.132389892578125,-39.65399169921875,-13.305770874023438,14.659408569335938
1776444094938407000,13.157406982421875,-39.83099365234375,-13.44940185546875,14.545455932617188
1776444094963425000,13.182425048828126,-39.8468017578125,-13.725433349609375,14.12237548828125
1776444094988441900,13.20744189453125,-39.693084716796875,-14.202880859375,13.690338134765625
1776444095013460000,13.2324599609375,-40.05657958984375,-14.565933227539062,13.11724853515625
1776444095038477000,13.25747705078125,-40.210540771484375,-14.726470947265625,12.406219482421875
1776444095063495000,13.282494873046875,-40.12060546875,-15.400192260742188,11.45343017578125
1776444095088512000,13.307511962890626,-40.532684326171875,-15.98211669921875,10.836257934570312
1776444095113529900,13.33252978515625,-40.396820068359375,-16.566848754882812,9.932937622070312
1776444095138547000,13.357546875,-40.402099609375,-16.599502563476562,9.148147583007812
1776444095163564800,13.382564697265625,-40.1512451171875,-16.956634521484375,8.317276000976562
1776444095188582000,13.407581787109375,-40.5537109375,-17.35028076171875,8.047637939453125
1776444095213600000,13.43260009765625,-40.534820556640625,-17.620956420898438,7.6791534423828125
1776444095238616800,13.457616943359374,-40.3560791015625,-17.9364013671875,7.4175567626953125
1776444095263635000,13.482635009765625,-40.592926025390625,-18.28692626953125,6.532379150390625
1776444095288652000,13.507652099609375,-40.0975341796875,-18.253707885742188,6.29766845703125
1776444095313670000,13.532669921875,-40.54974365234375,-18.249008178710938,5.915496826171875
1776444095338687000,13.55768701171875,-40.630157470703125,-18.337997436523438,5.2547454833984375
1776444095363704800,13.582704833984375,-40.169036865234375,-18.257080078125,4.694976806640625
1776444095388722000,13.607721923828125,-40.797515869140625,-18.477767944335938,4.6566009521484375
1776444095413740000,13.632739990234375,-40.678924560546875,-18.337112426757812,4.8656158447265625
1776444095438758000,13.6577578125,-40.68695068359375,-18.56512451171875,4.4508819580078125
1776444095463775000,13.68277490234375,-40.22186279296875,-18.758468627929688,4.5644378662109375
1776444095488792800,13.707792724609375,-40.304779052734375,-19.031784057617188,4.8189239501953125
1776444095513810000,13.732809814453125,-40.218658447265625,-19.182144165039062,4.727020263671875
1776444095538827800,13.757827880859375,-40.230804443359375,-19.573150634765625,4.1740570068359375
1776444095563844900,13.782844970703126,-40.627716064453125,-19.582061767578125,3.10211181640625
1776444095588863000,13.807863037109374,-40.0360107421875,-19.835281372070312,2.4774322509765625
1776444095613879800,13.8328798828125,-40.125823974609375,-20.030746459960938,1.5330963134765625
1776444095638898000,13.85789794921875,-40.21209716796875,-20.064697265625,1.0460357666015625
1776444095663915000,13.8829150390625,-40.1964111328125,-20.3138427734375,0.4780120849609375
1776444095688932900,13.907932861328124,-40.17938232421875,-20.262298583984375,-0.0763397216796875
1776444095713950000,13.932949951171874,-40.153076171875,-19.431411743164062,-0.853424072265625
1776444095738967800,13.9579677734375,-40.3690185546875,-19.386825561523438,-1.5996246337890625
1776444095763985000,13.98298486328125,-40.307373046875,-19.416091918945312,-2.48724365234375
1776444095789003000,14.0080029296875,-40.59326171875,-19.20355224609375,-2.7602691650390625
1776444095814019800,14.033019775390626,-40.379730224609375,-18.696441650390625,-3.3642425537109375
1776444095839038000,14.058037841796875,-40.8282470703125,-18.5589599609375,-3.9481048583984375
1776444095864055000,14.083054931640625,-41.245330810546875,-18.150146484375,-4.6175689697265625
1776444095889073000,14.108072998046875,-41.149383544921875,-17.654266357421875,-5.288787841796875
1776444095914090000,14.133090087890626,-41.053375244140625,-16.978546142578125,-5.9930877685546875
1776444095939107800,14.15810791015625,-41.370819091796875,-16.927352905273438,-6.1772003173828125
1776444095964124400,14.18312451171875,-41.15380859375,-16.231781005859375,-7.0250701904296875
1776444095989142500,14.208142578125,-41.57440185546875,-16.21038818359375,-7.21441650390625
1776444096014159400,14.233159423828125,-41.606231689453125,-15.909011840820312,-7.85736083984375
1776444096039177500,14.258177490234376,-41.47064208984375,-15.808120727539062,-8.299453735351562
1776444096064194600,14.283194580078124,-40.94354248046875,-15.680023193359375,-8.619827270507812
1776444096089212400,14.30821240234375,-40.785614013671875,-15.206222534179688,-8.893600463867188
1776444096114229500,14.3332294921875,-41.08758544921875,-15.216644287109375,-9.566909790039062
1776444096139247400,14.358247314453125,-40.98870849609375,-14.897659301757812,-9.78533935546875
1776444096164264400,14.383264404296876,-41.176544189453125,-14.628631591796875,-10.66070556640625
1776444096189282300,14.4082822265625,-41.0487060546875,-14.630783081054688,-10.950942993164062
1776444096214299400,14.43329931640625,-40.757080078125,-14.45513916015625,-11.487625122070312
1776444096239317500,14.4583173828125,-40.871673583984375,-14.239593505859375,-12.2939453125
1776444096264334300,14.483334228515625,-40.619415283203125,-14.109634399414062,-12.807357788085938
1776444096289352400,14.5083525390625,-40.644989013671875,-14.117324829101562,-13.15130615234375
1776444096314369500,14.53336962890625,-41.03106689453125,-14.121978759765625,-13.709564208984375
1776444096339387400,14.558387451171875,-40.527618408203125,-13.951736450195312,-14.009384155273438
1776444096364404500,14.583404541015625,-40.480255126953125,-13.59075927734375,-14.086395263671875
1776444096389422300,14.60842236328125,-40.699371337890625,-12.944671630859375,-14.342239379882812
1776444096414439400,14.633439453125,-40.56964111328125,-12.625274658203125,-14.846725463867188
1776444096439457500,14.65845751953125,-40.126739501953125,-12.195220947265625,-15.1624755859375
1776444096464474400,14.683474365234375,-40.257598876953125,-11.399871826171875,-15.863693237304688
1776444096489492500,14.708492431640625,-40.05450439453125,-10.663787841796875,-16.213607788085938
1776444096514509300,14.73350927734375,-39.89874267578125,-9.727554321289062,-16.616867065429688
1776444096539527400,14.75852734375,-39.66778564453125,-9.126251220703125,-17.421585083007812
1776444096564544500,14.78354443359375,-39.445068359375,-8.974716186523438,-18.017959594726562
1776444096589562400,14.808562255859375,-39.651702880859375,-8.3388671875,-18.829666137695312
1776444096614579500,14.833579345703125,-38.877166748046875,-8.418533325195312,-19.492752075195312
1776444096639597300,14.858597412109376,-38.834197998046875,-8.09857177734375,-19.837112426757812
1776444096664614400,14.883614501953126,-38.8504638671875,-7.91162109375,-20.2889404296875
1776444096689632500,14.908632568359375,-38.71148681640625,-8.04290771484375,-20.619171142578125
1776444096714649300,14.9336494140625,-38.593353271484375,-8.294586181640625,-20.317855834960938
1776444096739667500,14.95866748046875,-38.762359619140625,-8.297988891601562,-19.6942138671875
1776444096764684500,14.9836845703125,-39.252685546875,-8.592727661132812,-18.798049926757812
1776444096789702400,15.008702392578124,-39.900634765625,-8.891036987304688,-17.226409912109375
1776444096814719500,15.033719482421875,-40.696929931640625,-9.229888916015625,-16.684478759765625
1776444096839736600,15.058736572265625,-40.8355712890625,-9.250228881835938,-15.575088500976562
1776444096864754400,15.08375439453125,-40.694732666015625,-9.228424072265625,-15.150741577148438
1776444096889771500,15.108771484375,-41.245819091796875,-9.046279907226562,-15.229629516601562
1776444096914789400,15.133789306640624,-40.782928466796875,-9.07708740234375,-15.246871948242188
1776444096939806500,15.158806396484374,-40.843536376953125,-8.904022216796875,-15.815643310546875
1776444096964825300,15.183825439453125,-40.71295166015625,-8.992645263671875,-15.8345947265625
1776444096989842400,15.208842529296875,-41.015869140625,-8.903152465820312,-16.115631103515625
1776444097014860300,15.2338603515625,-40.401580810546875,-8.906997680664062,-16.279296875
1776444097039877400,15.25887744140625,-40.933502197265625,-8.476898193359375,-16.395797729492188
1776444097064895500,15.2838955078125,-41.248992919921875,-8.183914184570312,-16.370651245117188
1776444097089912300,15.308912353515625,-40.966522216796875,-7.1935272216796875,-16.56036376953125
1776444097114930400,15.333930419921876,-40.767608642578125,-6.9691009521484375,-16.589874267578125
1776444097139947500,15.358947509765626,-41.14398193359375,-6.1614990234375,-16.869918823242188
1776444097164965400,15.38396533203125,-40.89129638671875,-5.4286346435546875,-17.296875
1776444097189982500,15.408982421875,-40.7327880859375,-4.362335205078125,-17.368728637695312
1776444097215000300,15.434000244140625,-40.559661865234375,-3.557220458984375,-17.44384765625
1776444097240017400,15.459017333984375,-40.7294921875,-2.5005645751953125,-17.69830322265625
1776444097265035300,15.48403515625,-40.8065185546875,-2.018798828125,-17.712539672851562
1776444097290052400,15.50905224609375,-40.711151123046875,-0.9705810546875,-17.5950927734375
1776444097315070500,15.534070556640625,-40.57464599609375,-0.476959228515625,-17.507476806640625
1776444097340087300,15.55908740234375,-40.647003173828125,0.3990936279296875,-17.39837646484375
1776444097365105400,15.58410546875,-40.530975341796875,1.30316162109375,-17.212860107421875
1776444097390122500,15.60912255859375,-40.380523681640625,2.0509490966796875,-17.121734619140625
1776444097415140400,15.634140380859375,-40.364013671875,2.4358062744140625,-16.736358642578125
1776444097440157400,15.659157470703125,-40.438873291015625,2.858306884765625,-16.795822143554688
1776444097465175300,15.68417529296875,-40.259063720703125,3.3717803955078125,-17.007064819335938
1776444097490192400,15.7091923828125,-39.914764404296875,3.6991729736328125,-16.885421752929688
1776444097515210500,15.73421044921875,-40.274658203125,3.8257293701171875,-17.001541137695312
1776444097540227300,15.759227294921875,-40.487335205078125,4.0207672119140625,-16.8831787109375
1776444097565245400,15.784245361328125,-40.1046142578125,4.3683013916015625,-16.947433471679688
1776444097590262500,15.809262451171875,-39.983062744140625,5.0480499267578125,-16.741989135742188
1776444097615279400,15.834279296875,-40.145050048828125,5.388671875,-16.84039306640625
1776444097640297500,15.85929736328125,-40.219482421875,5.629119873046875,-16.4647216796875
1776444097665314600,15.884314453125,-40.39300537109375,6.2497100830078125,-16.355300903320312
1776444097690332400,15.90933251953125,-40.34490966796875,6.818878173828125,-15.66912841796875
1776444097715349500,15.934349609375,-40.92230224609375,6.894073486328125,-15.252822875976562
1776444097740367400,15.959367431640626,-40.820953369140625,7.0753021240234375,-14.797760009765625
1776444097765384400,15.984384521484374,-40.8157958984375,8.004623413085938,-13.869537353515625
1776444097790402300,16.00940234375,-41.1151123046875,8.104888916015625,-13.431716918945312
1776444097815419400,16.03441943359375,-41.09112548828125,8.126800537109375,-12.94439697265625
1776444097840437500,16.0594375,-41.21490478515625,8.684646606445312,-12.469924926757812
1776444097865454300,16.084454345703126,-41.1279296875,9.140335083007812,-12.214218139648438
1776444097890472400,16.109472412109376,-41.197723388671875,9.308120727539062,-12.527374267578125
1776444097915489500,16.134489501953126,-41.32830810546875,9.499465942382812,-12.713623046875
1776444097940507400,16.15950732421875,-40.89556884765625,9.749130249023438,-12.241180419921875
1776444097965524000,16.18452392578125,-40.7303466796875,10.331619262695312,-12.312255859375
1776444097990541800,16.209541748046874,-40.28009033203125,11.2117919921875,-12.138320922851562
1776444098015559000,16.234558837890624,-40.0052490234375,11.91937255859375,-12.101531982421875
1776444098040577000,16.259576904296875,-39.607208251953125,12.720413208007812,-12.083633422851562
1776444098065593900,16.28459375,-39.901123046875,13.287139892578125,-11.739639282226562
1776444098090612000,16.309612060546876,-39.266845703125,14.527359008789062,-10.776687622070312
1776444098115629000,16.334629150390626,-39.1339111328125,14.66473388671875,-9.866424560546875
1776444098140646000,16.35964599609375,-39.1612548828125,15.583633422851562,-9.01611328125
1776444098165664000,16.3846640625,-39.062042236328125,15.686233520507812,-8.132110595703125
1776444098190681000,16.40968115234375,-38.928802490234375,16.327545166015625,-7.0045166015625
1776444098215699000,16.434698974609375,-39.1942138671875,16.576751708984375,-6.3278656005859375
1776444098240716000,16.459716064453126,-39.59710693359375,17.179244995117188,-5.623016357421875
1776444098265734000,16.48473388671875,-39.326568603515625,17.5428466796875,-5.12127685546875
1776444098290751000,16.5097509765625,-39.06268310546875,17.550796508789062,-4.30242919921875
1776444098315768800,16.534768798828125,-38.95550537109375,17.492462158203125,-4.1578369140625
1776444098340786000,16.559785888671875,-39.294647216796875,17.714981079101562,-4.1247100830078125
1776444098365804000,16.584803955078126,-38.8466796875,17.587631225585938,-3.7378997802734375
1776444098390820900,16.60982080078125,-39.190460205078125,17.77886962890625,-3.3364105224609375
1776444098415839000,16.6348388671875,-39.524658203125,17.608444213867188,-2.966796875
1776444098440856000,16.65985595703125,-39.3026123046875,17.51220703125,-2.6531982421875
1776444098465874000,16.6848740234375,-39.171295166015625,17.2633056640625,-1.7997283935546875
1776444098490891000,16.70989111328125,-39.4130859375,17.367568969726562,-1.1837005615234375
1776444098515908000,16.734908203125,-39.818450927734375,17.2493896484375,-0.1841278076171875
1776444098540926000,16.759926025390627,-39.36529541015625,17.3919677734375,1.0226593017578125
1776444098565943000,16.784943115234373,-39.455841064453125,17.338043212890625,2.1755523681640625
1776444098590961000,16.8099609375,-39.067413330078125,17.18621826171875,3.7651824951171875
1776444098615978000,16.83497802734375,-39.60150146484375,17.050338745117188,4.9215545654296875
1776444098640996000,16.85999609375,-38.67938232421875,16.921646118164062,6.7286224365234375
1776444098666013000,16.885012939453127,-38.617919921875,16.73541259765625,7.9019927978515625
1776444098691031000,16.910031005859373,-38.489715576171875,16.571380615234375,9.476364135742188
1776444098716048100,16.935048095703124,-38.08221435546875,16.480255126953125,10.640777587890625
1776444098741066000,16.96006591796875,-38.032440185546875,16.113555908203125,12.092941284179688
1776444098766083000,16.9850830078125,-37.251312255859375,15.735748291015625,13.255996704101562
1776444098791101000,17.010100830078127,-37.60662841796875,15.311386108398438,13.84954833984375
1776444098816118000,17.035117919921873,-37.521240234375,15.105148315429688,14.809967041015625
1776444098841135900,17.060135986328124,-37.267822265625,14.63299560546875,15.73651123046875
1776444098866153000,17.085153076171874,-37.179840087890625,14.010635375976562,16.529861450195312
1776444098891170000,17.110170166015624,-37.079925537109375,13.688873291015625,17.115570068359375
1776444098916188000,17.13518798828125,-37.083984375,12.798309326171875,17.64678955078125
1776444098941205000,17.160205078125,-37.486175537109375,12.468704223632812,18.037612915039062
1776444098966226400,17.185226318359376,-37.31488037109375,11.537750244140625,18.317962646484375
1776444098991243000,17.210242919921875,-37.70855712890625,10.798080444335938,18.403839111328125
1776444099016261400,17.235261474609374,-37.712982177734375,10.078414916992188,18.144210815429688
1776444099041278200,17.2602783203125,-38.14556884765625,9.355239868164062,17.681320190429688
1776444099066296300,17.28529638671875,-38.942230224609375,8.527633666992188,17.630859375
1776444099091313200,17.310313232421876,-39.088134765625,8.085693359375,17.510498046875
1776444099116331300,17.335331298828127,-39.0286865234375,7.2960357666015625,17.9830322265625
1776444099141348000,17.36034814453125,-39.393402099609375,6.32916259765625,17.820663452148438
1776444099166365200,17.385365234375,-39.07257080078125,4.8613128662109375,18.439971923828125
1776444099191383000,17.410383056640626,-39.08001708984375,4.31085205078125,19.31793212890625
1776444099216400100,17.435400146484376,-38.130340576171875,2.808319091796875,20.157012939453125
1776444099241418200,17.460418212890627,-38.64080810546875,2.00048828125,20.455352783203125
1776444099266435000,17.48543505859375,-37.836761474609375,0.8795623779296875,20.770965576171875
1776444099291453200,17.510453125,-38.05364990234375,-0.1341094970703125,20.849655151367188
1776444099316470300,17.53547021484375,-38.049652099609375,-0.507965087890625,20.452407836914062
1776444099341488000,17.560488037109376,-38.81573486328125,-0.8560791015625,19.898574829101562
1776444099366505200,17.585505126953127,-38.6256103515625,-0.458160400390625,19.561187744140625
1776444099391523000,17.610523193359374,-39.407135009765625,-0.5442657470703125,19.218338012695312
1776444099416540200,17.6355400390625,-39.37884521484375,-0.0476531982421875,18.280609130859375
1776444099441558000,17.66055810546875,-39.471893310546875,0.544036865234375,18.358428955078125
1776444099466575000,17.6855751953125,-39.85076904296875,1.0532684326171875,17.828292846679688
1776444099491592200,17.71059228515625,-39.872589111328125,1.3937835693359375,17.676849365234375
1776444099516610000,17.735610107421873,-39.985992431640625,1.6353912353515625,17.5504150390625
1776444099541627100,17.760627197265624,-39.302642822265625,1.5701751708984375,17.739532470703125
1776444099566645200,17.785645263671874,-39.245452880859375,1.21746826171875,17.841949462890625
1776444099591662000,17.810662109375,-39.4117431640625,0.9534454345703125,18.279891967773438
1776444099616680200,17.83568017578125,-39.3306884765625,-0.0088653564453125,18.447402954101562
1776444099641697300,17.860697265625,-39.4029541015625,-0.7967376708984375,18.534835815429688
1776444099666715100,17.885715087890624,-39.15277099609375,-0.9422454833984375,19.186203002929688
1776444099691732200,17.910732177734374,-38.923583984375,-1.964813232421875,19.461029052734375
1776444099716749300,17.935749267578124,-38.80926513671875,-2.731353759765625,20.329635620117188
1776444099741767200,17.96076708984375,-38.760009765625,-3.3733367919921875,20.67926025390625
1776444099766784300,17.9857841796875,-38.507080078125,-4.47314453125,20.75799560546875
1776444099791802000,18.010802001953124,-38.206085205078125,-5.095672607421875,20.994384765625
1776444099816819200,18.035819091796874,-37.704010009765625,-6.0148162841796875,21.178359985351562
1776444099841837000,18.060837158203125,-38.0408935546875,-6.5345458984375,21.047256469726562
1776444099866854100,18.085854248046875,-37.79803466796875,-7.6626129150390625,20.4771728515625
1776444099891872300,18.110872314453125,-38.093719482421875,-8.259384155273438,20.290069580078125
1776444099916889000,18.13588916015625,-38.184967041015625,-9.286087036132812,19.792861938476562
1776444099941906200,18.16090625,-38.4281005859375,-9.583511352539062,19.230941772460938
1776444099966924500,18.185924560546876,-38.95501708984375,-10.255264282226562,18.32366943359375
1776444099991941600,18.210941650390627,-38.7156982421875,-11.034255981445312,18.483810424804688
1776444100016959700,18.235959716796874,-38.565673828125,-11.613006591796875,17.57305908203125
1776444100041976600,18.2609765625,-38.799407958984375,-11.799530029296875,17.616470336914062
1776444100066994700,18.28599462890625,-39.049041748046875,-11.717620849609375,17.316986083984375
1776444100092011800,18.31101171875,-38.742034912109375,-11.869003295898438,16.960464477539062
1776444100117029600,18.336029541015623,-39.36614990234375,-11.783660888671875,16.585708618164062
1776444100142046700,18.361046630859374,-39.28680419921875,-11.673385620117188,16.551910400390625
1776444100167063800,18.386063720703124,-39.44970703125,-11.798355102539062,15.799163818359375
1776444100192081700,18.41108154296875,-39.688385009765625,-11.451370239257812,15.402786254882812
1776444100217098800,18.4360986328125,-40.04888916015625,-11.30499267578125,15.073577880859375
1776444100242116600,18.46111669921875,-39.644866943359375,-11.395263671875,15.3248291015625
1776444100267133700,18.4861337890625,-39.82489013671875,-11.48114013671875,14.984329223632812
1776444100292151800,18.51115185546875,-39.75494384765625,-11.8389892578125,15.249435424804688
1776444100317168600,18.536168701171874,-39.871307373046875,-12.274017333984375,15.302291870117188
1776444100342186800,18.561186767578125,-39.100067138671875,-12.505264282226562,15.321212768554688
1776444100367203800,18.586203857421875,-38.384765625,-13.069595336914062,16.05389404296875
1776444100392220700,18.611220703125,-38.376434326171875,-13.315353393554688,16.3861083984375
1776444100417238800,18.63623876953125,-38.1632080078125,-13.455642700195312,16.608261108398438
1776444100442255600,18.661255615234374,-38.796905517578125,-13.510818481445312,16.503860473632812
1776444100467273700,18.686273681640625,-38.702239990234375,-13.521194458007812,16.210052490234375
1776444100492290800,18.711290771484375,-38.651519775390625,-13.870864868164062,16.0543212890625
1776444100517308700,18.73630859375,-38.896728515625,-14.827896118164062,15.767425537109375
1776444100542325800,18.76132568359375,-38.608123779296875,-14.944107055664062,15.726364135742188
1776444100567342800,18.7863427734375,-38.381378173828125,-15.402496337890625,15.459274291992188
1776444100592360700,18.811360595703125,-38.392974853515625,-15.618789672851562,15.540863037109375
1776444100617377800,18.836377685546875,-38.38360595703125,-15.873016357421875,14.76470947265625
1776444100642395600,18.861395751953125,-38.4337158203125,-16.4432373046875,14.5748291015625
1776444100667412700,18.886412841796876,-38.1575927734375,-16.645416259765625,14.055816650390625
1776444100692430800,18.911430908203126,-38.1341552734375,-17.023773193359375,13.750335693359375
1776444100717447700,18.93644775390625,-38.561279296875,-17.44171142578125,12.826370239257812
1776444100742464800,18.96146484375,-38.628875732421875,-17.497177124023438,12.496307373046875
1776444100767483000,18.98648291015625,-38.569671630859375,-17.943878173828125,11.7821044921875
1776444100792499700,19.011499755859376,-38.46832275390625,-18.265655517578125,11.437576293945312
1776444100817517800,19.036517822265626,-39.081390380859375,-18.675537109375,10.375991821289062
1776444100842534700,19.06153466796875,-38.68243408203125,-18.960647583007812,9.840179443359375
1776444100867552800,19.086552734375,-39.1778564453125,-18.892715454101562,8.964126586914062
1776444100892569900,19.11156982421875,-39.05560302734375,-19.13226318359375,8.470596313476562
1776444100917587700,19.136587646484376,-39.18670654296875,-19.448532104492188,7.735443115234375
1776444100942604800,19.161604736328126,-38.83575439453125,-19.390213012695312,7.3982086181640625
1776444100967622000,19.186621826171876,-39.06451416015625,-19.52130126953125,6.6134185791015625
1776444100992639700,19.2116396484375,-39.379364013671875,-19.66876220703125,6.18597412109375
1776444101017656800,19.23665673828125,-39.398040771484375,-19.564849853515625,5.77972412109375
1776444101042674700,19.2616748046875,-39.643096923828125,-19.906082153320312,5.131500244140625
1776444101067691800,19.28669189453125,-39.60931396484375,-19.858795166015625,4.7160491943359375
1776444101092710000,19.3117099609375,-39.7679443359375,-20.031158447265625,4.1712646484375
1776444101117726700,19.336726806640623,-39.59051513671875,-20.18292236328125,3.550811767578125
1776444101142743800,19.361743896484374,-39.466644287109375,-20.376296997070312,2.7902374267578125
1776444101167762000,19.386761962890624,-39.70208740234375,-20.221710205078125,2.3981475830078125
1776444101192778800,19.41177880859375,-39.69110107421875,-19.968460083007812,1.9498748779296875
1776444101217796900,19.436796875,-39.6075439453125,-20.07171630859375,1.669769287109375
1776444101242814000,19.46181396484375,-39.824554443359375,-20.188446044921875,0.8282928466796875
1776444101267831800,19.486831787109374,-39.780120849609375,-20.13983154296875,0.2973480224609375
1776444101292849000,19.511848876953124,-39.776458740234375,-20.497421264648438,-0.2768096923828125
1776444101317865700,19.53686572265625,-39.15966796875,-20.938461303710938,-0.4617156982421875
1776444101342883800,19.5618837890625,-39.177398681640625,-21.0528564453125,-0.6617889404296875
1776444101367901000,19.58690087890625,-38.9937744140625,-21.247970581054688,-0.8296356201171875
1776444101392918800,19.611918701171874,-39.492095947265625,-21.681930541992188,-1.1798095703125
1776444101417936000,19.636935791015624,-39.386627197265625,-21.70062255859375,-1.694793701171875
1776444101442953700,19.66195361328125,-39.542510986328125,-21.768356323242188,-2.6140899658203125
1776444101467970800,19.686970703125,-39.14434814453125,-21.583206176757812,-3.044219970703125
1776444101492988000,19.71198779296875,-39.55242919921875,-21.399276733398438,-3.8934326171875
1776444101518005800,19.737005859375,-39.514801025390625,-21.221237182617188,-4.595916748046875
1776444101543022800,19.76202294921875,-39.2725830078125,-21.038116455078125,-5.5120697021484375
1776444101568041000,19.787041015625,-39.5943603515625,-20.629730224609375,-5.48126220703125
1776444101593057800,19.812057861328125,-39.919891357421875,-19.75738525390625,-6.526214599609375
1776444101618075000,19.837074951171875,-40.02276611328125,-18.91986083984375,-6.96746826171875
1776444101643093000,19.862093017578125,-40.01947021484375,-18.391693115234375,-7.5017547607421875
1776444101668109800,19.88710986328125,-40.533538818359375,-17.980392456054688,-7.816162109375
1776444101693128000,19.9121279296875,-40.952362060546875,-16.852798461914062,-8.166671752929688
1776444101718144800,19.937144775390625,-40.742340087890625,-16.3067626953125,-8.251785278320312
1776444101743163000,19.962162841796875,-41.143035888671875,-15.421661376953125,-8.459609985351562
1776444101768180000,19.987179931640625,-41.21868896484375,-15.209197998046875,-8.511764526367188
1776444101793196800,20.01219677734375,-41.372772216796875,-14.281646728515625,-7.8242340087890625
1776444101818215000,20.03721484375,-41.7177734375,-13.881439208984375,-7.7071075439453125
1776444101843231700,20.062231689453125,-41.892059326171875,-13.8448486328125,-8.04547119140625
1776444101868249900,20.087249755859375,-41.761444091796875,-13.247421264648438,-7.8820037841796875
1776444101893266700,20.1122666015625,-42.0311279296875,-12.603500366210938,-8.089187622070312
1776444101918284800,20.137284912109376,-41.989715576171875,-12.29150390625,-8.210922241210938
1776444101943301600,20.162301513671874,-41.893707275390625,-11.6922607421875,-8.517105102539062
1776444101968315000,20.18731494140625,-41.712310791015625,-11.28656005859375,-9.317245483398438
1776444101993332700,20.212332763671874,-41.44671630859375,-10.862472534179688,-10.165328979492188
1776444102018349800,20.237349853515624,-41.9957275390625,-10.485931396484375,-10.968399047851562
1776444102043368000,20.262367919921875,-41.530670166015625,-9.638351440429688,-11.780685424804688
1776444102068384800,20.287384765625,-41.571624755859375,-9.225250244140625,-12.401031494140625
1776444102093401900,20.31240185546875,-41.3563232421875,-8.061019897460938,-13.196319580078125
1776444102118420000,20.337419921875,-41.4395751953125,-7.4850616455078125,-13.661712646484375
1776444102143436800,20.362436767578124,-41.15679931640625,-6.7292633056640625,-14.433578491210938
1776444102168455000,20.387454833984375,-41.1746826171875,-6.0496368408203125,-14.314254760742188
1776444102193472000,20.412471923828125,-40.912628173828125,-5.43292236328125,-14.341445922851562
1776444102218488800,20.43748876953125,-41.25006103515625,-5.110687255859375,-14.320877075195312
1776444102243507000,20.4625068359375,-41.37799072265625,-4.899566650390625,-14.130096435546875
1776444102268524000,20.48752392578125,-41.390106201171875,-4.73974609375,-14.056838989257812
1776444102293542000,20.5125419921875,-41.598114013671875,-4.3699951171875,-13.878677368164062
1776444102318559000,20.53755908203125,-41.652679443359375,-3.6401519775390625,-13.957733154296875
1776444102343576800,20.562576904296876,-41.337432861328125,-3.487945556640625,-14.303436279296875
1776444102368594000,20.587593994140626,-41.372039794921875,-3.444976806640625,-14.57147216796875
1776444102393611000,20.612611083984376,-40.515228271484375,-3.1577911376953125,-15.4288330078125
1776444102418628900,20.63762890625,-40.483367919921875,-2.7908477783203125,-15.8646240234375
1776444102443646000,20.66264599609375,-40.35125732421875,-2.5896453857421875,-16.884613037109375
1776444102468663800,20.687663818359376,-40.38116455078125,-2.691986083984375,-17.3443603515625
1776444102493681000,20.712680908203126,-40.40740966796875,-2.3558807373046875,-17.8004150390625
1776444102518698000,20.737697998046876,-40.20703125,-2.1512298583984375,-17.724029541015625
1776444102543715800,20.7627158203125,-40.009063720703125,-1.1336669921875,-18.333663940429688
1776444102568733000,20.78773291015625,-40.105926513671875,-0.795440673828125,-18.164840698242188
1776444102593751000,20.8127509765625,-40.09588623046875,-0.04052734375,-17.965316772460938
1776444102618768000,20.837767822265626,-39.984588623046875,0.5256195068359375,-17.869964599609375
1776444102643785000,20.862784912109376,-40.410797119140625,0.8615264892578125,-17.480331420898438
1776444102668803000,20.887802978515627,-40.086395263671875,1.27734375,-17.235305786132812
1776444102693820000,20.91281982421875,-39.873931884765625,2.0065460205078125,-17.273422241210938
1776444102718838000,20.937838134765624,-40.1754150390625,2.7822265625,-17.118408203125
1776444102743855000,20.962855224609374,-40.340423583984375,3.025604248046875,-17.144073486328125
1776444102768872000,20.987871826171876,-40.2196044921875,3.4590606689453125,-16.635391235351562
1776444102793890000,21.01289013671875,-39.660980224609375,3.820892333984375,-16.61590576171875
1776444102818907100,21.0379072265625,-39.94720458984375,4.3783721923828125,-16.783828735351562
1776444102843925000,21.062925048828124,-39.114227294921875,5.1521759033203125,-16.852142333984375
1776444102868942000,21.087942138671874,-39.160125732421875,5.400970458984375,-17.053604125976562
1776444102893960000,21.1129599609375,-39.218048095703125,6.2130279541015625,-16.703292846679688
1776444102918977000,21.13797705078125,-39.783233642578125,6.8525390625,-16.4075927734375
1776444102943993900,21.162993896484377,-39.52630615234375,8.054931640625,-15.408676147460938
1776444102969012700,21.1880126953125,-39.863494873046875,7.97833251953125,-15.514205932617188
1776444102994029800,21.21302978515625,-39.55059814453125,7.871063232421875,-15.064453125
1776444103019046700,21.238046630859376,-39.9130859375,8.005844116210938,-14.687255859375
1776444103044064800,21.263064697265627,-39.645660400390625,7.7315216064453125,-14.304534912109375
1776444103069081600,21.28808154296875,-40.092681884765625,8.042221069335938,-13.924484252929688
1776444103094099700,21.313099609375,-40.0028076171875,7.743011474609375,-13.492141723632812
1776444103119116500,21.338116455078126,-40.52362060546875,7.651092529296875,-13.0274658203125
1776444103144133600,21.363133544921876,-40.44525146484375,7.747772216796875,-12.197906494140625
1776444103169151500,21.3881513671875,-40.517547607421875,8.173629760742188,-11.735061645507812
1776444103194168600,21.41316845703125,-41.201629638671875,8.543258666992188,-11.175003051757812
1776444103219186400,21.4381865234375,-40.990386962890625,8.779510498046875,-10.910888671875
1776444103244203500,21.46320361328125,-40.895172119140625,9.221343994140625,-10.268478393554688
1776444103269220600,21.488220703125,-40.68878173828125,9.77239990234375,-10.217544555664062
1776444103294238500,21.513238525390626,-40.4918212890625,10.070343017578125,-10.09466552734375
1776444103319255600,21.538255615234377,-40.66778564453125,10.572021484375,-9.597793579101562
1776444103344273700,21.563273681640624,-40.58868408203125,11.101898193359375,-8.946868896484375
1776444103369290500,21.58829052734375,-40.444549560546875,11.412353515625,-7.8059234619140625
1776444103394307600,21.6133076171875,-40.54278564453125,11.707443237304688,-7.2279052734375
1776444103419325700,21.63832568359375,-40.163421630859375,11.81134033203125,-6.70684814453125
1776444103444342500,21.663342529296877,-40.580902099609375,12.248046875,-6.30718994140625
1776444103469360600,21.688360595703124,-40.570526123046875,12.49627685546875,-6.296966552734375
1776444103494377700,21.713377685546874,-40.648101806640625,12.409622192382812,-5.6541900634765625
1776444103519394600,21.73839453125,-40.491790771484375,12.248779296875,-5.59039306640625
1776444103544412700,21.76341259765625,-40.579742431640625,12.422073364257812,-5.5707550048828125
1776444103569429800,21.7884296875,-40.7747802734375,12.518814086914062,-5.527069091796875
1776444103594447600,21.813447509765624,-40.415008544921875,13.008377075195312,-5.809295654296875
1776444103619464700,21.838464599609374,-40.302581787109375,12.76812744140625,-5.94635009765625
1776444103644481500,21.8634814453125,-40.614013671875,12.9097900390625,-5.9113616943359375
1776444103669499600,21.888499755859375,-40.24566650390625,12.957595825195312,-5.7653656005859375
1776444103694516700,21.913516845703125,-40.496795654296875,13.097991943359375,-5.118896484375
1776444103719534600,21.93853466796875,-41.159820556640625,13.078781127929688,-4.3104095458984375
1776444103744551700,21.9635517578125,-40.780242919921875,13.284393310546875,-3.7942657470703125
1776444103769568800,21.98856884765625,-40.80999755859375,13.045028686523438,-2.9616851806640625
1776444103794586600,22.013586669921875,-40.95758056640625,13.26995849609375,-2.300384521484375
1776444103819603700,22.038603759765625,-40.943756103515625,13.476837158203125,-1.79522705078125
1776444103844620800,22.063620849609375,-40.6617431640625,13.689437866210938,-1.6441650390625
1776444103869638700,22.088638671875,-40.516448974609375,13.578948974609375,-1.5800933837890625
1776444103894655700,22.11365576171875,-41.19561767578125,13.010406494140625,-1.7694091796875
1776444103919673600,22.138673583984374,-40.849884033203125,12.832748413085938,-1.8805389404296875
1776444103944690700,22.163690673828125,-40.9923095703125,12.458633422851562,-1.8855133056640625
1776444103969707300,22.188707275390627,-41.293792724609375,12.45074462890625,-2.108489990234375
1776444103994725400,22.213725341796874,-41.329620361328125,12.2001953125,-2.1840972900390625
1776444104019742200,22.2387421875,-41.124359130859375,11.83673095703125,-1.42474365234375
1776444104044760600,22.263760498046874,-41.344573974609375,11.70428466796875,-0.4306640625
1776444104069777200,22.288777099609376,-41.465423583984375,11.671676635742188,0.9804840087890625
1776444104094794200,22.313794189453127,-41.6400146484375,11.564971923828125,2.2353057861328125
1776444104119812400,22.338812255859374,-41.9925537109375,11.041641235351562,3.5018463134765625
1776444104144829200,22.3638291015625,-41.771484375,10.850082397460938,4.6857147216796875
1776444104169846300,22.38884619140625,-41.54931640625,10.08172607421875,6.4447021484375
1776444104194864400,22.413864501953125,-41.22332763671875,10.11944580078125,7.0976715087890625
1776444104219881200,22.438881103515627,-41.087982177734375,9.9365234375,8.456771850585938
1776444104244899300,22.4638994140625,-40.672698974609375,9.690933227539062,9.231857299804688
1776444104269916400,22.48891650390625,-40.794647216796875,9.143234252929688,10.199554443359375
1776444104294933200,22.513933349609374,-41.05450439453125,9.518341064453125,10.33782958984375
1776444104319951400,22.538951416015625,-40.99627685546875,9.103897094726562,10.559112548828125
1776444104344968200,22.56396826171875,-40.816619873046875,8.8526611328125,10.707260131835938
1776444104369986300,22.588986328125,-41.16619873046875,8.8963623046875,10.831527709960938
1776444104395003400,22.61400341796875,-41.02618408203125,8.587356567382812,11.00390625
1776444104420020200,22.639020263671874,-41.070709228515625,8.264083862304688,10.924850463867188
1776444104445038300,22.664038330078125,-40.9814453125,8.269790649414062,11.269500732421875
1776444104470055400,22.689055419921875,-41.10955810546875,7.5903472900390625,11.833404541015625
1776444104495072300,22.714072265625,-40.882659912109375,7.5490875244140625,12.420303344726562
1776444104520090400,22.73909033203125,-40.871612548828125,6.8580169677734375,13.134201049804688
1776444104545107500,22.764107421875,-40.554412841796875,6.2021331787109375,13.18914794921875
1776444104570125300,22.789125244140624,-41.042022705078125,5.314422607421875,13.879165649414062
1776444104595142400,22.814142333984375,-40.58843994140625,4.926177978515625,14.494796752929688
1776444104620159500,22.839159423828125,-40.828399658203125,4.348968505859375,15.284744262695312
1776444104645177300,22.86417724609375,-40.16717529296875,4.0420379638671875,15.97308349609375
1776444104670194400,22.8891943359375,-40.26153564453125,3.05841064453125,16.78802490234375
1776444104695211500,22.91421142578125,-39.58355712890625,2.43780517578125,17.727554321289062
1776444104720229400,22.9392294921875,-39.556640625,1.2291412353515625,18.752456665039062
1776444104745246500,22.96424658203125,-39.048797607421875,0.9325408935546875,19.466079711914062
1776444104770264300,22.989264404296875,-38.59429931640625,-0.4039764404296875,20.417526245117188
1776444104795281400,23.014281494140626,-38.179351806640625,-0.49737548828125,20.869110107421875
1776444104820298500,23.039298583984376,-38.28643798828125,-1.25787353515625,21.12542724609375
1776444104845316400,23.06431640625,-37.98358154296875,-1.8419647216796875,21.425521850585938
1776444104870333400,23.08933349609375,-38.322479248046875,-2.5010986328125,22.001052856445312
1776444104895350500,23.1143505859375,-37.4525146484375,-2.9495391845703125,22.519790649414062
1776444104920368400,23.139368408203126,-37.321441650390625,-3.405670166015625,23.196853637695312
1776444104945385500,23.164385498046876,-36.850067138671875,-3.4852447509765625,23.45263671875
1776444104970403000,23.189403076171875,-36.923309326171875,-3.9653778076171875,23.970779418945312
1776444104995420200,23.214420166015625,-36.419097900390625,-4.46630859375,24.21502685546875
1776444105020437200,23.239437255859375,-36.434478759765625,-5.435455322265625,24.452728271484375
1776444105045455000,23.264455078125,-35.92236328125,-5.5418701171875,24.633575439453125
1776444105070472200,23.28947216796875,-35.85894775390625,-6.2880096435546875,25.258056640625
1776444105095489300,23.3144892578125,-35.11541748046875,-6.4091033935546875,25.94110107421875
1776444105120507100,23.339507080078125,-34.748626708984375,-6.8932952880859375,26.666610717773438
1776444105145524200,23.364524169921875,-34.2822265625,-6.9718170166015625,27.16790771484375
1776444105170542300,23.389542236328126,-33.797210693359375,-7.0850067138671875,27.842269897460938
1776444105195559200,23.41455908203125,-33.093048095703125,-7.3688507080078125,28.674560546875
1776444105220576300,23.439576171875,-32.4366455078125,-7.4171905517578125,29.161590576171875
1776444105245594400,23.464594482421877,-32.414886474609375,-7.684906005859375,28.839340209960938
1776444105270611200,23.489611083984375,-32.544342041015625,-8.115463256835938,29.014556884765625
1776444105295628300,23.514628173828125,-32.371337890625,-8.715316772460938,28.81610107421875
1776444105320646400,23.539646484375,-32.43951416015625,-9.201828002929688,28.367919921875
1776444105345663200,23.564663330078126,-32.610260009765625,-9.745941162109375,28.112380981445312
1776444105370680300,23.589680419921876,-32.589569091796875,-10.03887939453125,27.7720947265625
1776444105395698400,23.614698486328123,-33.59637451171875,-10.29193115234375,27.23358154296875
1776444105420715300,23.63971533203125,-33.512054443359375,-10.588623046875,26.739822387695312
1776444105445733400,23.6647333984375,-34.406707763671875,-10.988922119140625,26.019058227539062
1776444105470750200,23.689750244140626,-34.635650634765625,-11.512954711914062,25.648284912109375
1776444105495767300,23.714767333984376,-34.850372314453125,-11.962158203125,24.71722412109375
1776444105520785400,23.739785400390623,-34.87921142578125,-12.250213623046875,24.3280029296875
1776444105545802200,23.76480224609375,-35.578826904296875,-12.739501953125,23.358749389648438
1776444105570819300,23.7898193359375,-35.518280029296875,-12.2440185546875,23.524215698242188
1776444105595837400,23.81483740234375,-35.945709228515625,-12.2705078125,22.912002563476562
1776444105620854300,23.839854248046876,-36.162567138671875,-12.540390014648438,22.470306396484375
1776444105645871400,23.864871337890627,-37.071258544921875,-12.578903198242188,22.050308227539062
1776444105670889500,23.889889404296873,-36.749725341796875,-12.467605590820312,21.894271850585938
1776444105695906300,23.91490625,-36.7364501953125,-12.409835815429688,21.4954833984375
1776444105720923100,23.939923095703126,-36.748016357421875,-11.972015380859375,21.298553466796875
1776444105745941500,23.96494140625,-36.6617431640625,-12.159698486328125,21.345855712890625
1776444105770958000,23.9899580078125,-36.7005615234375,-12.263290405273438,21.176223754882812
1776444105795976400,24.0149765625,-36.821929931640625,-12.456466674804688,21.33306884765625
1776444105820993300,24.0399931640625,-36.821533203125,-12.517898559570312,21.483200073242188
1776444105846010000,24.065010009765626,-36.921356201171875,-12.500320434570312,21.464263916015625
1776444105871028200,24.0900283203125,-36.981414794921875,-12.699951171875,21.576614379882812
1776444105896045300,24.11504541015625,-37.07269287109375,-12.515457153320312,21.844680786132812
1776444105921062100,24.140062255859377,-36.84954833984375,-12.668670654296875,22.193939208984375
1776444105946080300,24.165080322265624,-36.45477294921875,-12.310470581054688,22.486923217773438
1776444105971096800,24.190096923828126,-36.716400146484375,-12.29693603515625,22.806915283203125
1776444105996113700,24.21511376953125,-35.997161865234375,-12.571075439453125,23.428131103515625
1776444106021131800,24.2401318359375,-36.1402587890625,-12.603561401367188,23.358505249023438
1776444106046148900,24.26514892578125,-35.6434326171875,-12.488388061523438,23.571441650390625
1776444106071165700,24.290165771484375,-35.44073486328125,-11.786117553710938,23.89111328125
1776444106096183800,24.315183837890626,-35.799346923828125,-10.898605346679688,23.952774047851562
1776444106121201000,24.340200927734376,-36.083099365234375,-10.270904541015625,24.165695190429688
1776444106146217700,24.3652177734375,-36.354217529296875,-9.34735107421875,23.751602172851562
1776444106171235800,24.39023583984375,-37.104766845703125,-8.40771484375,23.344100952148438
1776444106196253000,24.4152529296875,-37.969451904296875,-6.7882537841796875,22.615753173828125
1776444106221270800,24.440270751953125,-38.363006591796875,-6.0487060546875,21.722259521484375
1776444106246288000,24.465287841796876,-39.170501708984375,-4.756927490234375,20.5662841796875
1776444106271305000,24.490304931640626,-39.994293212890625,-3.8370361328125,19.297744750976562
1776444106296322800,24.51532275390625,-40.434173583984375,-1.847930908203125,17.48602294921875
1776444106321340000,24.54033984375,-41.240997314453125,-1.2631072998046875,15.879180908203125
1776444106346357000,24.56535693359375,-42.5350341796875,0.2420501708984375,13.62591552734375
1776444106371374800,24.590374755859376,-42.93719482421875,1.27484130859375,11.770431518554688
1776444106396392000,24.615391845703126,-43.243072509765625,2.3939971923828125,9.697921752929688
1776444106421408800,24.64040869140625,-43.652496337890625,2.8916015625,7.93682861328125
1776444106446427000,24.665427001953127,-43.6168212890625,4.313079833984375,5.842376708984375
1776444106471444000,24.69044384765625,-43.63226318359375,4.8011016845703125,4.319854736328125
1776444106496460800,24.715460693359375,-43.7830810546875,6.1188201904296875,2.3812255859375
1776444106521479000,24.74047900390625,-43.926025390625,6.5661163330078125,0.563995361328125
1776444106546496000,24.76549609375,-43.505828857421875,7.299468994140625,-1.6309967041015625
1776444106571512800,24.790512939453127,-43.37158203125,7.5565948486328125,-3.017547607421875
1776444106596531000,24.815531005859373,-43.41644287109375,8.167526245117188,-5.5528411865234375
1776444106621548000,24.840548095703124,-42.917327880859375,8.100357055664062,-7.6119842529296875
1776444106646564900,24.86556494140625,-42.524322509765625,8.12188720703125,-9.539154052734375
1776444106671583000,24.8905830078125,-42.052581787109375,8.221298217773438,-11.351547241210938
1776444106696600000,24.91560009765625,-41.50018310546875,7.9083404541015625,-12.977005004882812
1776444106721618000,24.940617919921873,-41.086273193359375,8.0543212890625,-13.973052978515625
1776444106746635000,24.965635009765624,-40.60357666015625,8.19830322265625,-15.470809936523438
1776444106771652000,24.990652099609374,-40.265960693359375,8.038467407226562,-16.540802001953125
1776444106796670000,25.015669921875,-40.245513916015625,7.61749267578125,-17.498565673828125
1776444106821687000,25.04068701171875,-40.19305419921875,7.28631591796875,-18.050460815429688
1776444106846703900,25.065703857421877,-39.832855224609375,7.6738128662109375,-18.590194702148438
1776444106871722000,25.090721923828124,-39.830078125,6.8751220703125,-19.090606689453125
1776444106896738800,25.11573876953125,-39.65985107421875,6.865570068359375,-19.781829833984375
1776444106921756000,25.140755859375,-39.265869140625,6.4680938720703125,-20.766891479492188
1776444106946773800,25.165773681640626,-39.098358154296875,6.316650390625,-21.700119018554688
1776444106971791600,25.19079150390625,-38.743682861328125,6.28228759765625,-21.977310180664062
1776444106996808200,25.21580810546875,-38.301910400390625,5.9325408935546875,-22.49725341796875
1776444107021826600,25.24082666015625,-37.65057373046875,6.1852569580078125,-23.266098022460938
1776444107046843400,25.265843505859376,-36.9307861328125,5.832427978515625,-24.064163208007812
1776444107071860200,25.290860107421874,-36.4478759765625,5.867950439453125,-24.861846923828125
1776444107096878300,25.31587841796875,-36.112884521484375,5.7402191162109375,-25.734817504882812
1776444107121895400,25.3408955078125,-35.551910400390625,5.3411865234375,-26.245635986328125
1776444107146912300,25.365912353515625,-35.38970947265625,5.151092529296875,-26.782012939453125
1776444107171930400,25.390930419921876,-35.35809326171875,5.035675048828125,-27.120513916015625
1776444107196947500,25.415947509765626,-35.3150634765625,4.8261260986328125,-27.170272827148438
1776444107221964300,25.44096435546875,-35.154022216796875,4.706207275390625,-27.321823120117188
1776444107246982400,25.465982421875,-34.829559326171875,4.3828887939453125,-27.450454711914062
1776444107271999200,25.490999267578125,-34.405609130859375,4.3077392578125,-27.790359497070312
1776444107297016300,25.516016357421876,-33.870361328125,4.2806549072265625,-28.233856201171875
1776444107322034400,25.541034423828126,-33.434112548828125,4.34893798828125,-28.671432495117188
1776444107347051300,25.56605126953125,-33.18316650390625,4.2702484130859375,-29.252151489257812
1776444107372068400,25.591068359375,-33.000579833984375,4.5790252685546875,-29.583602905273438
1776444107397086500,25.61608642578125,-32.544891357421875,4.7168731689453125,-29.676422119140625
1776444107422103300,25.641103271484376,-32.13250732421875,4.77685546875,-29.991348266601562
1776444107447120400,25.666120361328126,-32.02825927734375,5.127105712890625,-30.339309692382812
1776444107472138500,25.691138427734376,-32.1962890625,5.0545806884765625,-30.781478881835938
1776444107497155300,25.7161552734375,-31.613800048828125,4.7927703857421875,-30.903579711914062
1776444107522172400,25.74117236328125,-31.861663818359375,4.6417236328125,-31.31109619140625
1776444107547190500,25.7661904296875,-31.09368896484375,4.4283905029296875,-31.479965209960938
1776444107572207400,25.791207275390626,-30.762542724609375,4.0213470458984375,-31.870223999023438
1776444107597224400,25.816224365234376,-30.521514892578125,3.49114990234375,-31.97955322265625
1776444107622242600,25.84124267578125,-30.17919921875,3.3310699462890625,-32.09220886230469
1776444107647259400,25.86625927734375,-30.735992431640625,3.1523895263671875,-31.832855224609375
1776444107672276500,25.8912763671875,-30.7418212890625,3.327178955078125,-31.789840698242188
1776444107697294600,25.916294677734374,-30.748046875,3.0271148681640625,-31.629638671875
1776444107722311400,25.9413115234375,-30.814697265625,3.162384033203125,-31.5633544921875
1776444107747328500,25.96632861328125,-30.99603271484375,2.6517791748046875,-31.384567260742188
1776444107772346600,25.9913466796875,-30.965728759765625,2.0904541015625,-31.603256225585938
1776444107797363500,26.016363525390624,-30.93096923828125,1.2976837158203125,-31.89984130859375
1776444107822380300,26.04138037109375,-30.6995849609375,0.5313720703125,-32.46400451660156
1776444107847398400,26.0663984375,-29.833465576171875,-0.3261871337890625,-32.86531066894531
1776444107872415200,26.091415283203126,-30.040771484375,-1.0001678466796875,-33.10520935058594
1776444107897432300,26.116432373046877,-29.205474853515625,-2.6227874755859375,-33.59382629394531
1776444107922450400,26.141450439453124,-28.458221435546875,-3.233489990234375,-34.165191650390625
1776444107947467300,26.16646728515625,-27.5662841796875,-4.13470458984375,-34.53923034667969
1776444107972484000,26.191484130859376,-27.046112060546875,-4.655181884765625,-35.10267639160156
1776444107997502200,26.216502197265626,-26.047027587890625,-5.5159912109375,-35.37611389160156
1776444108022519000,26.24151904296875,-25.07281494140625,-5.7650146484375,-35.89726257324219
1776444108047536000,26.2665361328125,-24.24395751953125,-6.2318878173828125,-36.3470458984375
1776444108072554000,26.291553955078125,-23.25579833984375,-6.53070068359375,-36.81451416015625
1776444108097571000,26.316571044921876,-22.552337646484375,-7.010894775390625,-37.090179443359375
1776444108122588200,26.341588134765626,-21.811187744140625,-7.7561187744140625,-37.98661804199219
1776444108147606000,26.36660595703125,-21.222991943359375,-8.406478881835938,-37.83915710449219
1776444108172623000,26.391623046875,-20.099456787109375,-9.617599487304688,-37.98435974121094
1776444108197640200,26.41664013671875,-19.677520751953125,-10.478912353515625,-38.23161315917969
1776444108222658000,26.441657958984376,-18.798004150390625,-11.585189819335938,-38.642547607421875
1776444108247675100,26.466675048828126,-18.3970947265625,-12.274429321289062,-38.492218017578125
1776444108272692200,26.491692138671876,-17.252593994140625,-12.63824462890625,-38.7496337890625
1776444108297710000,26.5167099609375,-17.15875244140625,-13.072525024414062,-38.64044189453125
1776444108322727200,26.54172705078125,-16.48614501953125,-13.726242065429688,-38.90013122558594
1776444108347744300,26.566744140625,-16.242431640625,-13.940261840820312,-38.71014404296875
1776444108372761300,26.59176123046875,-15.805419921875,-14.321380615234375,-38.66383361816406
1776444108397779200,26.616779296875,-15.345245361328125,-14.54669189453125,-38.63490295410156
1776444108422796300,26.64179638671875,-14.61456298828125,-15.085296630859375,-38.87005615234375
1776444108447813400,26.6668134765625,-14.203033447265625,-15.208663940429688,-39.15373229980469
1776444108472831200,26.691831298828124,-13.144378662109375,-15.288650512695312,-39.408416748046875
1776444108497848300,26.716848388671874,-12.456756591796875,-15.473312377929688,-39.315155029296875
1776444108522865200,26.741865234375,-11.3377685546875,-15.362762451171875,-39.80876159667969
1776444108547883300,26.76688330078125,-10.693572998046875,-15.4437255859375,-39.970306396484375
1776444108572900000,26.791900146484377,-9.59735107421875,-15.597824096679688,-40.289642333984375
1776444108597917200,26.816917236328123,-8.838470458984375,-15.6966552734375,-40.34478759765625
1776444108622935000,26.84193505859375,-7.88226318359375,-15.310745239257812,-40.62263488769531
1776444108647952100,26.8669521484375,-7.444488525390625,-15.367950439453125,-40.87492370605469
1776444108672969200,26.89196923828125,-6.26507568359375,-15.770828247070312,-40.91716003417969
1776444108697987000,26.916987060546877,-5.803466796875,-15.882171630859375,-40.84674072265625
1776444108723004200,26.942004150390623,-4.803436279296875,-15.997543334960938,-41.12890625
1776444108748021200,26.967021240234374,-4.307891845703125,-16.276992797851562,-41.09214782714844
1776444108773039000,26.9920390625,-2.53692626953125,-16.09576416015625,-40.97747802734375
1776444108798056200,27.01705615234375,-2.202972412109375,-15.72393798828125,-41.029876708984375
1776444108823073000,27.042072998046876,-0.902557373046875,-15.350112915039062,-41.430328369140625
1776444108848091100,27.067091064453123,-0.86798095703125,-14.960494995117188,-41.29484558105469
1776444108873108200,27.092108154296874,0.3448486328125,-14.720779418945312,-41.6072998046875
1776444108898125000,27.117125,-0.235809326171875,-14.802825927734375,-41.62322998046875
1776444108923143200,27.14214306640625,0.67620849609375,-14.122406005859375,-41.81712341308594
1776444108948160300,27.16716015625,0.36334228515625,-13.850296020507812,-41.903656005859375
1776444108973176800,27.1921767578125,-0.045166015625,-13.4791259765625,-42.11698913574219
1776444108998194000,27.21719384765625,-0.308563232421875,-13.25213623046875,-41.92494201660156
1776444109023212000,27.2422119140625,-1.30181884765625,-13.198089599609375,-42.32757568359375
1776444109048228900,27.267228759765626,-1.583221435546875,-12.689605712890625,-42.1380615234375
1776444109073246000,27.292245849609376,-1.76458740234375,-12.420150756835938,-42.2034912109375
1776444109098264000,27.31726416015625,-2.204986572265625,-12.249740600585938,-42.29646301269531
1776444109123281000,27.342281005859373,-2.179107666015625,-11.792404174804688,-42.55708312988281
1776444109148298000,27.367298095703124,-2.543121337890625,-11.69671630859375,-42.533538818359375
1776444109173316000,27.392316162109374,-2.292724609375,-11.598526000976562,-42.68608093261719
1776444109198333000,27.4173330078125,-2.2615966796875,-11.218902587890625,-42.788543701171875
1776444109223349800,27.442349853515626,-2.52410888671875,-11.180938720703125,-42.67578125
1776444109248368000,27.4673681640625,-2.196685791015625,-11.18084716796875,-42.72314453125
1776444109273384700,27.492384765625,-1.88177490234375,-10.314498901367188,-42.680755615234375
1776444109298401800,27.51740185546875,-1.408447265625,-10.507034301757812,-43.02754211425781
1776444109323420000,27.542419921875,-0.66192626953125,-9.930023193359375,-43.080535888671875
1776444109348436700,27.567436767578126,-0.64300537109375,-9.762496948242188,-43.17732238769531
1776444109373453800,27.592453857421877,-0.632904052734375,-9.033447265625,-43.2327880859375
1776444109398471000,27.617470947265623,0.15545654296875,-8.46484375,-43.21235656738281
1776444109423488800,27.64248876953125,0.754547119140625,-8.077163696289062,-43.42463684082031
1776444109448505900,27.667505859375,0.87841796875,-7.7955474853515625,-43.17919921875
1776444109473523000,27.69252294921875,1.383575439453125,-7.0845947265625,-43.433349609375
1776444109498540800,27.717540771484376,1.544891357421875,-7.341156005859375,-43.74378967285156
1776444109523558000,27.742557861328127,2.403564453125,-7.25433349609375,-43.47563171386719
1776444109548575000,27.767574951171873,2.9029541015625,-7.3104705810546875,-43.405242919921875
1776444109573592800,27.7925927734375,3.81170654296875,-6.5811004638671875,-43.40043640136719
1776444109598610000,27.81760986328125,3.59759521484375,-6.556976318359375,-43.403900146484375
1776444109623627000,27.842626953125,4.507781982421875,-6.404388427734375,-42.979888916015625
1776444109648644000,27.86764404296875,4.16375732421875,-5.9967193603515625,-42.95259094238281
1776444109673662000,27.892661865234373,5.197601318359375,-5.7332611083984375,-43.292083740234375
1776444109698679000,27.917678955078124,5.487579345703125,-5.8996429443359375,-43.158660888671875
1776444109723695900,27.94269580078125,6.465667724609375,-5.58404541015625,-43.31298828125
1776444109748714000,27.9677138671875,6.0634765625,-5.986541748046875,-42.96307373046875
1776444109773731000,27.99273095703125,7.548126220703125,-6.16778564453125,-42.98321533203125
1776444109798748000,28.017747802734377,7.98773193359375,-6.2911834716796875,-42.77247619628906
1776444109823766000,28.04276611328125,9.131927490234375,-6.4723968505859375,-42.717620849609375
1776444109848783000,28.067783203125,9.541229248046875,-6.15081787109375,-42.38572692871094
1776444109873799700,28.092799560546876,10.397247314453125,-6.1725616455078125,-42.38751220703125
1776444109898816800,28.117816650390626,11.071624755859375,-6.309814453125,-42.182891845703125
1776444109923835000,28.1428349609375,11.18756103515625,-5.9755859375,-41.76837158203125
1776444109948851700,28.167851806640623,11.967132568359375,-5.8291015625,-41.79875183105469
1776444109973868800,28.192868896484374,11.853668212890625,-5.6618194580078125,-41.83671569824219
1776444109998887000,28.217886962890624,12.371368408203125,-5.603912353515625,-41.6705322265625
1776444110023903700,28.24290380859375,12.51177978515625,-5.0465850830078125,-41.699798583984375
1776444110048920800,28.2679208984375,12.99798583984375,-4.5298004150390625,-41.683624267578125
1776444110073939000,28.29293896484375,12.485595703125,-3.5596923828125,-42.20726013183594
1776444110098955800,28.317955810546874,12.521575927734375,-3.180999755859375,-42.31681823730469
1776444110123972900,28.342972900390624,12.863006591796875,-2.4561767578125,-41.93768310546875
1776444110148991000,28.367990966796874,12.556396484375,-2.2872314453125,-42.05616760253906
1776444110174007800,28.3930078125,12.062530517578125,-2.0019989013671875,-42.01286315917969
1776444110199025000,28.41802490234375,11.7437744140625,-1.6597900390625,-42.235809326171875
1776444110224042000,28.4430419921875,11.471527099609375,-1.368011474609375,-42.25334167480469
1776444110249059800,28.468059814453124,10.887054443359375,-1.22955322265625,-42.58343505859375
1776444110274077000,28.493076904296874,10.867950439453125,-1.217987060546875,-42.67344665527344
1776444110299094000,28.518093994140624,10.59600830078125,-1.060577392578125,-43.0052490234375
1776444110324112000,28.54311181640625,10.017364501953125,-0.7354888916015625,-42.9473876953125
1776444110349129000,28.56812890625,9.423553466796875,-1.3253173828125,-42.96153259277344
1776444110374146000,28.59314599609375,8.88604736328125,-1.1583709716796875,-42.92138671875
1776444110399163000,28.618162841796874,8.7125244140625,-1.03717041015625,-43.111328125
1776444110424181000,28.643180908203124,8.5040283203125,-0.7949676513671875,-43.30854797363281
1776444110449197800,28.66819775390625,8.389801025390625,-0.7992095947265625,-43.15472412109375
1776444110474215000,28.69321484375,8.59326171875,-0.59490966796875,-43.353363037109375
1776444110499232800,28.718232666015624,9.17877197265625,-0.515045166015625,-43.158782958984375
1776444110524249900,28.743249755859374,8.92095947265625,-0.357177734375,-43.2567138671875
1776444110549266700,28.7682666015625,9.81292724609375,-0.591888427734375,-43.204315185546875
1776444110574283800,28.79328369140625,10.05731201171875,-0.4044189453125,-42.721038818359375
1776444110599302000,28.818302001953125,11.495147705078125,-0.591094970703125,-42.51763916015625
1776444110624318700,28.843318603515623,11.974029541015625,-0.434783935546875,-42.398895263671875
1776444110649335800,28.868335693359374,13.834228515625,0.1541290283203125,-41.999908447265625
1776444110674354000,28.89335400390625,13.870880126953125,0.4215240478515625,-41.93983459472656
1776444110699370800,28.918370849609374,14.223236083984375,0.9463043212890625,-41.68116760253906
1776444110724387800,28.943387939453125,14.13763427734375,1.2795867919921875,-41.86766052246094
1776444110749406000,28.968406005859375,13.293243408203125,2.3007354736328125,-42.04063415527344
1776444110774422800,28.9934228515625,12.674591064453125,3.080047607421875,-42.06962585449219
1776444110799440000,29.01843994140625,12.02740478515625,4.5308074951171875,-42.0811767578125
1776444110824458000,29.0434580078125,11.126495361328125,5.511199951171875,-42.13597106933594
1776444110849474800,29.068474853515625,9.811859130859375,7.44329833984375,-42.337188720703125
1776444110874492000,29.093491943359375,9.165863037109375,8.537277221679688,-42.428863525390625
1776444110899509000,29.118509033203125,8.898895263671875,10.669692993164062,-41.83659362792969
1776444110924526800,29.14352685546875,8.396209716796875,11.981521606445312,-41.939056396484375
1776444110949544000,29.1685439453125,7.80419921875,12.925872802734375,-41.46800231933594
1776444110974565000,29.193565185546873,7.390655517578125,13.491653442382812,-41.433319091796875
1776444110999583000,29.2185830078125,7.332122802734375,13.850494384765625,-41.245391845703125
1776444111024600000,29.24360009765625,6.97088623046875,13.985763549804688,-41.4862060546875
1776444111049617200,29.2686171875,6.894927978515625,13.671401977539062,-41.426666259765625
1776444111074634000,29.293634033203126,6.716278076171875,13.716278076171875,-41.35856628417969
1776444111099652000,29.318652099609373,6.070159912109375,13.639938354492188,-41.47149658203125
1776444111124669200,29.343669189453124,5.652435302734375,13.762985229492188,-41.20625305175781
1776444111149686000,29.36868603515625,5.21392822265625,13.746841430664062,-41.28038024902344
1776444111174702800,29.393702880859376,4.7078857421875,13.88861083984375,-41.345703125
1776444111199721200,29.41872119140625,3.479644775390625,13.948944091796875,-41.32972717285156
1776444111224737800,29.44373779296875,2.837554931640625,14.487472534179688,-41.645355224609375
1776444111249755000,29.4687548828125,1.91522216796875,14.887649536132812,-41.05091857910156
1776444111274773000,29.49377294921875,1.257965087890625,15.195648193359375,-41.423583984375
1776444111299789800,29.518789794921876,0.84783935546875,15.716903686523438,-41.008026123046875
1776444111324807000,29.543806884765626,0.349090576171875,15.647323608398438,-40.89344787597656
1776444111349824000,29.568823974609376,-0.2056884765625,15.857406616210938,-40.89939880371094
1776444111374841900,29.593841796875,-0.908721923828125,16.031539916992188,-40.97749328613281
1776444111399859000,29.61885888671875,-1.79693603515625,16.2755126953125,-40.72698974609375
1776444111424876000,29.6438759765625,-2.226348876953125,16.450759887695312,-40.373291015625
1776444111449893000,29.66889306640625,-2.883209228515625,16.665237426757812,-40.48199462890625
1776444111474911000,29.693910888671876,-3.07257080078125,16.518417358398438,-40.47593688964844
1776444111499928000,29.718927978515627,-3.4019775390625,16.49267578125,-40.46563720703125
1776444111524945000,29.74394482421875,-3.935882568359375,16.612060546875,-40.334075927734375
1776444111549963000,29.768962890625,-4.4404296875,16.719329833984375,-40.35084533691406
1776444111574980000,29.79397998046875,-4.52752685546875,16.911407470703125,-40.39698791503906
1776444111599997000,29.818996826171876,-4.600311279296875,16.770309448242188,-40.45027160644531
1776444111625014000,29.844013916015626,-4.459197998046875,16.518203735351562,-40.48658752441406
1776444111650032000,29.8690322265625,-4.91107177734375,15.813446044921875,-40.71138000488281
1776444111675049000,29.894049072265624,-4.791778564453125,15.78253173828125,-40.84814453125
1776444111700066000,29.919066162109374,-5.347259521484375,15.996505737304688,-40.708740234375
1776444111725083000,29.944082763671876,-5.115814208984375,15.870529174804688,-40.76557922363281
1776444111750101000,29.96910107421875,-5.285125732421875,16.008148193359375,-40.60231018066406
1776444111775117800,29.994117919921877,-5.663543701171875,15.937698364257812,-40.58857727050781
1776444111800135000,30.019135009765623,-6.11029052734375,16.207931518554688,-40.50445556640625
1776444111825152800,30.04415283203125,-6.364532470703125,16.30047607421875,-40.391265869140625
1776444111850169900,30.069169921875,-6.862396240234375,16.513259887695312,-39.990478515625
1776444111875187000,30.09418701171875,-7.327728271484375,16.543960571289062,-40.12654113769531
1776444111900204000,30.1192041015625,-7.801239013671875,16.304290771484375,-39.75048828125
1776444111925222000,30.144221923828123,-8.393035888671875,16.398635864257812,-39.87495422363281
1776444111950239000,30.169239013671874,-9.109954833984375,16.128173828125,-39.65263366699219
1776444111975254300,30.194254150390623,-9.3795166015625,15.734130859375,-39.879486083984375
1776444112000271400,30.219271240234374,-9.427703857421875,14.985031127929688,-40.23616027832031
1776444112025289200,30.244289306640624,-9.6890869140625,14.513504028320312,-40.41297912597656
1776444112050306300,30.269306396484374,-9.8099365234375,13.964263916015625,-40.40943908691406
1776444112075323400,30.294323486328125,-9.709075927734375,13.736618041992188,-40.55091857910156
1776444112100341200,30.31934130859375,-10.082550048828125,13.4256591796875,-40.77677917480469
1776444112125358300,30.3443583984375,-9.997314453125,12.841812133789062,-40.50331115722656
1776444112150375400,30.36937548828125,-11.255096435546875,12.84490966796875,-40.486083984375
1776444112175392500,30.394392578125,-11.755401611328125,13.001007080078125,-40.389678955078125
1776444112200410400,30.419410400390625,-13.119903564453125,12.776321411132812,-40.10218811035156
1776444112225427500,30.444427490234375,-13.646881103515625,12.799636840820312,-39.63764953613281
1776444112250444300,30.4694443359375,-15.032867431640625,12.268341064453125,-39.551055908203125
1776444112275461400,30.49446142578125,-15.793548583984375,12.344985961914062,-39.38995361328125
1776444112300479500,30.5194794921875,-16.927520751953125,12.277618408203125,-39.017364501953125
1776444112325496300,30.544496337890624,-17.33172607421875,11.831344604492188,-38.83624267578125
1776444112350513400,30.569513427734375,-18.52685546875,11.217758178710938,-38.60142517089844
1776444112375530500,30.594530517578125,-19.057769775390625,10.854141235351562,-38.42530822753906
1776444112400548400,30.61954833984375,-19.986083984375,10.990081787109375,-38.24461364746094
1776444112425565400,30.6445654296875,-20.8829345703125,10.55963134765625,-37.9234619140625
1776444112450582500,30.66958251953125,-21.11383056640625,10.078323364257812,-37.68589782714844
1776444112475600400,30.694600341796875,-21.648101806640625,9.384124755859375,-37.69844055175781
1776444112500617500,30.719617431640625,-22.03057861328125,8.802642822265625,-37.56761169433594
1776444112525634300,30.74463427734375,-21.970245361328125,8.309585571289062,-37.27748107910156
1776444112550651400,30.7696513671875,-22.71624755859375,8.338058471679688,-37.247283935546875
1776444112575669500,30.79466943359375,-22.91827392578125,7.769683837890625,-37.453948974609375
1776444112600686300,30.819686279296874,-22.609710693359375,7.4313507080078125,-37.42790222167969
1776444112625703400,30.844703369140625,-22.70501708984375,7.1546173095703125,-37.42791748046875
1776444112650720300,30.86972021484375,-23.1566162109375,6.7033843994140625,-37.39373779296875
1776444112675738400,30.89473828125,-22.99664306640625,6.380035400390625,-37.37321472167969
1776444112700755500,30.91975537109375,-23.11065673828125,5.9392547607421875,-37.36015319824219
1776444112725772300,30.944772216796874,-22.705352783203125,5.6439361572265625,-37.50929260253906
1776444112750789400,30.969789306640624,-22.959686279296875,5.372528076171875,-37.173370361328125
1776444112775807500,30.994807373046875,-23.269866943359375,5.0164337158203125,-37.412261962890625
1776444112800824300,31.01982421875,-23.1490478515625,4.9801788330078125,-37.196044921875
1776444112825841400,31.04484130859375,-23.524017333984375,4.4996185302734375,-37.14845275878906
1776444112850858500,31.0698583984375,-23.535675048828125,4.1566619873046875,-37.13700866699219
1776444112875876400,31.09487646484375,-23.25177001953125,3.492919921875,-37.46636962890625
1776444112900893400,31.1198935546875,-23.92254638671875,3.394683837890625,-37.45025634765625
1776444112925910500,31.14491064453125,-24.008148193359375,3.3220367431640625,-36.82383728027344
1776444112950928400,31.169928466796875,-24.425048828125,3.1731719970703125,-36.782623291015625
1776444112975943400,31.194943359375,-24.711273193359375,2.72149658203125,-36.427978515625
1776444113000960300,31.219960205078124,-25.204681396484375,2.069366455078125,-35.83653259277344
1776444113025977000,31.24497705078125,-25.96820068359375,1.8563385009765625,-35.75311279296875
1776444113050995500,31.269995361328125,-26.2928466796875,1.94110107421875,-35.02699279785156
1776444113076012000,31.295011962890626,-26.884552001953125,2.12103271484375,-34.50563049316406
1776444113101029000,31.320029052734377,-27.78533935546875,1.65802001953125,-34.37532043457031
1776444113126046200,31.345046142578123,-28.01318359375,1.03753662109375,-33.8480224609375
1776444113151064000,31.37006396484375,-28.605682373046875,0.4829254150390625,-33.53996276855469
1776444113176081200,31.3950810546875,-29.2681884765625,-0.340667724609375,-33.21687316894531
1776444113201098200,31.42009814453125,-28.907501220703125,-1.0019989013671875,-32.98661804199219
1776444113226115300,31.445115234375,-29.077850341796875,-1.7789306640625,-33.315277099609375
1776444113251133200,31.47013330078125,-29.0296630859375,-2.526031494140625,-33.60765075683594
1776444113276150300,31.495150390625,-28.253265380859375,-3.455902099609375,-33.768218994140625
1776444113301167400,31.52016748046875,-28.181915283203125,-4.1656646728515625,-34.28633117675781
1776444113326184200,31.54518408203125,-26.523895263671875,-5.4173736572265625,-34.75018310546875
1776444113351202300,31.570202392578125,-25.926025390625,-6.020111083984375,-35.25505065917969
1776444113376219400,31.595219482421875,-24.641082763671875,-7.3830413818359375,-35.962066650390625
1776444113401236200,31.620236328125,-24.204132080078125,-8.3255615234375,-36.14503479003906
1776444113426253300,31.64525341796875,-23.329620361328125,-9.393585205078125,-36.49647521972656
1776444113451271200,31.670271240234374,-22.803070068359375,-10.084121704101562,-36.49842834472656
1776444113476288300,31.695288330078125,-22.02099609375,-11.364730834960938,-36.8543701171875
1776444113501305300,31.720305419921875,-21.475494384765625,-11.98370361328125,-36.90562438964844
1776444113526322200,31.745322265625,-21.04998779296875,-12.406051635742188,-37.26097106933594
1776444113551340300,31.77034033203125,-20.972412109375,-12.516571044921875,-37.36048889160156
1776444113576357000,31.795357177734374,-20.13543701171875,-12.469070434570312,-37.5531005859375
1776444113601374200,31.820374267578124,-20.358795166015625,-12.327926635742188,-37.8033447265625
1776444113626391300,31.845391357421875,-20.03887939453125,-11.864898681640625,-38.22369384765625
1776444113651409200,31.8704091796875,-19.566802978515625,-11.91607666015625,-38.16902160644531
