time,seconds_elapsed,z,y,x
1776444081845421000,0.064421142578125,0.02857119031250477,-0.04562527686357498,0.02635570801794529
1776444081870439200,0.089439208984375,0.025120267644524574,-0.0727895200252533,0.039258722215890884
1776444081895457000,0.11445703125,0.09061086177825928,-0.07336343079805374,0.04266144335269928
1776444081920474000,0.13947412109375,0.18563909828662872,-0.014273744076490402,0.038781218230724335
1776444081945492200,0.1644921875,0.19713596999645233,-0.038425952196121216,0.07330750674009323
1776444081970510300,0.18951025390625,0.18148483335971832,-0.051903676241636276,0.1120636835694313
1776444081995528200,0.214528076171875,0.24614958465099335,-0.033071666955947876,0.1336856186389923
1776444082020545300,0.239545166015625,0.35527127981185913,-0.04742743819952011,0.10747825354337692
1776444082045563100,0.264563232421875,0.4260905981063843,0.008311726152896881,0.04242229089140892
1776444082070581200,0.289581298828125,0.48277702927589417,0.05158676207065582,0.00015393071225844324
1776444082095599000,0.31459912109375,0.5960146188735962,-0.06992901861667633,-0.016562731936573982
1776444082120616200,0.3396162109375,0.672825813293457,-0.3110273778438568,0.022768961265683174
1776444082145634000,0.364634033203125,0.7242381572723389,-0.4880034923553467,0.09555022418498993
1776444082170652200,0.389652099609375,0.7877017855644226,-0.4950225353240967,0.14660727977752686
1776444082195669200,0.414669189453125,0.6359375715255737,-0.4393371641635895,0.18388834595680237
1776444082220687000,0.43968701171875,0.3765225112438202,-0.21520684659481049,0.22347037494182587
1776444082245705200,0.464705322265625,0.06358323991298676,0.02996295876801014,0.2732941210269928
1776444082270723000,0.48972314453125,-0.14774152636528015,0.23881736397743225,0.2842746078968048
1776444082295740200,0.514740234375,-0.2687116265296936,0.3759446144104004,0.4713568687438965
1776444082320758000,0.539758056640625,-0.4156464636325836,0.3490690290927887,0.603563129901886
1776444082345776000,0.564776123046875,-0.6001630425453186,0.28607168793678284,0.5236222147941589
1776444082370794000,0.5897939453125,-0.7006129622459412,0.3471854031085968,0.2698354721069336
1776444082395811000,0.61481103515625,-0.6416505575180054,0.641453742980957,0.06332144886255264
1776444082420829200,0.6398291015625,-0.5495132207870483,0.5714717507362366,-0.08794716745615005
1776444082445847300,0.664847412109375,-0.20548151433467865,0.18943996727466583,-0.21799331903457642
1776444082470865200,0.689865234375,0.14163756370544434,-0.012969860807061195,-0.22209805250167847
1776444082495882200,0.71488232421875,0.14885471761226654,0.015017831698060036,-0.1403869390487671
1776444082520900400,0.739900390625,0.07935367524623871,0.017348097637295723,-0.05666860565543175
1776444082545918200,0.764918212890625,0.048408277332782745,0.0012660667998716235,-0.005572131834924221
1776444082570936300,0.789936279296875,0.04039296135306358,-0.050769705325365067,0.04055781289935112
1776444082595953200,0.814953125,0.03310442343354225,-0.07733739912509918,0.04680345952510834
1776444082620971300,0.83997119140625,0.03555107116699219,-0.12836728990077972,0.02046586014330387
1776444082645989000,0.864989013671875,0.02707183174788952,-0.08828724920749664,-0.026523219421505928
1776444082671006200,0.890006103515625,0.028012193739414215,-0.0595882274210453,-0.069178007543087
1776444082696024000,0.915024169921875,0.07772089540958405,-0.05489574000239372,-0.104921355843544
1776444082721042200,0.940042236328125,0.22536946833133698,-0.14838920533657074,-0.16005705296993256
1776444082746060000,0.96506005859375,0.38540494441986084,-0.2327759861946106,-0.18987326323986053
1776444082771077000,0.9900771484375,0.5539766550064087,-0.328380286693573,-0.24990783631801605
1776444082796095200,1.01509521484375,0.782514750957489,-0.3669399321079254,-0.27220913767814636
1776444082821113000,1.040113037109375,0.9996545314788818,-0.45156344771385193,-0.2475445568561554
1776444082846130200,1.065130126953125,1.1454921960830688,-0.44618865847587585,-0.14895938336849213
1776444082871148000,1.09014794921875,1.2730687856674194,-0.3824339210987091,-0.07686734944581985
1776444082896166100,1.115166259765625,1.3976359367370605,-0.3420662581920624,-0.061174940317869186
1776444082921184000,1.14018408203125,1.550025224685669,-0.3103701174259186,-0.04308648407459259
1776444082946200800,1.165200927734375,1.6044824123382568,-0.28718358278274536,-0.030407706275582314
1776444082971219000,1.190218994140625,1.6747019290924072,-0.22944144904613495,-0.013253221288323402
1776444082996236800,1.21523681640625,1.7533972263336182,-0.07237513363361359,-0.005822469014674425
1776444083021254700,1.240254638671875,1.7897549867630005,-0.02178625576198101,0.03802088648080826
1776444083046271700,1.265271728515625,1.7306722402572632,-0.01534406840801239,0.11468636989593506
1776444083071289900,1.290289794921875,1.7514140605926514,0.03922490030527115,0.1619902402162552
1776444083096307700,1.3153076171875,1.7506192922592163,-0.031676970422267914,0.1808941513299942
1776444083121324800,1.34032470703125,1.6545895338058472,-0.08622623234987259,0.2086797058582306
1776444083146342700,1.3653427734375,1.5070775747299194,-0.06101355329155922,0.24327151477336884
1776444083171360800,1.39036083984375,1.381234049797058,0.005016330163925886,0.2027408629655838
1776444083196378600,1.415378662109375,1.049046277999878,0.29815393686294556,0.2530200183391571
1776444083221395700,1.440395751953125,0.8809286952018738,0.38962578773498535,0.3212059736251831
1776444083246413800,1.465413818359375,0.8732555508613586,0.3073194622993469,0.30960047245025635
1776444083271431700,1.490431640625,0.9859285950660706,0.15741705894470215,0.212983638048172
1776444083296448800,1.51544873046875,1.4333913326263428,-0.11662515252828598,-0.016393620520830154
1776444083321466600,1.540466552734375,1.102997899055481,0.0761331170797348,-0.01260900218039751
1776444083346484700,1.565484619140625,1.0220069885253906,0.0334375835955143,-0.02460627630352974
1776444083371502600,1.590502685546875,1.033800721168518,0.0994056835770607,0.009917878545820713
1776444083396519700,1.615519775390625,1.247782826423645,0.12258210778236389,0.01606551930308342
1776444083421537500,1.64053759765625,1.4372023344039917,0.042441997677087784,0.0616907961666584
1776444083446556000,1.665555908203125,1.5074613094329834,-0.03906271234154701,0.10180066525936127
1776444083471572700,1.69057275390625,1.488955020904541,-0.03244901821017265,0.07187312096357346
1776444083496590800,1.7155908203125,1.5016907453536987,-0.0359199158847332,-0.05203470587730408
1776444083521608700,1.740608642578125,1.356873631477356,0.11627361178398132,-0.03148415684700012
1776444083546626800,1.765626708984375,1.3414621353149414,0.07389046996831894,-0.02797570824623108
1776444083571644000,1.790643798828125,1.2576855421066284,0.040521327406167984,-0.07612352818250656
1776444083596661800,1.815661865234375,1.1665071249008179,-0.058336809277534485,-0.08211297541856766
1776444083621679900,1.840679931640625,1.1767288446426392,-0.058636147528886795,-0.009954096749424934
1776444083646696700,1.86569677734375,1.2463170289993286,-0.07247153669595718,0.01589001715183258
1776444083671714800,1.89071484375,1.1614426374435425,-0.0030043120495975018,0.006731938570737839
1776444083696732700,1.915732666015625,1.027592658996582,0.07019240409135818,-0.008943427354097366
1776444083721750800,1.940750732421875,1.0245044231414795,0.014213823713362217,0.009709086269140244
1776444083746768000,1.965767822265625,1.1048046350479126,0.012870791368186474,0.05251434072852135
1776444083771785700,1.99078564453125,1.1376686096191406,0.020368654280900955,0.0224994495511055
1776444083796803800,2.015803955078125,1.2555896043777466,0.06660379469394684,0.04014795273542404
1776444083821820700,2.040820556640625,1.3841766119003296,0.5391782522201538,0.11128763854503632
1776444083846838800,2.0658388671875,1.649147629737854,0.6461625099182129,0.13182513415813446
1776444083871856600,2.090856689453125,1.7437987327575684,0.7343575954437256,0.11699586361646652
1776444083896874800,2.115874755859375,1.6581165790557861,0.6997242569923401,0.06252995878458023
1776444083921891600,2.1408916015625,1.3860278129577637,0.6976736187934875,-0.03772234544157982
1776444083946909700,2.16590966796875,1.3446159362792969,0.35902661085128784,-0.09836891293525696
1776444083971927800,2.190927734375,1.321024775505066,0.09395285695791245,-0.168599933385849
1776444083996944600,2.215944580078125,1.0978153944015503,-0.07233784347772598,-0.253966748714447
1776444084021963000,2.240962890625,1.023179531097412,-0.16307920217514038,-0.22034808993339539
1776444084046980900,2.26598095703125,1.0737868547439575,0.000702009245287627,-0.061410363763570786
1776444084071998000,2.290998046875,1.0338737964630127,0.12138208746910095,-0.004041613079607487
1776444084097015800,2.316015869140625,0.8004031777381897,0.3099623918533325,-0.21889986097812653
1776444084122034000,2.341033935546875,0.7467844486236572,-0.18208910524845123,-0.33175450563430786
1776444084147051800,2.3660517578125,0.8030186891555786,-0.06576915830373764,-0.3280002474784851
1776444084172068900,2.39106884765625,0.8668283224105835,-0.006706106010824442,-0.3676927983760834
1776444084197086700,2.416086669921875,1.101335883140564,0.18729957938194275,-0.3767957389354706
1776444084222104800,2.441104736328125,1.2009661197662354,0.3387381136417389,-0.46665292978286743
1776444084247122000,2.466121826171875,1.2919771671295166,0.4243432879447937,-0.5346061587333679
1776444084272139800,2.491139892578125,1.3177871704101562,0.42460426688194275,-0.4985980689525604
1776444084297158000,2.516157958984375,1.082199215888977,0.3888891637325287,-0.38404861092567444
1776444084322175700,2.54117578125,0.9076095819473267,0.41143760085105896,-0.24812911450862885
1776444084347192800,2.56619287109375,0.8710051774978638,0.4015420973300934,-0.16871072351932526
1776444084372210700,2.591210693359375,0.764586865901947,0.3265402913093567,-0.1622197926044464
1776444084397228800,2.616228759765625,0.667009174823761,0.2466406673192978,-0.12104813009500504
1776444084422245600,2.64124560546875,0.5684051513671875,0.13364674150943756,-0.04537360742688179
1776444084447263700,2.666263671875,0.6175564527511597,0.03316913917660713,0.010696852579712868
1776444084472281600,2.691281494140625,0.6479694843292236,-0.10507049411535263,0.042396724224090576
1776444084497298700,2.716298583984375,0.6254705190658569,-0.24369974434375763,0.09446791559457779
1776444084522316800,2.74131689453125,0.6128641963005066,-0.3391208052635193,0.1650528758764267
1776444084547334700,2.766334716796875,0.6534704566001892,-0.43291014432907104,0.20893536508083344
1776444084572352800,2.791352783203125,0.6939659714698792,-0.5315871834754944,0.2668977379798889
1776444084597369600,2.81636962890625,0.6900990605354309,-0.6388667821884155,0.28981292247772217
1776444084622388000,2.841387939453125,0.5730630159378052,-0.7525254487991333,0.2822607159614563
1776444084647405800,2.86640576171875,0.47046658396720886,-0.777729332447052,0.25890612602233887
1776444084672423000,2.8914228515625,0.4607210159301758,-0.7903109192848206,0.19365975260734558
1776444084697440800,2.916440673828125,0.6797217726707458,-0.48984161019325256,0.1172584518790245
1776444084722459000,2.941458984375,0.608350932598114,-0.19616897404193878,0.10434291511774063
1776444084747476700,2.966476806640625,0.6017995476722717,-0.06029423326253891,0.04849483072757721
1776444084772493800,2.991493896484375,1.0042130947113037,0.0474197119474411,-0.06863871216773987
1776444084797512000,3.016511962890625,1.3205547332763672,0.09191607683897018,-0.22041866183280945
1776444084822529800,3.04152978515625,1.2268210649490356,0.23724663257598877,-0.25594362616539
1776444084847547000,3.066546875,1.128525733947754,0.41146984696388245,-0.13250131905078888
1776444084872564700,3.091564697265625,1.2010648250579834,0.2539348006248474,-0.0887778028845787
1776444084897582800,3.116582763671875,1.230292797088623,0.1237349882721901,0.03286793455481529
1776444084922599700,3.141599609375,1.1405810117721558,-0.09719206392765045,-0.000046072687837295234
1776444084947618300,3.166618408203125,1.0241901874542236,-0.1941622793674469,0.081507109105587
1776444084972636200,3.19163623046875,1.029013752937317,-0.4301220774650574,0.16106931865215302
1776444084997654300,3.216654296875,1.1883724927902222,-0.5494543313980103,0.2289429008960724
1776444085022671000,3.241671142578125,1.5622262954711914,-0.4857485890388489,0.1691722422838211
1776444085047689200,3.266689208984375,1.8605037927627563,-0.302491694688797,0.09701097011566162
1776444085072707000,3.29170703125,2.112696886062622,-0.017593108117580414,0.02437005378305912
1776444085097724200,3.31672412109375,2.2345900535583496,0.16069459915161133,-0.02419242076575756
1776444085122742300,3.3417421875,2.2950704097747803,0.2588967978954315,-0.06088092550635338
1776444085147760000,3.366760009765625,2.217202663421631,0.3427954316139221,-0.12811721861362457
1776444085172777200,3.391777099609375,2.201232671737671,0.42667490243911743,-0.10768172144889832
1776444085197795000,3.416795166015625,2.1799092292785645,0.4158986806869507,-0.15157674252986908
1776444085222813200,3.441813232421875,2.185234785079956,0.5033406615257263,-0.07201506942510605
1776444085247831300,3.466831298828125,2.2455508708953857,0.47298192977905273,0.0023518374655395746
1776444085272848100,3.49184814453125,2.386812210083008,0.38782548904418945,0.1058254987001419
1776444085297866200,3.5168662109375,2.269413471221924,0.31487271189689636,0.17929598689079285
1776444085322884400,3.54188427734375,2.091517210006714,0.19668562710285187,0.2190447300672531
1776444085347901400,3.5669013671875,1.9279358386993408,0.05450372025370598,0.2683643400669098
1776444085372919300,3.591919189453125,1.544554591178894,-0.00848802737891674,0.3431254029273987
1776444085397937400,3.6169375,1.2555220127105713,-0.20822137594223022,0.24454742670059204
1776444085422954200,3.641954345703125,1.132652759552002,-0.4197482764720917,0.08209966123104095
1776444085447972400,3.666972412109375,0.7671539187431335,-0.4901076555252075,-0.00635004136711359
1776444085472990200,3.691990234375,0.7953333258628845,-0.6428833603858948,-0.28455501794815063
1776444085498008300,3.71700830078125,0.8823665380477905,-0.726928174495697,-0.3557139039039612
1776444085523025200,3.742025146484375,0.5694805383682251,-0.5839737057685852,-0.4114099144935608
1776444085548043300,3.767043212890625,0.5773528218269348,-0.563515305519104,-0.4811234772205353
1776444085573061000,3.79206103515625,0.6620224118232727,-0.4655700922012329,-0.39446502923965454
1776444085598078200,3.817078125,0.5275493264198303,-0.2226162999868393,-0.2554458677768707
1776444085623096300,3.842096435546875,0.4233691096305847,0.009512810967862606,-0.16520120203495026
1776444085648114200,3.8671142578125,0.6340975761413574,0.2883942425251007,-0.08106023073196411
1776444085673131300,3.89213134765625,0.7851470112800598,0.38142138719558716,-0.06420189142227173
1776444085698149000,3.917149169921875,0.8762393593788147,0.4012851119041443,-0.04152347519993782
1776444085723167200,3.942167236328125,0.7854104042053223,0.4515285789966583,0.07746230065822601
1776444085748185000,3.96718505859375,0.6604138612747192,0.471240758895874,0.1594192236661911
1776444085773202200,3.9922021484375,0.7472316026687622,0.43898534774780273,0.13268160820007324
1776444085798220000,4.017219970703125,1.0002052783966064,0.4135470986366272,0.2252272665500641
1776444085823238100,4.042238037109375,1.0432478189468384,0.2628316283226013,0.4086913466453552
1776444085848255200,4.067255126953125,1.2037304639816284,-0.13246457278728485,0.372205525636673
1776444085873273000,4.092273193359375,1.4187958240509033,-0.03484506532549858,0.3917509913444519
1776444085898291500,4.11729150390625,1.6265122890472412,-0.1306125968694687,0.15474243462085724
1776444085923308000,4.14230810546875,1.4593390226364136,-0.14969761669635773,0.09780778735876083
1776444085948326100,4.167326171875,1.212006688117981,-0.38368481397628784,0.2519177198410034
1776444085973344000,4.192343994140625,1.3370122909545898,-0.28269827365875244,0.3081812560558319
1776444085998362000,4.217362060546875,1.4708236455917358,-0.009664611890912056,0.2771000564098358
1776444086023379200,4.242379150390625,1.273248553276062,-0.0009960222523659468,0.2999292016029358
1776444086048397000,4.26739697265625,1.185543179512024,-0.02093803882598877,0.3522837460041046
1776444086073415200,4.292415283203125,1.4441983699798584,0.10448672622442245,0.3417229652404785
1776444086098432000,4.317431884765625,1.6186517477035522,0.34019672870635986,0.28255152702331543
1776444086123450000,4.3424501953125,1.6907166242599487,0.31929197907447815,0.19821535050868988
1776444086148468000,4.367468017578125,1.6219050884246826,0.15230432152748108,0.15871508419513702
1776444086173485000,4.392485107421875,1.6824666261672974,0.21714377403259277,-0.0046629286371171474
1776444086198503000,4.4175029296875,1.7139867544174194,0.29544922709465027,-0.13815148174762726
1776444086223521300,4.442521240234375,1.5835866928100586,-0.005017129238694906,-0.17753644287586212
1776444086248538000,4.4675380859375,1.4134458303451538,-0.15901175141334534,-0.1917710304260254
1776444086273556200,4.49255615234375,1.356869101524353,-0.1396561712026596,-0.2673534154891968
1776444086298574300,4.51757421875,1.33137845993042,0.021136976778507233,-0.40304920077323914
1776444086323592200,4.54259228515625,1.3532171249389648,0.3034573495388031,-0.5594878196716309
1776444086348609300,4.567609375,1.323183536529541,0.4370250105857849,-0.6010669469833374
1776444086373627100,4.592627197265625,0.7673150300979614,-0.1837988644838333,-0.4965628981590271
1776444086398645200,4.617645263671875,0.5799072980880737,0.504862904548645,-0.29367849230766296
1776444086423662000,4.642662109375,0.6220790147781372,0.35066506266593933,-0.013924870640039444
1776444086448680200,4.66768017578125,0.879135012626648,0.1866159588098526,0.09390279650688171
1776444086473698000,4.692697998046875,0.7883886098861694,0.08719775080680847,0.2647051513195038
1776444086498715100,4.717715087890625,0.8615493774414062,-0.024290958419442177,0.2658652365207672
1776444086523733200,4.742733154296875,0.8705809712409973,-0.15976223349571228,0.21973928809165955
1776444086548751000,4.767751220703125,0.9118503928184509,-0.12225160747766495,0.14218643307685852
1776444086573768200,4.792768310546875,1.1540712118148804,-0.121209517121315,0.17739102244377136
1776444086598786000,4.8177861328125,1.4415030479431152,-0.1141233742237091,0.3486144542694092
1776444086623804200,4.84280419921875,1.69496750831604,-0.055812932550907135,0.4689192771911621
1776444086648821000,4.867821044921875,1.6434377431869507,0.08943400532007217,0.5260499715805054
1776444086673839000,4.892839111328125,1.5467381477355957,0.13988733291625977,0.48110270500183105
1776444086698857000,4.91785693359375,1.7091294527053833,0.08084078878164291,0.31477710604667664
1776444086723874000,4.9428740234375,1.7902493476867676,-0.010607370175421238,0.22255903482437134
1776444086748892200,4.96789208984375,1.5982593297958374,0.012427374720573425,0.13054735958576202
1776444086773910000,4.992909912109375,1.4263807535171509,0.10515943914651871,0.036254409700632095
1776444086798927000,5.017927001953125,1.5986039638519287,0.14208923280239105,-0.0700874775648117
1776444086823945000,5.042945068359375,1.8566278219223022,0.25586533546447754,-0.1612863540649414
1776444086848963000,5.067963134765625,1.7918261289596558,0.43884792923927307,-0.22976501286029816
1776444086873980200,5.092980224609375,1.605765461921692,0.586306095123291,-0.3084654211997986
1776444086898998000,5.117998046875,1.5405739545822144,0.6711269617080688,-0.40795740485191345
1776444086924015900,5.143015869140625,1.6795272827148438,0.6539072394371033,-0.4846005141735077
1776444086949033700,5.16803369140625,1.6707167625427246,0.6160562634468079,-0.5331432819366455
1776444086974050800,5.19305078125,1.3511707782745361,0.5808529853820801,-0.571370005607605
1776444086999068700,5.218068603515625,1.0019919872283936,0.5643041133880615,-0.606410562992096
1776444087024086800,5.243086669921875,0.7746858596801758,0.4977242946624756,-0.5753498673439026
1776444087049103600,5.268103515625,0.5763823390007019,0.4105667471885681,-0.5092267394065857
1776444087074121700,5.293121826171875,0.14896711707115173,0.43768998980522156,-0.4029722213745117
1776444087099139600,5.3181396484375,0.0060267336666584015,0.2962106168270111,-0.3296700417995453
1776444087124156700,5.34315673828125,0.2956654727458954,-0.026083266362547874,-0.29745912551879883
1776444087149174800,5.3681748046875,0.3708542287349701,0.016998425126075745,-0.2592635154724121
1776444087174192600,5.393192626953125,0.34767088294029236,-0.004244279582053423,-0.18480020761489868
1776444087199209700,5.418209716796875,0.41029804944992065,-0.06103299558162689,-0.07538902759552002
1776444087224227600,5.4432275390625,0.5746704936027527,-0.20228572189807892,0.10105204582214355
1776444087249245700,5.46824560546875,0.8398459553718567,-0.4227629601955414,0.23629190027713776
1776444087274262800,5.4932626953125,1.0927716493606567,-0.5256906747817993,0.3674573600292206
1776444087299280600,5.51828076171875,1.6152268648147583,-0.5796031951904297,0.45758700370788574
1776444087324298800,5.543298828125,2.094503402709961,-0.49068981409072876,0.43533867597579956
1776444087349315600,5.568315673828125,2.3577988147735596,-0.367387056350708,0.372058242559433
1776444087374334000,5.593333984375,2.3873379230499268,-0.3065364956855774,0.25946539640426636
1776444087399351800,5.618351806640625,2.3180465698242188,-0.24167680740356445,0.1291760951280594
1776444087424369000,5.643368896484375,2.2506394386291504,-0.052373990416526794,0.040228910744190216
1776444087449386800,5.66838671875,2.164116382598877,0.231472909450531,-0.003953462466597557
1776444087474404900,5.69340478515625,1.9970754384994507,0.41737672686576843,0.006188121158629656
1776444087499422000,5.718421875,1.9587703943252563,0.522868812084198,-0.032226111739873886
1776444087524439800,5.743439697265625,1.983964443206787,0.5976490378379822,-0.06240718439221382
1776444087549457700,5.768457763671875,1.895815372467041,0.6567584276199341,-0.0023997745011001825
1776444087574474800,5.793474853515625,1.7477940320968628,0.6648714542388916,-0.011551993899047375
1776444087599492900,5.818492919921875,1.4186171293258667,0.5215044617652893,0.017196564003825188
1776444087624510700,5.8435107421875,1.111579179763794,0.38062402606010437,0.0010514160385355353
1776444087649527800,5.86852783203125,1.0722925662994385,0.24509070813655853,0.04909750446677208
1776444087674545700,5.893545654296875,1.1230018138885498,0.10820317268371582,0.11756018549203873
1776444087699563800,5.918563720703125,1.0681289434432983,-0.0038477350026369095,0.1798858791589737
1776444087724580900,5.943580810546875,1.16118323802948,-0.09091286361217499,0.19851309061050415
1776444087749598700,5.9685986328125,1.2021416425704956,-0.10202676802873611,0.18158550560474396
1776444087774616800,5.993616943359375,1.1130056381225586,-0.157204270362854,0.12955479323863983
1776444087799633700,6.018633544921875,1.0675380229949951,-0.14664749801158905,0.09635130316019058
1776444087824651800,6.04365185546875,1.0875025987625122,-0.1318110227584839,0.05783933028578758
1776444087849669600,6.068669677734375,1.1644498109817505,-0.16701136529445648,0.01581438258290291
1776444087874686700,6.093686767578125,1.3450331687927246,-0.2229611724615097,0.03226393088698387
1776444087899704600,6.11870458984375,1.6110539436340332,-0.29323187470436096,0.035640817135572433
1776444087924722700,6.14372265625,1.8107229471206665,-0.45365163683891296,0.06259999424219131
1776444087949740000,6.168739990234375,1.7934157848358154,-0.5740435719490051,0.06547647714614868
1776444087974758000,6.1937578125,1.7894402742385864,-0.6263265013694763,-0.028419656679034233
1776444087999776000,6.21877587890625,1.6829702854156494,-0.7018092274665833,-0.09391158074140549
1776444088024792800,6.243792724609375,1.173883080482483,-0.5981297492980957,-0.10890784114599228
1776444088049811000,6.26881103515625,0.7241950035095215,-0.44867339730262756,-0.09724745899438858
1776444088074829000,6.2938291015625,0.5514906048774719,-0.2422690987586975,-0.08982282876968384
1776444088099846000,6.318845947265625,0.3612825572490692,-0.018388861790299416,-0.002606702037155628
1776444088124864000,6.343864013671875,0.4445148706436157,0.24023737013339996,0.07682846486568451
1776444088149882000,6.368882080078125,0.7439332604408264,0.3735421597957611,0.07855739444494247
1776444088174899200,6.393899169921875,0.9816789627075195,0.3837258219718933,0.12720002233982086
1776444088199917000,6.4189169921875,0.8580606579780579,0.5295141935348511,0.19841641187667847
1776444088224935200,6.44393505859375,0.6570960879325867,0.6119201183319092,0.24966415762901306
1776444088249952000,6.468951904296875,0.5084847807884216,0.5388917326927185,0.29964691400527954
1776444088274970000,6.49397021484375,0.3397069573402405,0.5203542709350586,0.31956973671913147
1776444088299988000,6.518988037109375,0.33214837312698364,0.4166502058506012,0.33809947967529297
1776444088325005000,6.544005126953125,0.45875558257102966,0.38527950644493103,0.12217437475919724
1776444088350023000,6.56902294921875,0.6339218020439148,0.3925941586494446,-0.10320388525724411
1776444088375040000,6.5940400390625,0.6330506801605225,0.4529264569282532,-0.12451529502868652
1776444088400058000,6.61905810546875,0.530194103717804,0.5132595896720886,-0.05572132021188736
1776444088425076000,6.644075927734375,0.5769570469856262,0.5811800360679626,-0.009404687210917473
1776444088450093000,6.669093017578125,0.7847645878791809,0.5617144703865051,0.062491074204444885
1776444088475111000,6.69411083984375,1.0994809865951538,0.4892735481262207,0.036544959992170334
1776444088500129000,6.71912890625,1.2949758768081665,0.3508879840373993,-0.021950040012598038
1776444088525146000,6.74414599609375,1.2832587957382202,0.2921178638935089,-0.11491699516773224
1776444088550164000,6.7691640625,1.3843721151351929,0.16666488349437714,-0.18785777688026428
1776444088575182000,6.79418212890625,1.720663070678711,0.07018974423408508,-0.3442508578300476
1776444088600199000,6.819198974609375,1.8589484691619873,0.05410477891564369,-0.43888363242149353
1776444088625217000,6.844217041015625,1.7448773384094238,0.020870661363005638,-0.3660600185394287
1776444088650235000,6.86923486328125,1.7100971937179565,-0.033853571861982346,-0.3322032392024994
1776444088675252000,6.894251953125,1.6432747840881348,0.02953924983739853,-0.3862238824367523
1776444088700269800,6.919269775390625,1.4322363138198853,0.18696002662181854,-0.3473433256149292
1776444088725288000,6.944287841796875,1.3517547845840454,0.3126705586910248,-0.2756110727787018
1776444088750305000,6.969304931640625,1.6020612716674805,0.22662515938282013,-0.32624921202659607
1776444088775323000,6.994322998046875,1.664482831954956,0.21818719804286957,-0.3016200363636017
1776444088800341000,7.019341064453125,1.5608371496200562,0.16500680148601532,-0.14935486018657684
1776444088825357800,7.04435791015625,1.6023060083389282,0.12617310881614685,-0.16413195431232452
1776444088850376000,7.0693759765625,1.6929606199264526,0.0768314003944397,-0.22150762379169464
1776444088875394000,7.09439404296875,1.4835357666015625,0.0021054951939731836,-0.1429470330476761
1776444088900411000,7.119410888671875,1.149160385131836,0.016511864960193634,-0.15690599381923676
1776444088925429000,7.144428955078125,0.7984210252761841,-0.1435028314590454,-0.18749399483203888
1776444088950445300,7.1694453125,0.7352436184883118,-0.1347985565662384,-0.1778903752565384
1776444088975463400,7.19446337890625,0.6602452993392944,-0.33933278918266296,-0.23275788128376007
1776444089000481500,7.2194814453125,0.7167975306510925,-0.39339789748191833,-0.316874623298645
1776444089025498400,7.244498291015625,0.683807373046875,-0.3140988051891327,-0.3283158242702484
1776444089050516500,7.2695166015625,0.7102261781692505,-0.15641064941883087,-0.3163025677204132
1776444089075534600,7.29453466796875,0.7385352849960327,-0.11541261523962021,-0.11967314034700394
1776444089100551700,7.3195517578125,0.73649001121521,0.0245538130402565,-0.027178891003131866
1776444089125569500,7.344569580078125,0.7523491382598877,0.12809565663337708,0.08850323408842087
1776444089150587600,7.369587646484375,0.7496777176856995,0.34189262986183167,0.1446213573217392
1776444089175604500,7.3946044921875,0.6366561055183411,0.41648855805397034,-0.0255128163844347
1776444089200622600,7.41962255859375,0.8193308115005493,0.3701239824295044,-0.36622992157936096
1776444089225640400,7.444640380859375,1.0265223979949951,0.2068312019109726,-0.6663181185722351
1776444089250657500,7.469657470703125,1.032449722290039,0.1710343360900879,-0.7558413147926331
1776444089275675600,7.494675537109375,1.0769490003585815,0.376057505607605,-0.6472663879394531
1776444089300693500,7.519693603515625,1.041770339012146,0.4834873080253601,-0.4910474717617035
1776444089325710600,7.544710693359375,0.9634658694267273,0.4259728789329529,-0.42173418402671814
1776444089350728400,7.569728515625,0.9409281015396118,0.34665223956108093,-0.3747808039188385
1776444089375745500,7.59474560546875,1.077518105506897,0.33565789461135864,-0.23409612476825714
1776444089400763400,7.619763427734375,1.1956205368041992,0.24254819750785828,-0.06556835770606995
1776444089425781500,7.644781494140625,1.2289090156555176,0.050101250410079956,0.036616865545511246
1776444089450798600,7.669798583984375,1.3386904001235962,-0.1560457944869995,0.09945201873779297
1776444089475816400,7.69481640625,1.4084616899490356,-0.3138599097728729,0.17141276597976685
1776444089500834600,7.71983447265625,1.4228936433792114,-0.44477584958076477,0.21263077855110168
1776444089525851400,7.744851318359375,1.3654793500900269,-0.614483654499054,0.2312723696231842
1776444089550869500,7.769869384765625,1.1794439554214478,-0.7080351710319519,0.21027547121047974
1776444089575887400,7.794887451171875,1.0293437242507935,-0.6751672625541687,0.2029981166124344
1776444089600904400,7.819904541015625,0.9087677597999573,-0.6104950308799744,0.24804522097110748
1776444089625922600,7.844922607421875,0.8117602467536926,-0.5163128972053528,0.31812551617622375
1776444089650940400,7.8699404296875,0.6530747413635254,-0.4518979489803314,0.29776591062545776
1776444089675957500,7.89495751953125,0.49930915236473083,-0.4216060936450958,0.2613556981086731
1776444089700975400,7.919975341796875,0.40945249795913696,-0.36920467019081116,0.19458971917629242
1776444089725992400,7.944992431640625,0.253477543592453,-0.3034498989582062,0.15471979975700378
1776444089751010300,7.97001025390625,0.15627269446849823,-0.17819929122924805,0.1673402637243271
1776444089776028400,7.9950283203125,0.345382422208786,0.17011234164237976,0.11820679903030396
1776444089801045500,8.02004541015625,0.4290890395641327,0.266812264919281,0.019229354336857796
1776444089826063400,8.0450634765625,0.40118125081062317,0.23919260501861572,-0.1284831464290619
1776444089851081700,8.070081787109375,0.4765223264694214,0.2703108489513397,-0.08662783354520798
1776444089876098300,8.095098388671875,0.5473285913467407,0.5112051963806152,0.004391286056488752
1776444089901116700,8.12011669921875,0.6889483332633972,0.8199872970581055,0.018216820433735847
1776444089926134500,8.145134521484374,0.6731752157211304,0.7030753493309021,-0.27837011218070984
1776444089951151600,8.170151611328125,0.9007518887519836,0.46007493138313293,-0.46733418107032776
1776444089976170800,8.195170654296875,1.0350468158721924,0.307309091091156,-0.49169889092445374
1776444090001187800,8.220187744140626,1.0302585363388062,0.09861232340335846,-0.2611386477947235
1776444090026205700,8.245205810546874,1.4372364282608032,-0.3384065330028534,-0.13413169980049133
1776444090051223800,8.270223876953125,1.3572299480438232,-0.3157142698764801,-0.02984178438782692
1776444090076241000,8.295240966796875,1.3592451810836792,-0.32994648814201355,0.061953116208314896
1776444090101258800,8.3202587890625,1.425020694732666,-0.30311885476112366,0.11622274667024612
1776444090126276600,8.345276611328124,1.2661712169647217,-0.24960504472255707,0.14284370839595795
1776444090151293700,8.370293701171875,1.144605040550232,-0.20946428179740906,0.11176088452339172
1776444090176311800,8.395311767578125,1.2523661851882935,-0.14715322852134705,0.06960837543010712
1776444090201329700,8.42032958984375,1.3361332416534424,-0.12852388620376587,0.012429239228367805
1776444090226346800,8.4453466796875,1.4531219005584717,-0.07291974872350693,-0.12519866228103638
1776444090251364600,8.470364501953124,1.5459256172180176,0.011990083381533623,-0.21589767932891846
1776444090276381700,8.495381591796875,1.6294527053833008,0.1393752098083496,-0.2571716010570526
1776444090301399800,8.52039990234375,1.8919399976730347,0.23390942811965942,-0.3093743622303009
1776444090326417700,8.545417724609376,2.1948037147521973,0.39286312460899353,-0.3138796389102936
1776444090351434800,8.570434814453124,2.177358388900757,0.5502937436103821,-0.30455484986305237
1776444090376452600,8.59545263671875,2.120718240737915,0.530951201915741,-0.27643319964408875
1776444090401470700,8.620470703125,2.1672463417053223,0.3248121738433838,-0.12735076248645782
1776444090426487800,8.64548779296875,2.024604320526123,0.0006745787104591727,-0.11050494015216827
1776444090451505700,8.670505615234376,2.040005683898926,-0.21104726195335388,-0.02100514993071556
1776444090476522800,8.695522705078124,2.31291127204895,-0.4271915555000305,0.1752554327249527
1776444090501540600,8.72054052734375,2.396969795227051,-0.7295540571212769,0.148405984044075
1776444090526558700,8.745558837890625,2.2991461753845215,-0.8203015327453613,0.049860499799251556
1776444090551575600,8.770575439453125,2.1971635818481445,-0.7960183024406433,-0.012645754031836987
1776444090576593700,8.79559375,1.992047905921936,-0.7543702125549316,-0.031511854380369186
1776444090601611800,8.82061181640625,1.9015483856201172,-0.729913592338562,-0.037040043622255325
1776444090626628600,8.845628662109375,1.8203421831130981,-0.5393758416175842,0.03067668527364731
1776444090651647000,8.87064697265625,1.9184123277664185,-0.11658892780542374,-0.041305895894765854
1776444090676664800,8.895664794921874,1.4455289840698242,0.14030757546424866,-0.07631687819957733
1776444090701682000,8.920681884765624,1.170810341835022,0.34360235929489136,-0.03953436017036438
1776444090726699800,8.94569970703125,0.8459696173667908,0.5015115737915039,-0.07848149538040161
1776444090751716900,8.970716796875,0.5155751705169678,0.6327247023582458,-0.10643163323402405
1776444090776734700,8.995734619140626,0.299803227186203,0.5669422745704651,-0.1304408311843872
1776444090801752800,9.0207529296875,0.3520802855491638,0.3779853880405426,-0.16315776109695435
1776444090826770000,9.04577001953125,0.4366990327835083,0.20262554287910461,-0.2518905699253082
1776444090851787800,9.070787841796875,0.5724983811378479,0.1203482523560524,-0.3014810085296631
1776444090876804900,9.095804931640625,1.0672303438186646,0.09666049480438232,-0.31802910566329956
1776444090901822700,9.12082275390625,1.113893747329712,0.10659302026033401,-0.2936936616897583
1776444090926840800,9.1458408203125,1.190828800201416,0.16204535961151123,-0.19808459281921387
1776444090951858000,9.17085791015625,1.1932684183120728,0.23607005178928375,-0.0869748443365097
1776444090976874500,9.19587451171875,1.1433336734771729,0.3000005781650543,0.03843154385685921
1776444091001892600,9.220892578125,1.15049409866333,0.38727954030036926,0.13365313410758972
1776444091026909700,9.24590966796875,0.9105994701385498,0.46750408411026,0.27059608697891235
1776444091051927600,9.270927490234374,0.7932390570640564,0.59625643491745,0.37003079056739807
1776444091076944600,9.295944580078125,0.8001899123191833,0.6636000871658325,0.49308428168296814
1776444091101962500,9.32096240234375,1.0612521171569824,0.49642229080200195,0.5973156094551086
1776444091126980600,9.345980712890626,0.9727084040641785,0.05433674156665802,0.7355424761772156
1776444091151997400,9.37099755859375,0.9115803241729736,-0.2686817944049835,0.8258014917373657
1776444091177015600,9.396015625,0.9214742183685303,-0.43212583661079407,0.6836845874786377
1776444091202032600,9.42103271484375,0.7951706051826477,-0.5750430822372437,0.4613550901412964
1776444091227050500,9.446050537109375,0.7186393737792969,-0.5947089195251465,0.21822048723697662
1776444091252068600,9.471068603515626,0.8581802248954773,-0.496124267578125,0.09972552955150604
1776444091277085400,9.49608544921875,0.8936018347740173,-0.32795602083206177,0.025307487696409225
1776444091302103600,9.521103515625,0.9552777409553528,-0.096779003739357,-0.0173286572098732
1776444091327121700,9.54612158203125,1.0625927448272705,0.039263516664505005,-0.0554928183555603
1776444091352138500,9.571138427734375,1.4501514434814453,0.23825997114181519,-0.05453301593661308
1776444091377156600,9.596156494140626,1.5391966104507446,0.37525883316993713,-0.07723220437765121
1776444091402173400,9.62117333984375,1.3239202499389648,0.23205266892910004,-0.08756526559591293
1776444091427191800,9.64619189453125,1.3092528581619263,0.15081533789634705,-0.05222805216908455
1776444091452209700,9.671209716796875,1.3385676145553589,0.23609641194343567,-0.027064906433224678
1776444091477226800,9.696226806640626,1.225345492362976,0.13486354053020477,-0.07577066123485565
1776444091502244600,9.72124462890625,1.3004220724105835,0.11917033046483994,-0.10628409683704376
1776444091527261700,9.74626171875,1.4740386009216309,0.18164782226085663,-0.1066148579120636
1776444091552279800,9.77127978515625,1.3596347570419312,0.20381145179271698,-0.08756820112466812
1776444091577297700,9.796297607421875,1.20273756980896,0.22380459308624268,-0.054540473967790604
1776444091602314800,9.821314697265626,1.151382327079773,0.145065039396286,-0.003978230059146881
1776444091627332600,9.84633251953125,1.1640011072158813,0.18830040097236633,0.02370213344693184
1776444091652349700,9.871349609375,1.0915980339050293,0.14740969240665436,-0.012489426881074905
1776444091677367800,9.896367919921875,1.1003472805023193,0.029558690264821053,-0.0671960785984993
1776444091702385700,9.9213857421875,1.0842804908752441,-0.0338226780295372,-0.06083831563591957
1776444091727402800,9.94640283203125,0.46480682492256165,-0.003983023576438427,-0.061527810990810394
1776444091752420600,9.971420654296875,0.5655901432037354,0.19246292114257812,-0.18359538912773132
1776444091777437700,9.996437744140625,0.8477715253829956,-0.0883311927318573,-0.11745312809944153
1776444091802455600,10.02145556640625,0.898327112197876,-0.2981318235397339,-0.11665550619363785
1776444091827473700,10.0464736328125,0.8838924765586853,-0.3469955027103424,-0.0742768943309784
1776444091852490800,10.07149072265625,0.6504025459289551,-0.26467612385749817,0.09286389499902725
1776444091877508600,10.096508544921875,0.5202295780181885,-0.12400396913290024,0.1274208128452301
1776444091902525700,10.121525634765625,0.5385217666625977,0.1345711201429367,0.15079191327095032
1776444091927543600,10.14654345703125,0.736707329750061,0.09197013825178146,0.13311970233917236
1776444091952561700,10.171561767578124,0.9343529939651489,0.08181922882795334,0.05169035866856575
1776444091977578800,10.196578857421875,1.268567442893982,0.14699290692806244,-0.0012434299569576979
1776444092002596900,10.221596923828125,1.4135582447052002,0.1394721418619156,-0.09083402901887894
1776444092027614000,10.246614013671875,1.5477287769317627,0.20547299087047577,-0.15773557126522064
1776444092052631800,10.2716318359375,1.773125171661377,0.18108083307743073,-0.18101586401462555
1776444092077650000,10.29664990234375,1.9451919794082642,0.08143973350524902,-0.16593331098556519
1776444092102666800,10.321666748046875,2.030447483062744,-0.00965475756675005,-0.17523519694805145
1776444092127684900,10.346684814453125,2.003786325454712,0.004283161833882332,-0.1764298975467682
1776444092152702000,10.371701904296875,1.8153035640716553,-0.03061756305396557,-0.16049672663211823
1776444092177719800,10.3967197265625,1.5792206525802612,0.05083948001265526,-0.1291920691728592
1776444092202738000,10.421738037109375,1.4823311567306519,0.00899882148951292,-0.13795866072177887
1776444092227754800,10.446754638671875,1.5142887830734253,-0.087699756026268,-0.13826386630535126
1776444092252772900,10.47177294921875,1.4246132373809814,-0.013435647822916508,-0.10264941304922104
1776444092277790000,10.4967900390625,1.2576115131378174,0.19172443449497223,-0.03333159163594246
1776444092302807800,10.521807861328124,1.2087198495864868,0.18687641620635986,0.0337478443980217
1776444092327825000,10.546824951171875,1.0805845260620117,0.062187206000089645,0.06584905087947845
1776444092352842800,10.5718427734375,0.8493251800537109,0.13195855915546417,0.04332643374800682
1776444092377860900,10.59686083984375,0.8461208939552307,0.11931094527244568,-0.0396086610853672
1776444092402877700,10.621877685546876,0.8263394832611084,0.03653271123766899,-0.04477492719888687
1776444092427895800,10.646895751953124,0.7135170698165894,0.06738729774951935,0.0013350426452234387
1776444092452913000,10.671912841796875,0.6273406147956848,0.07208564132452011,0.02327975630760193
1776444092477930800,10.6969306640625,0.45251739025115967,0.14925792813301086,0.06078798323869705
1776444092502948900,10.721948974609376,0.4529304504394531,0.1978214681148529,0.07283984869718552
1776444092527965700,10.746965576171876,0.6262266039848328,0.15313522517681122,0.1083134263753891
1776444092552983800,10.77198388671875,0.94144207239151,0.255418986082077,0.15904371440410614
1776444092578001000,10.7970009765625,1.0224602222442627,0.3040786683559418,0.17733776569366455
1776444092603018800,10.822018798828125,0.7389853596687317,0.2875756025314331,0.21662817895412445
1776444092628035800,10.847035888671876,0.361968070268631,0.1413387507200241,0.20588871836662292
1776444092653053700,10.8720537109375,0.37747830152511597,-0.1276993751525879,0.16118702292442322
1776444092678072000,10.897072021484375,0.30985772609710693,-0.29247820377349854,0.11605043709278107
1776444092703088600,10.922088623046875,0.06412545591592789,-0.11460727453231812,0.13764627277851105
1776444092728107000,10.94710693359375,0.4334893822669983,-0.18428488075733185,0.10180305689573288
1776444092753123800,10.972123779296876,0.8258243799209595,-0.03911038488149643,0.06620299071073532
1776444092778142000,10.997141845703124,1.4896396398544312,0.22408609092235565,-0.01865544356405735
1776444092803158800,11.02215869140625,1.874900221824646,0.34533849358558655,-0.16897384822368622
1776444092828177000,11.047177001953125,2.1398305892944336,0.4497050940990448,-0.2620353400707245
1776444092853195000,11.072195068359376,2.157789945602417,0.6222989559173584,-0.2900856137275696
1776444092878212000,11.097212158203124,2.206977367401123,0.6763941645622253,-0.3855394423007965
1776444092903230000,11.12222998046875,2.203312873840332,0.7150611281394958,-0.5119261145591736
1776444092928247000,11.1472470703125,2.1136672496795654,0.7610243558883667,-0.4904536008834839
1776444092953265000,11.172264892578125,2.095839023590088,0.787522554397583,-0.43340229988098145
1776444092978282000,11.197281982421876,1.9675785303115845,0.6744173169136047,-0.44319209456443787
1776444093003299800,11.2222998046875,1.781795620918274,0.528557300567627,-0.4138163626194
1776444093028318000,11.24731787109375,1.413486361503601,0.4712839126586914,-0.36439234018325806
1776444093053335000,11.2723349609375,1.3063154220581055,0.4221224784851074,-0.33998632431030273
1776444093078353000,11.297352783203126,1.1002814769744873,0.2770867347717285,-0.2487024962902069
1776444093103370000,11.322369873046876,0.7863382697105408,0.1507149487733841,-0.12912443280220032
1776444093128387800,11.347387939453125,0.5134763717651367,0.16158835589885712,-0.061296913772821426
1776444093153405000,11.372405029296875,0.512414276599884,0.17892341315746307,-0.03683418035507202
1776444093178423000,11.397423095703125,0.6951913237571716,-0.0006442186422646046,-0.012104067020118237
1776444093203439900,11.42243994140625,0.8652639389038086,-0.295654833316803,0.1308019608259201
1776444093228458000,11.4474580078125,0.9705885052680969,-0.3978099524974823,0.1095038577914238
1776444093253476000,11.47247607421875,1.2542847394943237,-0.6234403848648071,0.07322920858860016
1776444093278493000,11.497492919921875,1.525278925895691,-0.8582651615142822,0.08932002633810043
1776444093303511000,11.522510986328125,1.607021689414978,-0.8980144262313843,0.13406139612197876
1776444093328528000,11.54752783203125,1.5240898132324219,-0.8612095713615417,0.15576083958148956
1776444093353546200,11.572546142578124,1.4495176076889038,-0.8153792023658752,0.15160684287548065
1776444093378562800,11.597562744140625,1.38856041431427,-0.6291760802268982,0.059971459209918976
1776444093403581200,11.622581298828125,1.2942951917648315,-0.5317837595939636,0.004339088220149279
1776444093428598000,11.647597900390625,1.0613725185394287,-0.40204039216041565,-0.019270367920398712
1776444093453616000,11.6726162109375,0.840945839881897,-0.21474133431911469,0.04308488592505455
1776444093478634200,11.69763427734375,0.6894588470458984,-0.06750580668449402,0.023193469271063805
1776444093503651000,11.722651123046875,0.6791183352470398,0.11491859704256058,0.01509959064424038
1776444093528669200,11.747669189453125,0.8483443856239319,0.39292091131210327,0.0070219566114246845
1776444093553686000,11.77268603515625,1.0654010772705078,0.46839916706085205,0.13011538982391357
1776444093578704100,11.7977041015625,1.1376302242279053,0.42784401774406433,0.23928795754909515
1776444093603721200,11.82272119140625,1.2195043563842773,0.4246671199798584,0.29979604482650757
1776444093628739000,11.847739013671875,1.0965046882629395,0.45713478326797485,0.44034674763679504
1776444093653756200,11.872756103515625,0.6748937368392944,0.43291494250297546,0.5476716160774231
1776444093678774000,11.89777392578125,0.34597498178482056,0.46339109539985657,0.5672681927680969
1776444093703792000,11.922792236328124,0.1957564502954483,0.5075013041496277,0.5652008056640625
1776444093728809200,11.947809326171875,0.06317710131406784,0.5273772478103638,0.4604480266571045
1776444093753827000,11.9728271484375,0.16754478216171265,0.48890310525894165,0.20398561656475067
1776444093778844200,11.99784423828125,0.4082556664943695,0.22050121426582336,0.029091838747262955
1776444093803862000,12.022862060546874,0.48171737790107727,0.10503187775611877,-0.06081834435462952
1776444093828879000,12.047879150390624,0.4789261221885681,0.07228964567184448,-0.05006236955523491
1776444093853897200,12.072897216796875,0.5575588941574097,0.0336407832801342,-0.06745600700378418
1776444093878914000,12.0979140625,0.6887784004211426,0.09561174362897873,-0.03021143190562725
1776444093903932200,12.12293212890625,0.8244190812110901,0.23450039327144623,0.054016098380088806
1776444093928949000,12.147948974609376,0.9772400259971619,0.45941951870918274,0.05610188469290733
1776444093953967000,12.172967041015625,1.389609694480896,0.5259758830070496,-0.03111131303012371
1776444093978985000,12.19798486328125,1.7791920900344849,0.5998008847236633,-0.07765617966651917
1776444094004002000,12.223001953125,1.8482558727264404,0.7274041175842285,-0.12412753701210022
1776444094029020200,12.248020263671876,2.0277926921844482,0.7079041600227356,-0.30727872252464294
1776444094054037000,12.273037109375,2.0909388065338135,0.7543286681175232,-0.3973018229007721
1776444094079055000,12.29805517578125,1.8854091167449951,0.6937960982322693,-0.23927517235279083
1776444094104072200,12.323072265625,1.8260924816131592,0.5210272073745728,-0.20628605782985687
1776444094129090000,12.348090087890625,1.8954702615737915,0.3696683347225189,-0.33342111110687256
1776444094154107100,12.373107177734376,1.7720774412155151,0.14083194732666016,-0.30746006965637207
1776444094179125000,12.398125,1.3550474643707275,0.011873437091708183,-0.2640196681022644
1776444094204142000,12.42314208984375,1.1341265439987183,-0.1676798164844513,-0.350465327501297
1776444094229160200,12.44816015625,1.0442057847976685,-0.2676719129085541,-0.4763662815093994
1776444094254177000,12.473177001953125,0.9444016814231873,-0.3289240896701813,-0.4802539646625519
1776444094279195100,12.498195068359376,0.848271369934082,-0.3142114579677582,-0.469449520111084
1776444094304213000,12.523212890625,0.8366208672523499,-0.22620943188667297,-0.49855494499206543
1776444094329230000,12.54822998046875,0.990676999092102,-0.22682622075080872,-0.5125192403793335
1776444094354248000,12.573248046875,1.1574931144714355,-0.23048406839370728,-0.5152902603149414
1776444094379265000,12.59826513671875,1.1127814054489136,-0.2261846661567688,-0.4273657202720642
1776444094404283100,12.623283203125,0.9958949685096741,-0.29123637080192566,-0.4816558361053467
1776444094429300000,12.648300048828125,0.4581017792224884,-0.08165864646434784,-0.2993305027484894
1776444094454318000,12.673318115234375,0.5224416255950928,-0.1036028265953064,-0.21543268859386444
1776444094479335200,12.698335205078125,0.6622458696365356,-0.051949482411146164,-0.1742546260356903
1776444094504353000,12.72335302734375,0.7282547354698181,0.002692455891519785,-0.2472609281539917
1776444094529370000,12.7483701171875,0.6838006973266602,0.140151247382164,-0.37090590596199036
1776444094554388000,12.773387939453125,0.6530763506889343,0.10225579887628555,-0.2864575982093811
1776444094579405000,12.798405029296875,0.8134793043136597,0.019176358357071877,-0.08668642491102219
1776444094604423200,12.823423095703125,0.9015082716941833,0.040347423404455185,0.06386873126029968
1776444094629440000,12.84843994140625,0.895254373550415,0.10441615432500839,0.09669378399848938
1776444094654458000,12.8734580078125,0.8962543606758118,0.18896566331386566,0.15758776664733887
1776444094679475000,12.898474853515625,0.8981156349182129,0.26817578077316284,0.026644926518201828
1776444094704493000,12.9234931640625,1.2008023262023926,-0.06808238476514816,-0.3435152769088745
1776444094729510100,12.94851025390625,1.3602838516235352,-0.2961570918560028,-0.5749234557151794
1776444094754528000,12.973528076171876,1.4048680067062378,-0.20636941492557526,-0.6265003681182861
1776444094779546000,12.998546142578125,1.3834704160690308,0.04638161137700081,-0.5565301179885864
1776444094804563000,13.02356298828125,1.233341097831726,0.1586514264345169,-0.5097101330757141
1776444094829581000,13.0485810546875,1.0770292282104492,0.23109260201454163,-0.5235636234283447
1776444094854598100,13.07359814453125,1.0176053047180176,0.3640698194503784,-0.5377973914146423
1776444094879616000,13.098615966796874,0.9392651915550232,0.5211207270622253,-0.44043225049972534
1776444094904633000,13.123633056640625,0.958777129650116,0.4203245937824249,-0.3331177830696106
1776444094929651000,13.14865087890625,0.9827376008033752,0.25623685121536255,-0.16263924539089203
1776444094954668000,13.17366796875,1.1605092287063599,0.03930186480283737,-0.10005629062652588
1776444094979686000,13.198685791015626,1.3475509881973267,-0.12689056992530823,-0.034993138164281845
1776444095004702700,13.22370263671875,1.3508175611495972,-0.30018725991249084,0.048771534115076065
1776444095029720800,13.248720947265625,1.2119851112365723,-0.37712571024894714,0.15325027704238892
1776444095054738000,13.273738037109375,1.1390246152877808,-0.3566443920135498,0.23847143352031708
1776444095079755800,13.298755859375,1.078324556350708,-0.37168994545936584,0.23605194687843323
1776444095104772900,13.32377294921875,0.9617859721183777,-0.4371746778488159,0.1929292380809784
1776444095129790700,13.348790771484374,0.8649462461471558,-0.40308859944343567,0.18250909447669983
1776444095154807800,13.373807861328125,0.763687789440155,-0.30622944235801697,0.20496273040771484
1776444095179825700,13.39882568359375,0.6444370150566101,-0.28040075302124023,0.1976073533296585
1776444095204842800,13.4238427734375,0.7217510342597961,-0.07488249987363815,0.14017654955387115
1776444095229860900,13.44886083984375,0.7973605394363403,-0.0583016574382782,0.03556971251964569
1776444095254877700,13.473877685546874,0.7562285661697388,-0.12966078519821167,-0.08348903059959412
1776444095279895800,13.498895751953125,0.6844126582145691,-0.1862068921327591,-0.11585922539234161
1776444095304913000,13.523912841796875,0.7022494673728943,-0.2090296447277069,-0.03966006264090538
1776444095329930800,13.5489306640625,0.6724510788917542,-0.28477713465690613,-0.0009890979854390025
1776444095354947800,13.57394775390625,0.6252175569534302,0.17314808070659637,0.014517956413328648
1776444095379965700,13.598965576171874,0.7083526253700256,0.321061372756958,-0.004086354281753302
1776444095404982800,13.623982666015625,0.7798126935958862,-0.007896538823843002,-0.07579728960990906
1776444095430001000,13.6490009765625,0.676410973072052,0.3484274744987488,0.12831856310367584
1776444095455018800,13.674018798828126,0.46983274817466736,0.35635411739349365,0.14039306342601776
1776444095480035800,13.699035888671874,0.4061616361141205,0.1828278750181198,0.18365877866744995
1776444095505053000,13.724052978515624,0.3014674484729767,0.04986263066530228,0.24608460068702698
1776444095530070800,13.74907080078125,0.6657481789588928,-0.3710821866989136,0.18956486880779266
1776444095555088600,13.774088623046875,0.6978041529655457,-0.46265819668769836,0.1902322620153427
1776444095580105700,13.799105712890626,0.6929696798324585,-0.4603409767150879,0.16535113751888275
1776444095605123800,13.824123779296874,0.8297818899154663,-0.28400614857673645,0.10638689249753952
1776444095630140700,13.849140625,0.9827394485473633,-0.16084374487400055,0.026747990399599075
1776444095655158800,13.87415869140625,1.177330732345581,-0.12002227455377579,-0.08156436681747437
1776444095680175900,13.89917578125,1.380038857460022,-0.0416899211704731,-0.18240895867347717
1776444095705193700,13.92419384765625,1.5744541883468628,0.0017033577896654606,-0.19836555421352386
1776444095730210800,13.9492109375,1.6976146697998047,-0.02533678151667118,-0.16136598587036133
1776444095755228700,13.974228759765625,1.6142066717147827,0.0014436995843425393,-0.14197205007076263
1776444095780245800,13.999245849609375,1.428000807762146,0.17737078666687012,-0.09349612891674042
1776444095805264000,14.024263916015625,1.4351983070373535,0.10504546016454697,-0.1558665633201599
1776444095830280700,14.04928076171875,1.465720534324646,0.0539119690656662,-0.2871233820915222
1776444095855298800,14.074298828125,1.5210460424423218,0.1358901858329773,-0.309407114982605
1776444095880316000,14.09931591796875,1.4540241956710815,-0.014485199004411697,-0.3564856946468353
1776444095905333800,14.124333740234375,1.4452983140945435,-0.044316597282886505,-0.3252670466899872
1776444095930350800,14.149350830078125,1.243813395500183,-0.04536455124616623,-0.2210884392261505
1776444095955368700,14.17436865234375,1.15058171749115,-0.09624770283699036,-0.1311662793159485
1776444095980385500,14.199385498046874,1.0168873071670532,-0.05392128974199295,-0.07275836169719696
1776444096005403400,14.2244033203125,1.0004329681396484,-0.08105490356683731,-0.02791179157793522
1776444096030420500,14.24942041015625,1.076830506324768,-0.04285585507750511,0.07283292710781097
1776444096055438600,14.2744384765625,1.2779912948608398,0.029880400747060776,0.09651189297437668
1776444096080455400,14.299455322265626,1.349100112915039,0.07181373983621597,0.06924644857645035
1776444096105473500,14.3244736328125,1.4255834817886353,0.09738274663686752,-0.019458120688796043
1776444096130490600,14.34949072265625,1.3694746494293213,0.12358159571886063,0.004848284646868706
1776444096155508500,14.374508544921875,1.3011208772659302,-0.049609363079071045,0.13161662220954895
1776444096180525600,14.399525634765626,1.271189570426941,-0.19402272999286652,0.22070974111557007
1776444096205543400,14.42454345703125,0.9128456115722656,-0.3137049376964569,0.2532373368740082
1776444096230560500,14.449560546875,0.7226461172103882,-0.3893616199493408,0.12194427847862244
1776444096255578600,14.47457861328125,0.6876377463340759,-0.3772474229335785,0.11300963908433914
1776444096280595500,14.499595458984375,0.6159774661064148,-0.2657935917377472,0.15175464749336243
1776444096305613600,14.524613525390626,0.5693926215171814,-0.18061797320842743,0.04079296812415123
1776444096330630700,14.549630615234374,0.6163143515586853,-0.07199615985155106,-0.09079887717962265
1776444096355648500,14.5746484375,0.8052791953086853,0.04586389288306236,-0.057972755283117294
1776444096380665600,14.59966552734375,0.9278120398521423,-0.021084245294332504,-0.15811799466609955
1776444096405683500,14.624683349609375,1.2718850374221802,-0.07848469167947769,-0.11468050628900528
1776444096430700500,14.649700439453126,1.5161501169204712,-0.05263924226164818,-0.03858707472681999
1776444096455718400,14.674718505859374,1.6680728197097778,-0.03939933702349663,-0.02852937951683998
1776444096480735500,14.699735595703125,1.8737550973892212,-0.13125629723072052,-0.10673762857913971
1776444096505753600,14.724753662109375,1.9414185285568237,0.02310718409717083,-0.0005052016349509358
1776444096530770400,14.7497705078125,1.8682303428649902,-0.19364163279533386,0.2032223641872406
1776444096555788500,14.77478857421875,1.4703575372695923,-0.36090201139450073,0.3379226624965668
1776444096580805600,14.7998056640625,1.2217648029327393,-0.3835681676864624,0.4277276396751404
1776444096605823500,14.824823486328125,1.2016960382461548,-0.38230982422828674,0.4432216286659241
1776444096630840600,14.849840576171875,1.2225667238235474,-0.4220084846019745,0.3344336450099945
1776444096655858400,14.8748583984375,0.7833080887794495,-0.24306537210941315,0.38869449496269226
1776444096680875500,14.89987548828125,0.31250250339508057,0.06690526753664017,0.35083603858947754
1776444096705893600,14.9248935546875,0.16993364691734314,0.4902344346046448,0.2692756652832031
1776444096730910500,14.949910400390625,0.14180800318717957,0.93560791015625,0.2675504684448242
1776444096755928600,14.974928466796875,0.06316458433866501,1.1869887113571167,0.32463666796684265
1776444096780945700,14.999945556640625,-0.014845791272819042,1.2494909763336182,0.33567067980766296
1776444096805963500,15.024963623046874,0.2295764684677124,1.0058804750442505,0.2323453575372696
1776444096830980600,15.049980712890624,0.5151326060295105,0.7765418291091919,0.1508409082889557
1776444096855998500,15.07499853515625,1.1724270582199097,0.2706807553768158,0.2012803852558136
1776444096881015600,15.100015625,1.1391452550888062,0.11591914296150208,0.4036151170730591
1776444096906032600,15.12503271484375,1.008392572402954,-0.04446680098772049,0.3463060259819031
1776444096931050500,15.150050537109376,1.0396602153778076,-0.031795479357242584,0.28701499104499817
1776444096956067600,15.175067626953124,1.0150718688964844,0.2508111894130707,0.3076651394367218
1776444096981086200,15.200086181640625,0.9437528848648071,0.15767112374305725,0.19768644869327545
1776444097006103300,15.225103271484375,0.9965042471885681,0.19299688935279846,0.1619657278060913
1776444097031121200,15.25012109375,1.1247016191482544,0.2007000744342804,0.018061824142932892
1776444097056138200,15.27513818359375,1.0990631580352783,0.07623032480478287,-0.05275482311844826
1776444097081156400,15.30015625,1.1677247285842896,-0.02129383757710457,-0.10204301029443741
1776444097106173200,15.325173095703125,1.334746241569519,0.037509556859731674,-0.14028680324554443
1776444097131191300,15.35019140625,1.616973638534546,0.057974085211753845,-0.09184124320745468
1776444097156208400,15.37520849609375,1.6676011085510254,-0.24362437427043915,-0.15847086906433105
1776444097181226200,15.400226318359374,1.775447964668274,-0.13185469806194305,-0.13657115399837494
1776444097206243300,15.425243408203125,1.8140596151351929,0.015449530445039272,-0.13437512516975403
1776444097231261200,15.45026123046875,1.5882176160812378,0.061643391847610474,-0.18387742340564728
1776444097256278300,15.4752783203125,1.330040454864502,0.03422721102833748,-0.22511513531208038
1776444097281296100,15.500296142578126,1.2619551420211792,0.02858264185488224,-0.2131383717060089
1776444097306313200,15.525313232421874,1.268187403678894,0.054055776447057724,-0.1988569051027298
1776444097331331300,15.550331298828125,1.3074387311935425,0.06268095970153809,-0.18160627782344818
1776444097356348200,15.57534814453125,1.3720054626464844,-0.007864846847951412,-0.11866886168718338
1776444097381366300,15.6003662109375,1.3468388319015503,-0.05657379701733589,-0.046901993453502655
1776444097406383400,15.62538330078125,0.9118181467056274,-0.049903109669685364,-0.039921049028635025
1776444097431401200,15.650401123046874,0.7494636178016663,0.15549026429653168,-0.08140990138053894
1776444097456418300,15.675418212890625,0.768321692943573,-0.0019707391038537025,-0.14181013405323029
1776444097481436200,15.700436279296875,0.7577508091926575,-0.03313717991113663,-0.07516878843307495
1776444097506453200,15.725453369140626,0.7854207754135132,0.1013370081782341,0.027696076780557632
1776444097531471400,15.750471435546874,0.7464102506637573,-0.08677350729703903,0.03735402971506119
1776444097556488200,15.77548828125,0.8486543297767639,-0.11940229684114456,-0.15650971233844757
1776444097581506300,15.80050634765625,1.016026258468628,-0.2859819531440735,-0.11333587765693665
1776444097606523400,15.8255234375,0.8967931270599365,-0.1181442141532898,-0.0627422109246254
1776444097631540200,15.850540283203125,0.941739022731781,0.11400672793388367,-0.05826596915721893
1776444097656558300,15.875558349609374,1.000018835067749,0.31645703315734863,0.0033489251509308815
1776444097681575400,15.900575439453124,1.2759345769882202,0.3073631525039673,0.09095440804958344
1776444097706593300,15.92559326171875,1.523273229598999,0.3058147728443146,0.15633927285671234
1776444097731610400,15.9506103515625,1.5755945444107056,0.3741256594657898,0.1066627949476242
1776444097756628200,15.975628173828126,1.607614517211914,0.30364111065864563,0.05390610918402672
1776444097781645300,16.000645263671874,1.5707931518554688,0.1863435059785843,0.10322225838899612
1776444097806663200,16.0256630859375,1.4687175750732422,0.02389680966734886,0.154441237449646
1776444097831680300,16.05068017578125,1.4645551443099976,-0.05615647882223129,0.10680314153432846
1776444097856698400,16.075698486328125,1.5091580152511597,-0.16484087705612183,0.09089688211679459
1776444097881715200,16.100715087890624,1.4657583236694336,-0.29248112440109253,0.1353578269481659
1776444097906733300,16.1257333984375,1.3276944160461426,-0.326852411031723,0.1464751958847046
1776444097931750400,16.15075048828125,1.2194265127182007,-0.4089222550392151,0.12035011500120163
1776444097956768300,16.175768310546875,1.3318867683410645,-0.31565383076667786,-0.16596899926662445
1776444097981785000,16.20078515625,1.523040533065796,-0.37337732315063477,-0.3655071258544922
1776444098006803000,16.225802978515624,1.5450783967971802,-0.26079297065734863,-0.42861154675483704
1776444098031820000,16.250820068359374,1.3493092060089111,-0.08592183142900467,-0.4299282133579254
1776444098056838100,16.275838134765625,1.2897835969924927,0.03273078054189682,-0.42245644330978394
1776444098081855000,16.30085498046875,1.194051742553711,0.3661060929298401,-0.414909303188324
1776444098106873000,16.325873046875,1.2579691410064697,0.3722856938838959,-0.3456402122974396
1776444098131890200,16.35089013671875,1.3036657571792603,0.5137874484062195,-0.32724231481552124
1776444098156907000,16.375906982421874,1.2563971281051636,0.5631434917449951,-0.3278612196445465
1776444098181925000,16.400925048828125,1.1865780353546143,0.4441840946674347,-0.2685052156448364
1776444098206942200,16.425942138671875,1.1047199964523315,0.3390488922595978,-0.24345526099205017
1776444098231960000,16.4509599609375,0.9686737060546875,0.27233004570007324,-0.18392136693000793
1776444098256977200,16.47597705078125,0.8005837798118591,0.13171115517616272,-0.0864267647266388
1776444098281995000,16.5009951171875,0.6171713471412659,0.07268432527780533,-0.03868214786052704
1776444098307012000,16.52601220703125,0.5220671892166138,0.06443864107131958,-0.011009774170815945
1776444098332030000,16.551030029296875,0.40105926990509033,0.037027258425951004,0.04041773080825806
1776444098357047000,16.576047119140625,0.2488148808479309,0.07922904193401337,0.09718514233827591
1776444098382065200,16.601065185546876,0.36552444100379944,0.09821897745132446,0.1023801639676094
1776444098407082000,16.62608203125,0.5797491073608398,0.1630813330411911,0.09525434672832489
1776444098432100000,16.65110009765625,0.5421894788742065,0.387784481048584,0.11699026823043823
1776444098457117200,16.6761171875,0.4936629831790924,0.5883146524429321,0.10408565402030945
1776444098482135000,16.701135009765625,0.7350934147834778,0.6065239906311035,0.06137574091553688
1776444098507152100,16.726152099609376,1.0224192142486572,0.581291913986206,-0.007715710438787937
1776444098532169200,16.751169189453126,1.245168924331665,0.5232512354850769,-0.0883285328745842
1776444098557187000,16.77618701171875,1.5661970376968384,0.526321291923523,-0.10935605317354202
1776444098582204200,16.8012041015625,1.8930350542068481,0.570022702217102,-0.13698901236057281
1776444098607222000,16.826221923828125,2.161557197570801,0.48604366183280945,-0.25563761591911316
1776444098632239000,16.851239013671876,2.2772185802459717,0.4381541907787323,-0.3488312363624573
1776444098657257000,16.876257080078126,2.251993179321289,0.3567346930503845,-0.3790602385997772
1776444098682274000,16.901274169921876,2.215919017791748,0.3284186124801636,-0.41574180126190186
1776444098707292200,16.926292236328123,2.1744754314422607,0.38893017172813416,-0.4091646075248718
1776444098732309000,16.95130908203125,2.107055187225342,0.40364786982536316,-0.34114399552345276
1776444098757327000,16.9763271484375,1.9028301239013672,0.2906067967414856,-0.249556303024292
1776444098782344200,17.00134423828125,1.7716140747070312,0.16001710295677185,-0.25267860293388367
1776444098807362000,17.026362060546877,1.9048168659210205,0.09199996292591095,-0.33254119753837585
1776444098832379100,17.051379150390623,2.093597888946533,0.05073587968945503,-0.36306342482566833
1776444098857396000,17.07639599609375,2.06430721282959,0.052086904644966125,-0.41854238510131836
1776444098882414000,17.1014140625,2.006819486618042,-0.183489128947258,-0.3501113951206207
1776444098907431000,17.126430908203126,2.018740177154541,-0.4446461796760559,-0.2332542985677719
1776444098932449000,17.151448974609377,1.8600174188613892,-0.5268614292144775,-0.0905834287405014
1776444098957465900,17.1764658203125,1.6211614608764648,-0.5243886709213257,-0.006899984087795019
1776444098982487300,17.2014873046875,1.4849131107330322,-0.6137017607688904,0.03647571802139282
1776444099007504100,17.226504150390625,1.3818484544754028,-0.7196553349494934,0.09421731531620026
1776444099032522200,17.251522216796875,1.2870337963104248,-0.7220050692558289,0.08145198225975037
1776444099057539300,17.276539306640625,1.3190903663635254,-0.5236102342605591,0.07181054353713989
1776444099082557200,17.30155712890625,1.3983856439590454,-0.26832813024520874,0.17092487215995789
1776444099107574300,17.32657421875,1.4700409173965454,-0.04253627359867096,0.2221774011850357
1776444099132592000,17.351592041015625,1.654849648475647,0.17821501195430756,0.15123586356639862
1776444099157609200,17.376609130859375,2.2088472843170166,0.19738337397575378,0.07356929033994675
1776444099182626300,17.401626220703125,2.1962103843688965,0.6803361773490906,-0.06648501753807068
1776444099207644200,17.42664404296875,2.1927921772003174,0.4787050783634186,-0.017426660284399986
1776444099232661200,17.4516611328125,2.004589557647705,0.29240095615386963,0.05949688330292702
1776444099257679000,17.47667919921875,1.8564389944076538,0.044680386781692505,0.03152330592274666
1776444099282696200,17.5016962890625,1.3815460205078125,-0.32697439193725586,0.062178418040275574
1776444099307714300,17.52671435546875,0.23647752404212952,-0.27557724714279175,0.05612478777766228
1776444099332731100,17.551731201171876,0.004534031730145216,-0.4110277593135834,-0.08763211220502853
1776444099357749200,17.576749267578126,0.03971518948674202,-0.5412757396697998,-0.18772782385349274
1776444099382766300,17.601766357421877,0.07245049625635147,-0.6038680672645569,-0.19319503009319305
1776444099407784200,17.6267841796875,-0.17608395218849182,-0.530033528804779,-0.25355157256126404
1776444099432801300,17.65180126953125,-0.3517383337020874,-0.3577677309513092,-0.38148823380470276
1776444099457818400,17.676818359375,-0.2763538360595703,-0.1636754870414734,-0.4489580988883972
1776444099482836200,17.701836181640626,-0.030962709337472916,-0.08903826028108597,-0.37294986844062805
1776444099507853300,17.726853271484377,0.11649465560913086,0.016380304470658302,-0.19106610119342804
1776444099532871200,17.75187109375,0.16436204314231873,0.2090243250131607,0.013831925578415394
1776444099557888300,17.77688818359375,0.5004857182502747,0.21370829641819,0.13275431096553802
1776444099582906400,17.80190625,0.8900191187858582,0.22144903242588043,0.1656068116426468
1776444099607923200,17.826923095703126,1.0424941778182983,0.20728474855422974,0.19617857038974762
1776444099632941300,17.85194140625,1.0994141101837158,0.384830504655838,0.16592398285865784
1776444099657958100,17.876958251953123,1.2853446006774902,0.46307897567749023,0.1006602942943573
1776444099682976300,17.901976318359374,1.4630956649780273,0.49221235513687134,0.06595691293478012
1776444099707993300,17.926993408203124,1.4770320653915405,0.549315869808197,0.06133472919464111
1776444099733010200,17.95201025390625,1.4827812910079956,0.4777045249938965,0.04493897780776024
1776444099758028300,17.9770283203125,1.5162997245788574,0.42642560601234436,-0.033723607659339905
1776444099783045400,18.00204541015625,1.4078481197357178,0.33924809098243713,-0.03157097473740578
1776444099808063200,18.027063232421874,1.4478576183319092,0.1963178515434265,-0.039498671889305115
1776444099833080300,18.052080322265624,1.6790013313293457,0.0003299656673334539,-0.11842092126607895
1776444099858098200,18.07709814453125,1.7480968236923218,-0.12844878435134888,-0.21048933267593384
1776444099883115300,18.102115234375,1.7092703580856323,-0.10433998703956604,-0.20415979623794556
1776444099908133400,18.12713330078125,1.700497031211853,-0.13795174658298492,-0.2187778800725937
1776444099933150200,18.152150146484374,1.7049791812896729,-0.095965676009655,-0.23581306636333466
1776444099958167300,18.177167236328124,1.6124950647354126,-0.042928025126457214,-0.1926559954881668
1776444099983185700,18.202185546875,1.6465579271316528,0.047143809497356415,-0.23986585438251495
1776444100008202800,18.22720263671875,1.5341858863830566,0.09741736948490143,-0.3599488437175751
1776444100033220900,18.252220947265624,1.0598089694976807,0.08088766038417816,-0.27571654319763184
1776444100058237700,18.27723779296875,0.8485608696937561,-0.029394106939435005,-0.2177477777004242
1776444100083255800,18.302255859375,0.5503747463226318,-0.06090383231639862,-0.3174099028110504
1776444100108273000,18.32727294921875,0.6171476244926453,-0.179973766207695,-0.3637443780899048
1776444100133290800,18.352290771484373,0.6010105013847351,-0.27717167139053345,-0.46138864755630493
1776444100158307800,18.377307861328124,0.597437858581543,-0.28118985891342163,-0.4792507588863373
1776444100183325000,18.402324951171874,0.6167348623275757,-0.12874412536621094,-0.3686973452568054
1776444100208342800,18.4273427734375,0.6060143113136292,0.0481821745634079,-0.21884100139141083
1776444100233360000,18.45235986328125,0.6484466791152954,0.07847163826227188,-0.15156954526901245
1776444100258377700,18.477377685546877,0.6949476003646851,0.06690872460603714,-0.04496880620718002
1776444100283394800,18.502394775390623,0.649000346660614,0.2849830090999603,0.10881835967302322
1776444100308412700,18.52741259765625,0.5681843757629395,0.5188996195793152,0.19029857218265533
1776444100333429800,18.5524296875,0.5968532562255859,0.5990778207778931,0.21343958377838135
1776444100358446800,18.57744677734375,0.6075291037559509,0.646304190158844,0.1560140997171402
1776444100383464700,18.602464599609377,0.6606652736663818,0.502618134021759,0.019529759883880615
1776444100408481800,18.627481689453123,0.8681790828704834,0.27283552289009094,-0.28648847341537476
1776444100433500000,18.6525,1.0313136577606201,0.08576763421297073,-0.4272778332233429
1776444100458516700,18.677516845703124,1.124133586883545,0.0649515688419342,-0.34616991877555847
1776444100483534800,18.702534912109375,1.2912613153457642,0.29430511593818665,-0.14294064044952393
1776444100508552000,18.727552001953125,1.3530104160308838,0.43380603194236755,-0.044788509607315063
1776444100533569800,18.75256982421875,1.4355127811431885,0.38873255252838135,-0.10348644107580185
1776444100558587000,18.7775869140625,1.4701813459396362,0.20094695687294006,-0.1742386519908905
1776444100583604000,18.80260400390625,1.4866145849227905,0.06967708468437195,-0.1904221475124359
1776444100608621800,18.827621826171875,1.4316328763961792,0.08052759617567062,-0.1608879566192627
1776444100633639000,18.852638916015625,1.355685830116272,0.12315069139003754,-0.14641021192073822
1776444100658656800,18.87765673828125,1.3344852924346924,0.10701912641525269,-0.16400597989559174
1776444100683673900,18.902673828125,1.2906712293624878,-0.004316717851907015,-0.19716793298721313
1776444100708691700,18.927691650390624,1.3016833066940308,-0.06475609540939331,-0.1778339147567749
1776444100733708800,18.952708740234375,1.3606036901474,-0.056121326982975006,-0.08846994489431381
1776444100758726000,18.977725830078125,1.3028591871261597,-0.07832702994346619,-0.022762570530176163
1776444100783743700,19.00274365234375,1.2049810886383057,-0.12322819232940674,-0.03718119114637375
1776444100808760800,19.0277607421875,1.148331642150879,-0.19042986631393433,-0.05939701572060585
1776444100833779000,19.052779052734376,1.0911964178085327,-0.2314864844083786,-0.06186576560139656
1776444100858795800,19.077795654296875,0.9943891763687134,-0.21648117899894714,-0.021626465022563934
1776444100883814000,19.10281396484375,0.8728268146514893,-0.2133258581161499,0.010939733125269413
1776444100908831000,19.1278310546875,0.705706000328064,-0.24635544419288635,-0.00025779398856684566
1776444100933848800,19.152848876953126,0.5747911334037781,-0.29969191551208496,-0.044255610555410385
1776444100958866000,19.177865966796876,0.4731057584285736,-0.40356558561325073,-0.06453797966241837
1776444100983882800,19.2028828125,0.3729802370071411,-0.4610685408115387,-0.015271098352968693
1776444101008900900,19.22790087890625,0.25071796774864197,-0.47528424859046936,0.06127667427062988
1776444101033917700,19.252917724609375,0.3377964198589325,-0.31889569759368896,0.12753984332084656
1776444101058935800,19.277935791015626,0.4775921404361725,-0.21405823528766632,0.09634890407323837
1776444101083952600,19.30295263671875,0.6509830951690674,-0.23017728328704834,0.027644677087664604
1776444101108971000,19.327970947265626,0.7448901534080505,-0.34054240584373474,-0.02461080439388752
1776444101133987600,19.352987548828125,0.7199573516845703,-0.3409711718559265,-0.04159671068191528
1776444101159004700,19.378004638671875,0.6820733547210693,-0.17356273531913757,0.028475316241383553
1776444101184022800,19.403022705078126,0.6971362233161926,-0.077443927526474,0.02515488862991333
1776444101209039600,19.42803955078125,0.7853531241416931,-0.1398918628692627,0.012461729347705841
1776444101234057700,19.4530576171875,0.6926088333129883,-0.29493603110313416,-0.01836009882390499
1776444101259074600,19.478074462890625,0.6314024925231934,-0.1982499659061432,0.10451336205005646
1776444101284091600,19.503091552734375,0.6212587356567383,-0.06348416954278946,0.28843924403190613
1776444101309109800,19.52810986328125,0.45759445428848267,0.07288113236427307,0.37466761469841003
1776444101334126600,19.553126708984376,0.4723470211029053,0.11507465690374374,0.38248106837272644
1776444101359144700,19.578144775390626,0.6999908685684204,0.06512200832366943,0.31770819425582886
1776444101384161800,19.603161865234377,0.9175056219100952,-0.028872128576040268,0.18527638912200928
1776444101409179600,19.6281796875,1.0489048957824707,-0.04056420549750328,0.08811148256063461
1776444101434196700,19.65319677734375,1.1125997304916382,-0.13779808580875397,0.012659070082008839
1776444101459213800,19.6782138671875,1.1368368864059448,-0.15608200430870056,-0.08439743518829346
1776444101484231700,19.703231689453126,1.189660906791687,-0.14842489361763,-0.12457708269357681
1776444101509248800,19.728248779296877,1.237477421760559,-0.12077648192644119,-0.19870591163635254
1776444101534266600,19.7532666015625,1.3171968460083008,-0.005528456065803766,-0.2385752946138382
1776444101559283700,19.77828369140625,1.4026912450790405,0.05223098024725914,-0.27975842356681824
1776444101584301800,19.8033017578125,1.5196367502212524,0.051064517349004745,-0.38021525740623474
1776444101609318700,19.828318603515626,1.5078788995742798,0.21184274554252625,-0.4699517786502838
1776444101634335700,19.853335693359377,1.5218607187271118,0.3739147484302521,-0.5176527500152588
1776444101659353900,19.878353759765623,1.6799880266189575,0.39330148696899414,-0.5240520238876343
1776444101684370700,19.90337060546875,1.7100434303283691,0.4229544401168823,-0.477255254983902
1776444101709388800,19.928388916015624,1.9588266611099243,0.5527918338775635,-0.41241365671157837
1776444101734405600,19.953405517578126,1.9282740354537964,0.6989045739173889,-0.27863749861717224
1776444101759422700,19.978422607421876,1.8462153673171997,0.8657034039497375,-0.2605080306529999
1776444101784440800,20.00344091796875,1.708648443222046,0.8817774057388306,-0.25297924876213074
1776444101809457700,20.028457763671874,1.6171454191207886,0.8026469349861145,-0.1772346943616867
1776444101834475800,20.053475830078124,1.6503942012786865,0.6443483829498291,-0.11782383918762207
1776444101859492900,20.078492919921874,1.5910648107528687,0.4348675608634949,-0.11303281038999557
1776444101884510700,20.1035107421875,1.4666246175765991,0.2531885802745819,-0.20533718168735504
1776444101909527800,20.12852783203125,1.4294154644012451,0.019052520394325256,-0.21314769983291626
1776444101934545000,20.153544921875,1.1891653537750244,-0.21532376110553741,-0.2502785623073578
1776444101959562800,20.178562744140624,1.220954418182373,-0.4282948970794678,-0.18938404321670532
1776444101984576000,20.203575927734374,1.353636622428894,-0.6100441813468933,-0.12734118103981018
1776444102009593900,20.22859375,1.3397164344787598,-0.6324957013130188,-0.12163988500833511
1776444102034611000,20.25361083984375,1.350973129272461,-0.5654727220535278,-0.23048514127731323
1776444102059629000,20.278629150390625,1.6660243272781372,-0.4589417576789856,-0.2114616483449936
1776444102084646000,20.30364599609375,1.7098405361175537,-0.3168599605560303,-0.2510569989681244
1776444102109663000,20.3286630859375,1.752410888671875,-0.13814641535282135,-0.25526532530784607
1776444102134681000,20.35368115234375,1.9595211744308472,0.08593275398015976,-0.15623460710048676
1776444102159698000,20.378697998046874,1.9089192152023315,0.23692280054092407,0.029349632561206818
1776444102184716000,20.403716064453125,1.4137803316116333,0.28496116399765015,0.15858244895935059
1776444102209733000,20.428733154296875,1.1338011026382446,0.20369240641593933,0.21795843541622162
1776444102234749700,20.453749755859373,0.9360286593437195,0.18951906263828278,0.13325712084770203
1776444102259768000,20.47876806640625,0.8281874060630798,0.18483829498291016,-0.08509012311697006
1776444102284785000,20.503784912109374,0.5013368725776672,0.0677308440208435,-0.24790780246257782
1776444102309803000,20.528802978515625,0.14585015177726746,-0.12463966757059097,-0.25484055280685425
1776444102334819800,20.55381982421875,0.18942531943321228,-0.2726499140262604,-0.23790204524993896
1776444102359837000,20.5788369140625,0.45379331707954407,-0.5217715501785278,-0.16203656792640686
1776444102384854800,20.603854736328124,0.4925630986690521,-0.6719839572906494,-0.010667291469871998
1776444102409872000,20.628871826171874,0.5619661211967468,-0.7026867866516113,0.06307430565357208
1776444102434889700,20.6538896484375,0.7249020338058472,-0.5853542685508728,0.04162334278225899
1776444102459906800,20.67890673828125,0.7628121376037598,-0.495112806558609,0.015392804518342018
1776444102484924700,20.703924560546874,0.8241927027702332,-0.2916366457939148,-0.046313170343637466
1776444102509941800,20.728941650390624,0.9271358251571655,-0.08379476517438889,-0.056047555059194565
1776444102534958800,20.753958740234374,1.0993167161941528,-0.02997441031038761,-0.019943347200751305
1776444102559976700,20.778976806640625,1.2507299184799194,0.07259537279605865,0.007592406123876572
1776444102584993800,20.803993896484375,1.2164608240127563,0.05056304112076759,0.0006287723081186414
1776444102610012000,20.829011962890625,1.3553575277328491,0.08079471439123154,0.010143714025616646
1776444102635028700,20.85402880859375,1.614256739616394,0.21991771459579468,0.08110044151544571
1776444102660045800,20.8790458984375,1.6675609350204468,0.1537110060453415,0.1739014834165573
1776444102685064000,20.90406396484375,1.6104273796081543,0.043049734085798264,0.23322872817516327
1776444102710080800,20.929080810546875,1.6774401664733887,0.05849260464310646,0.22291217744350433
1776444102735099000,20.954098876953125,1.706843376159668,0.008432366885244846,0.2139839231967926
1776444102760116000,20.979115966796876,1.6509712934494019,-0.18051624298095703,0.20294219255447388
1776444102785132800,21.0041328125,1.7165220975875854,-0.3551170825958252,0.1747845858335495
1776444102810151000,21.02915087890625,1.8562275171279907,-0.17062367498874664,0.15880829095840454
1776444102835168000,21.05416796875,1.9959300756454468,-0.23251979053020477,0.19353830814361572
1776444102860185900,21.079185791015625,1.873254418373108,-0.31723228096961975,0.16775864362716675
1776444102885203000,21.104202880859376,1.964087963104248,-0.33401578664779663,0.11061812192201614
1776444102910220000,21.129219970703126,2.0614101886749268,0.30987343192100525,0.026307238265872
1776444102935238000,21.15423779296875,1.7520076036453247,0.712213397026062,0.011606855317950249
1776444102960255000,21.1792548828125,0.8818381428718567,-0.13992488384246826,0.12597231566905975
1776444102985273600,21.204273681640625,0.6139313578605652,0.06148519739508629,0.19462008774280548
1776444103010290700,21.229290771484376,0.8066515326499939,0.2221643626689911,0.24120329320430756
1776444103035307500,21.2543076171875,0.7859600782394409,0.10054152458906174,0.35051512718200684
1776444103060325600,21.27932568359375,0.859097957611084,0.2806612253189087,0.419876366853714
1776444103085342700,21.3043427734375,0.9865397810935974,0.3864435851573944,0.4039088487625122
1776444103110360600,21.329360595703125,1.0020084381103516,0.37241190671920776,0.29687294363975525
1776444103135377700,21.354377685546876,1.0035978555679321,0.4459678828716278,0.04153359308838844
1776444103160394800,21.379394775390626,1.0070905685424805,0.39753296971321106,-0.1077837198972702
1776444103185412600,21.40441259765625,1.1348999738693237,0.20655956864356995,-0.11065647006034851
1776444103210429700,21.4294296875,1.2195613384246826,0.07461458444595337,-0.09400053322315216
1776444103235447600,21.454447509765625,1.293146014213562,-0.09971541166305542,-0.14577557146549225
1776444103260464600,21.479464599609376,1.3665400743484497,-0.06554917991161346,-0.24403636157512665
1776444103285481700,21.504481689453126,1.3788542747497559,-0.0015361113473773003,-0.16977572441101074
1776444103310499600,21.52949951171875,1.5204660892486572,0.06127241253852844,-0.15721945464611053
1776444103335516700,21.5545166015625,1.7236428260803223,0.13635064661502838,-0.129486083984375
1776444103360534800,21.57953466796875,1.6506887674331665,0.2505142390727997,-0.08709654957056046
1776444103385551600,21.604551513671876,1.4963244199752808,0.2419164925813675,-0.032467395067214966
1776444103410568700,21.629568603515626,1.5031355619430542,0.06119917333126068,0.010655839927494526
1776444103435586800,21.6545869140625,1.5975059270858765,-0.08165358006954193,0.05439186841249466
1776444103460603600,21.679603759765627,1.6325480937957764,-0.19480757415294647,0.12146837264299393
1776444103485621800,21.704621826171874,1.5642646551132202,-0.2604489028453827,0.2124057412147522
1776444103510638600,21.729638671875,1.4794261455535889,-0.3676999807357788,0.2357320934534073
1776444103535655700,21.75465576171875,1.4528497457504272,-0.5056275129318237,0.1910240203142166
1776444103560673800,21.779673828125,1.4532992839813232,-0.5630127787590027,0.12925173342227936
1776444103585690600,21.804690673828127,1.3662115335464478,-0.5382804870605469,0.0983223095536232
1776444103610707700,21.829707763671873,1.205862045288086,-0.4483945667743683,0.09702668339014053
1776444103635725800,21.854725830078124,1.1227636337280273,-0.26840534806251526,0.07957684993743896
1776444103660742700,21.87974267578125,0.8856672644615173,0.32204434275627136,0.04177514463663101
1776444103685760800,21.9047607421875,0.7775724530220032,0.4229150414466858,-0.02851153537631035
1776444103710777900,21.92977783203125,0.6277022957801819,0.3260710537433624,-0.08649387955665588
1776444103735794400,21.95479443359375,0.3844746947288513,0.4800720810890198,-0.15983574092388153
1776444103760812800,21.979812744140624,0.08427972346544266,0.7008281350135803,-0.15898992121219635
1776444103785829600,22.00482958984375,-0.008186024613678455,0.4935958683490753,-0.1380569338798523
1776444103810847700,22.02984765625,0.08099977672100067,0.2525651454925537,-0.12408333271741867
1776444103835864600,22.054864501953126,-0.036602217704057693,0.18830998241901398,0.025799905881285667
1776444103860881700,22.079881591796877,-0.04869110509753227,0.029275329783558846,0.3040349781513214
1776444103885899500,22.1048994140625,0.024519724771380424,-0.02570110186934471,0.42352941632270813
1776444103910916600,22.12991650390625,0.036068521440029144,-0.06928665935993195,0.43131303787231445
1776444103935934500,22.1549345703125,0.18612726032733917,-0.23724503815174103,0.32076868414878845
1776444103960951600,22.17995166015625,0.44717296957969666,-0.2761508822441101,0.19614766538143158
1776444103985968400,22.204968505859377,0.7414243221282959,0.1311095505952835,0.13071167469024658
1776444104010986200,22.229986328125,1.1965433359146118,0.3533380925655365,0.18220868706703186
1776444104036003300,22.25500341796875,1.7154027223587036,0.5247164964675903,0.16181713342666626
1776444104061020400,22.2800205078125,2.18385648727417,0.5821235775947571,0.09331236779689789
1776444104086038300,22.305038330078126,2.4512217044830322,0.6134293079376221,0.005887450184673071
1776444104111055400,22.330055419921877,2.5322041511535645,0.5913386940956116,-0.026681412011384964
1776444104136073500,22.355073486328124,2.5268211364746094,0.5376253724098206,-0.0665217712521553
1776444104161090300,22.38009033203125,2.5626418590545654,0.4814249575138092,-0.13365685939788818
1776444104201118500,22.420118408203123,2.381211996078491,0.26567375659942627,-0.2050013542175293
1776444104241146400,22.460146484375,2.278238534927368,-0.02418363280594349,-0.3101642429828644
1776444104281173500,22.500173583984374,2.1649112701416016,-0.16631600260734558,-0.39231744408607483
1776444104321201400,22.540201416015623,1.9426047801971436,-0.3409535884857178,-0.43060651421546936
1776444104361229300,22.580229248046876,1.8508402109146118,-0.2964385747909546,-0.37125930190086365
1776444104401257200,22.62025732421875,1.6910274028778076,-0.22383975982666016,-0.2860109806060791
1776444104441285400,22.660285400390624,1.5354572534561157,-0.011150921694934368,-0.13380946218967438
1776444104481312300,22.700312255859377,1.5076138973236084,0.049852244555950165,-0.06637023389339447
1776444104521340400,22.74034033203125,1.647463083267212,0.15904425084590912,0.0013464941876009107
1776444104561368600,22.78036865234375,1.7490150928497314,0.18766391277313232,-0.010901383124291897
1776444104601396200,22.820396240234373,1.5281457901000977,0.5267676711082458,0.008108526468276978
1776444104641424400,22.86042431640625,1.422702670097351,0.6190866827964783,0.12254802137613297
1776444104681452300,22.900452392578124,1.329147458076477,0.704887330532074,0.17200452089309692
1776444104721479400,22.9404794921875,1.355510950088501,0.7399497032165527,0.26015356183052063
1776444104761507300,22.98050732421875,0.7041997313499451,0.5082634687423706,0.3234688639640808
1776444104801535500,23.020535400390624,0.400444895029068,0.40781304240226746,0.4492121636867523
1776444104841563400,23.0605634765625,0.6226984858512878,0.2854631841182709,0.29903411865234375
1776444104881591300,23.10059130859375,0.4390774965286255,0.43938055634498596,0.14009319245815277
1776444104921618400,23.140618408203125,0.32766416668891907,0.6311331987380981,0.2145029753446579
1776444104961646300,23.180646240234374,0.39415183663368225,0.5327752232551575,0.2440510094165802
1776444105001674200,23.22067431640625,0.9297345876693726,0.15923120081424713,0.008914398960769176
1776444105041702100,23.2607021484375,1.1172586679458618,0.5052210688591003,-0.25426849722862244
1776444105081729300,23.300729248046874,0.7749479413032532,0.8928079605102539,-0.23752200603485107
1776444105121757200,23.340757080078124,0.6027202010154724,0.9516912698745728,-0.17879503965377808
1776444105161785300,23.380785400390625,0.6340206265449524,0.8671540021896362,-0.27046558260917664
1776444105201813200,23.420813232421875,0.34039273858070374,0.5675270557403564,-0.1764219105243683
1776444105241841400,23.46084130859375,0.6941143274307251,-0.20407696068286896,-0.06581523269414902
1776444105281868300,23.500868408203125,0.8353438973426819,0.014282799325883389,-0.09157519042491913
1776444105321896200,23.540896240234375,0.7601511478424072,-0.2189328819513321,-0.04926901310682297
1776444105361924000,23.580924072265624,0.4598802328109741,-0.3669561743736267,-0.010596984066069126
1776444105401952300,23.6209521484375,0.4569571614265442,-0.4236285090446472,-0.06689194589853287
1776444105441980400,23.66098046875,1.018315076828003,-0.4563307762145996,-0.2896536588668823
1776444105482007300,23.70100732421875,1.3896507024765015,-0.44996902346611023,-0.3888161778450012
1776444105522035500,23.741035400390626,0.8153541684150696,-0.20647087693214417,-0.433663010597229
1776444105562063000,23.78106298828125,0.3321888744831085,-0.24779249727725983,-0.2838365137577057
1776444105602091300,23.82109130859375,0.38639378547668457,-0.37572675943374634,-0.15636004507541656
1776444105642118100,23.8611181640625,0.2208136022090912,-0.34403833746910095,-0.14795750379562378
1776444105682146300,23.901146240234375,-0.2197350263595581,-0.22249431908130646,-0.033658094704151154
1776444105722174200,23.94117431640625,0.04596163332462311,-0.06286924332380295,-0.013313940726220608
1776444105762202400,23.981202392578126,0.013711551204323769,0.01661812514066696,0.06267962604761124
1776444105802229200,24.021229248046875,-0.35422733426094055,0.057199906557798386,0.23024065792560577
1776444105842257200,24.061257080078125,-0.34833401441574097,0.012263856828212738,0.2833496928215027
1776444105882285300,24.101285400390626,-0.26374563574790955,0.06620299071073532,0.27792537212371826
1776444105922313200,24.141313232421876,-0.589306652545929,0.2544780969619751,0.3359313905239105
1776444105962341400,24.18134130859375,-0.5461940765380859,0.1867765337228775,0.428658664226532
1776444106002368000,24.221367919921875,-0.5715265870094299,0.09758354723453522,0.3846142590045929
1776444106042396000,24.26139599609375,-1.2069493532180786,-0.016895625740289688,0.37999898195266724
1776444106082423800,24.301423828125,-1.5295926332473755,-0.3334176540374756,0.34250569343566895
1776444106122451700,24.34145166015625,-1.7699142694473267,-0.6226528882980347,0.19193029403686523
1776444106162478800,24.381478759765624,-1.71117103099823,-1.0378836393356323,-0.0466519258916378
1776444106202506800,24.4215068359375,-1.7367041110992432,-1.2514936923980713,-0.2361941635608673
1776444106242535000,24.461534912109375,-1.8370349407196045,-1.4668147563934326,-0.3560483753681183
1776444106282563000,24.50156298828125,-1.5114370584487915,-1.715455174446106,-0.46018463373184204
1776444106322590000,24.54158984375,-1.4301528930664062,-1.9234172105789185,-0.5314500331878662
1776444106362617900,24.581617919921875,-1.1431046724319458,-1.870187520980835,-0.6466748714447021
1776444106402645800,24.621645751953125,-0.7810316681861877,-1.7701091766357422,-0.72745680809021
1776444106442674000,24.661673828125,-0.6695623397827148,-1.4586721658706665,-0.7121351361274719
1776444106482700800,24.70170068359375,-0.6215178966522217,-1.5961040258407593,-0.6647819876670837
1776444106522729000,24.74172900390625,-0.5586382746696472,-1.7414263486862183,-0.46340227127075195
1776444106562756900,24.7817568359375,-0.8155909180641174,-1.5834393501281738,-0.23958462476730347
1776444106602784800,24.82178466796875,-0.39417925477027893,-1.8619266748428345,-0.14169055223464966
1776444106642811600,24.861811767578125,-0.40501779317855835,-1.725458025932312,-0.05554341897368431
1776444106682839800,24.90183984375,-0.14593829214572906,-1.4107615947723389,0.04457252845168114
1776444106722868000,24.941867919921876,-0.05940207466483116,-1.304869532585144,0.11346077919006348
1776444106762896000,24.981895751953125,0.06498299539089203,-0.967286229133606,0.14458967745304108
1776444106802924000,25.021924072265627,0.16381609439849854,-0.7080527544021606,0.239265576004982
1776444106842951700,25.06195166015625,0.22759640216827393,-0.6664518117904663,0.3778591454029083
1776444106882978800,25.101978759765625,0.33924251794815063,-0.6876923441886902,0.39142370223999023
1776444106923006700,25.1420068359375,0.32031968235969543,-0.7388293147087097,0.38158437609672546
1776444106963035000,25.182034912109376,0.2986561954021454,-0.864936113357544,0.3368701636791229
1776444107003063600,25.2220634765625,0.40412136912345886,-0.978489339351654,0.23947197198867798
1776444107043090400,25.26209033203125,0.32893526554107666,-1.025506854057312,0.30312711000442505
1776444107083118300,25.302118408203125,0.3090933859348297,-0.912227988243103,0.42400214076042175
1776444107123146200,25.342146240234374,0.30478253960609436,-0.4822230935096741,0.49086320400238037
1776444107163174400,25.38217431640625,0.4361213743686676,-0.3571362793445587,0.5975931286811829
1776444107203201300,25.422201171875,0.42562931776046753,-0.2770228087902069,0.5916100740432739
1776444107243229400,25.4622294921875,0.46599113941192627,-0.36823102831840515,0.5777568221092224
1776444107283257600,25.502257568359376,0.603410542011261,-0.5820644497871399,0.511436939239502
1776444107323285200,25.54228515625,0.7213318347930908,-0.6907368898391724,0.4378676116466522
1776444107363312400,25.5823125,0.5213321447372437,-0.5182495713233948,0.3864089548587799
1776444107403340300,25.62234033203125,0.43271973729133606,-0.30846330523490906,0.26604127883911133
1776444107443368400,25.662368408203125,0.3731674551963806,-0.5198607444763184,0.15960031747817993
1776444107483396400,25.702396240234375,0.18589290976524353,-0.46795573830604553,0.3174874186515808
1776444107523423500,25.742423583984376,-0.011876633390784264,-0.34052643179893494,0.37104332447052
1776444107563451400,25.782451416015626,-0.031861525028944016,-0.37978753447532654,0.6749270558357239
1776444107603479300,25.822479248046875,0.095879927277565,-0.11653193831443787,0.49293193221092224
1776444107643506400,25.86250634765625,0.17218375205993652,0.18866392970085144,0.38750192523002625
1776444107683534300,25.902534423828126,0.2204495519399643,0.21133488416671753,0.4765883982181549
1776444107723562500,25.9425625,0.2726765275001526,0.023614780977368355,0.6646528244018555
1776444107763590400,25.98259033203125,0.1620458960533142,-0.22311510145664215,0.9785699844360352
1776444107803617500,26.022617431640626,0.36496543884277344,-0.5074320435523987,1.2867417335510254
1776444107843645400,26.0626455078125,0.25756630301475525,-0.549922525882721,1.6867876052856445
1776444107883673300,26.10267333984375,0.19440382719039917,-0.5731346607208252,1.72163987159729
1776444107923701500,26.142701416015626,0.3858094811439514,-0.60880047082901,1.755472183227539
1776444107963728400,26.182728271484375,0.5299136638641357,-0.7138267755508423,1.8210357427597046
1776444108003756000,26.222756103515625,0.6651130318641663,-0.6536257266998291,1.7491474151611328
1776444108043784200,26.2627841796875,0.6681418418884277,-0.7643799781799316,1.8876667022705078
1776444108083812400,26.302812255859376,0.3898007571697235,-0.6529839038848877,1.8969155550003052
1776444108123839200,26.342839111328125,0.17234699428081512,-0.48621252179145813,1.9671013355255127
1776444108163867100,26.3828671875,-0.0904657170176506,-0.4569920599460602,1.9951283931732178
1776444108203895000,26.42289501953125,-0.03313132002949715,-0.23446843028068542,2.025442123413086
1776444108243922200,26.462922119140625,0.05392155423760414,-0.06858944892883301,1.8611493110656738
1776444108283950000,26.5029501953125,0.26787513494491577,0.12906983494758606,1.9054259061813354
1776444108323978200,26.542978271484376,0.38849449157714844,0.23625195026397705,1.9099175930023193
1776444108364006100,26.583006103515626,0.4213733375072479,0.23788180947303772,1.9671969413757324
1776444108404033300,26.623033203125,0.5144955515861511,0.20014187693595886,1.9557677507400513
1776444108444061000,26.66306103515625,0.5270686149597168,-0.08905450999736786,1.9691921472549438
1776444108484089000,26.703089111328126,0.42056533694267273,-0.23329317569732666,1.9571852684020996
1776444108524116000,26.743115966796875,0.46989667415618896,-0.2868559956550598,1.7055810689926147
1776444108564144000,26.78314404296875,0.2754233181476593,-0.31611961126327515,1.5121138095855713
1776444108604172300,26.82317236328125,0.216496080160141,-0.35837653279304504,1.206838846206665
1776444108644200200,26.8632001953125,0.13133378326892853,-0.3528027832508087,1.0823997259140015
1776444108684227300,26.903227294921876,0.0029547770973294973,-0.28871169686317444,0.9582463502883911
1776444108724255000,26.9432548828125,-0.009810020215809345,-0.41811254620552063,0.8310474157333374
1776444108764283100,26.983283203125,0.0457344651222229,-0.6378142833709717,0.9995898008346558
1776444108804310000,27.02331005859375,0.23223084211349487,-0.5678501129150391,0.8867852091789246
1776444108844338200,27.063338134765626,0.22527866065502167,-0.31660911440849304,0.558143675327301
1776444108884366300,27.103366455078124,0.4576146900653839,-0.02545316144824028,0.4325602054595947
1776444108924394200,27.143394287109373,0.3938543498516083,0.27213430404663086,0.36110919713974
1776444108964421400,27.18342138671875,0.31137174367904663,0.501581609249115,0.2874211370944977
1776444109004448800,27.22344873046875,0.2800007462501526,0.5529633164405823,0.2652415335178375
1776444109044477000,27.263476806640625,0.25069454312324524,0.40552380681037903,0.26956355571746826
1776444109084503800,27.30350390625,0.25652605295181274,0.1593763381242752,0.18097084760665894
1776444109124532000,27.343531982421876,0.21347792446613312,0.21473467350006104,0.2260110229253769
1776444109164560000,27.383559814453125,0.13462625443935394,0.17555610835552216,0.25508609414100647
1776444109204587000,27.4235869140625,0.19250206649303436,-0.07535015046596527,0.3262534737586975
1776444109244615000,27.463614990234376,0.25539955496788025,-0.1956494003534317,0.2839371860027313
1776444109284642800,27.503642822265626,0.248734712600708,-0.21728624403476715,0.27034226059913635
1776444109324670700,27.543670654296875,0.4912533462047577,-0.25312334299087524,0.5870986580848694
1776444109364697900,27.58369775390625,0.4550575315952301,-0.20656436681747437,0.9414423704147339
1776444109404725800,27.623725830078126,0.46798425912857056,-0.06537101417779922,1.1232118606567383
1776444109444754000,27.66375390625,0.26482048630714417,-0.1339506059885025,1.2067525386810303
1776444109484781000,27.703781005859376,0.014627944678068161,-0.2195427417755127,1.1387569904327393
1776444109524809000,27.74380908203125,0.027780499309301376,-0.2294590175151825,1.2656105756759644
1776444109564836900,27.7838369140625,0.14838840067386627,-0.24127280712127686,1.2689898014068604
1776444109604864000,27.823864013671876,0.1471545696258545,-0.2357289046049118,1.2842636108398438
1776444109644892000,27.863891845703126,0.04139085114002228,-0.16488881409168243,1.364205002784729
1776444109684919800,27.903919921875,-0.1094316840171814,-0.24440787732601166,1.3842415809631348
1776444109724947000,27.943947021484377,-0.3134165108203888,-0.40576720237731934,1.455870509147644
1776444109764974800,27.983974853515626,-0.39547860622406006,-0.5638364553451538,1.4583525657653809
1776444109805003000,28.0240029296875,-0.29813048243522644,-0.5633243322372437,1.2948886156082153
1776444109845030000,28.06402978515625,-0.28690049052238464,-0.43133649230003357,1.2591608762741089
1776444109885058000,28.10405810546875,-0.2235790342092514,-0.33778709173202515,1.2472981214523315
1776444109925086000,28.1440859375,-0.1746080219745636,-0.25224581360816956,1.3124401569366455
1776444109965112800,28.18411279296875,-0.24193167686462402,-0.20959876477718353,1.470062017440796
1776444110005140700,28.224140625,-0.012552010826766491,-0.02767450548708439,1.3906683921813965
1776444110045169000,28.2641689453125,0.36718013882637024,0.15156503021717072,1.1880677938461304
1776444110085195800,28.30419580078125,0.147322878241539,0.19995492696762085,1.2994918823242188
1776444110125224000,28.344223876953127,-0.05793946608901024,0.21926258504390717,1.4005907773971558
1776444110165252000,28.384252197265624,0.003969175275415182,0.3362603187561035,1.467652678489685
1776444110205279700,28.42427978515625,-0.1789015680551529,0.3793151080608368,1.6442795991897583
1776444110245307000,28.464306884765627,-0.46245846152305603,0.41433751583099365,1.5587385892868042
1776444110285334800,28.504334716796876,-0.23177170753479004,0.5281655788421631,1.3059608936309814
1776444110325363000,28.544363037109374,-0.35756880044937134,0.3658807873725891,1.1090401411056519
1776444110365389800,28.584389892578123,-0.060674265027046204,0.4171690046787262,1.0466228723526
1776444110405418000,28.62441796875,-0.023385483771562576,0.1403677612543106,0.8973380327224731
1776444110445446000,28.66444580078125,-0.19757992029190063,-0.07308832556009293,0.8783291578292847
1776444110485473000,28.70447314453125,0.1261105239391327,-0.17558380961418152,0.6741722822189331
1776444110525500700,28.744500732421876,-0.07294104993343353,-0.47482776641845703,0.7281867861747742
1776444110565528800,28.78452880859375,-0.3354107439517975,-0.761674702167511,0.9551507234573364
1776444110605555700,28.8245556640625,-0.24886494874954224,-0.7888067364692688,1.3846054077148438
1776444110645584000,28.864583984375,-0.009785252623260021,-0.623818039894104,1.693698525428772
1776444110685612000,28.904612060546874,-0.02835068106651306,-0.178222194314003,1.8206032514572144
1776444110725639000,28.944638916015624,0.1689693182706833,0.2776753008365631,1.8328346014022827
1776444110765667000,28.9846669921875,0.5006612539291382,0.6181638836860657,1.3956100940704346
1776444110805694700,29.02469482421875,0.9843858480453491,0.698692798614502,1.445555329322815
1776444110845721900,29.064721923828124,1.249050498008728,0.5823054909706116,1.384751558303833
1776444110885749800,29.104749755859373,1.3323084115982056,0.2762491703033447,1.3010127544403076
1776444110925778000,29.14477783203125,0.6814414262771606,0.17718623578548431,1.5101662874221802
1776444110965804800,29.1848046875,0.09870313853025436,-0.08638282865285873,1.5450648069381714
1776444111005837000,29.224837158203126,-0.09478216618299484,-0.3965068757534027,1.5592797994613647
1776444111045864200,29.2648642578125,-0.4044950306415558,-0.3925584554672241,1.5589723587036133
1776444111085891800,29.304891845703125,-0.2910422384738922,-0.19690720736980438,1.6391937732696533
1776444111125920000,29.344919921875,-0.06437180191278458,0.05060512199997902,1.6295413970947266
1776444111165947000,29.38494677734375,0.08551383763551712,0.20277468860149384,1.6109997034072876
1776444111205975000,29.42497509765625,0.2398751825094223,0.21425317227840424,1.5771777629852295
1776444111246003000,29.4650029296875,0.2867167294025421,0.1871192902326584,1.4352866411209106
1776444111286030000,29.505030029296876,0.2002132534980774,0.14872689545154572,1.3793158531188965
1776444111326058000,29.54505810546875,0.1642264872789383,0.13603267073631287,1.3050469160079956
1776444111366086000,29.5850859375,0.21059532463550568,0.10455197840929031,1.222756028175354
1776444111406113000,29.625113037109376,0.2072644978761673,0.10314901918172836,1.0444241762161255
1776444111446141000,29.665140869140625,0.11963958293199539,0.009795638732612133,0.9562013149261475
1776444111486169000,29.705169189453127,0.11327728629112244,0.014611166901886463,0.8338338732719421
1776444111526196000,29.745196044921876,0.1826734095811844,-0.12919367849826813,0.8994395136833191
1776444111566224100,29.78522412109375,0.034443728625774384,-0.1963556706905365,0.9396130442619324
1776444111606252000,29.825251953125,-0.22541901469230652,-0.3239794075489044,0.9933782815933228
1776444111646279200,29.865279052734376,-0.11515428870916367,-0.3313121497631073,0.8864856362342834
1776444111686307000,29.90530712890625,-0.03302692621946335,-0.2067345380783081,0.8571135997772217
1776444111726334200,29.945334228515627,0.12237118929624557,-0.08469811081886292,0.7713718414306641
1776444111766361900,29.98536181640625,0.29424333572387695,0.054909586906433105,0.5947771072387695
1776444111806390000,30.02539013671875,0.2544988691806793,0.25000104308128357,0.4734397232532501
1776444111846417000,30.0654169921875,0.20218293368816376,0.38535434007644653,0.6105022430419922
1776444111886445000,30.105445068359376,0.06184019893407822,0.315788596868515,0.7337698340415955
1776444111926473000,30.145472900390626,-0.10972703248262405,0.07527212053537369,0.5571061372756958
1776444111966500000,30.1855,-0.3602319359779358,-0.1209607794880867,0.5434393286705017
1776444112006526500,30.2255263671875,-0.4740844964981079,-0.14059066772460938,0.6746791005134583
1776444112046554400,30.265554443359374,-0.261025995016098,-0.08254095166921616,0.685017466545105
1776444112086581500,30.30558154296875,-0.2011783868074417,0.13627688586711884,0.698904812335968
1776444112126609400,30.345609375,0.13555197417736053,0.3869501054286957,0.7303290367126465
1776444112166636500,30.385636474609374,0.22256889939308167,0.6065205335617065,0.7508510947227478
1776444112206664400,30.42566455078125,0.2185259461402893,0.7135961651802063,0.8742393255233765
1776444112246692400,30.4656923828125,0.004171841777861118,0.5683116316795349,1.0576757192611694
1776444112286719200,30.50571923828125,0.37919285893440247,0.5097532868385315,1.1708343029022217
1776444112326747400,30.545747314453124,0.2479615956544876,0.4154536724090576,1.2788184881210327
1776444112366775600,30.585775634765625,0.340556263923645,0.35118651390075684,1.4642213582992554
1776444112406802400,30.625802490234374,0.48882320523262024,0.22517293691635132,1.5157767534255981
1776444112446830600,30.66583056640625,0.21381455659866333,-0.058525629341602325,1.5632457733154297
1776444112486857500,30.705857421875,0.46169784665107727,-0.13664039969444275,1.641544222831726
1776444112526885600,30.7458857421875,0.7375161051750183,-0.10940106213092804,1.6768348217010498
1776444112566913300,30.785913330078124,0.5472921133041382,-0.27946892380714417,1.6977102756500244
1776444112606940400,30.8259404296875,0.7133277058601379,-0.33873170614242554,1.7175894975662231
1776444112646968300,30.86596826171875,0.6242481470108032,-0.30051669478416443,1.6412153244018555
1776444112686996500,30.90599658203125,0.4532891809940338,-0.23118901252746582,1.597893476486206
1776444112727023400,30.9460234375,0.7405750155448914,-0.115073062479496,1.38519287109375
1776444112767051500,30.986051513671875,0.6156373620033264,-0.1263270527124405,1.3691157102584839
1776444112807078400,31.026078369140624,0.5831584930419922,-0.026487266644835472,1.3058102130889893
1776444112847106600,31.0661064453125,0.37949058413505554,-0.07975980639457703,1.3495371341705322
1776444112887134200,31.10613427734375,0.5575564503669739,0.0766628161072731,1.2380762100219727
1776444112927161300,31.146161376953124,0.6725198030471802,0.4700535237789154,1.3236535787582397
1776444112967189200,31.186189208984374,0.33847472071647644,0.40624845027923584,1.3334360122680664
1776444113007214300,31.22621435546875,0.8607682585716248,0.5964024066925049,1.1478583812713623
1776444113047242200,31.2662421875,0.8945044279098511,0.6567480564117432,1.1322040557861328
1776444113087270100,31.306270263671873,0.4501464068889618,0.7222234606742859,1.198085069656372
1776444113127297300,31.34629736328125,0.44095662236213684,0.48105424642562866,1.4443334341049194
1776444113167325200,31.3863251953125,0.38035425543785095,0.3742481768131256,1.511986494064331
1776444113207353300,31.426353271484373,0.511069655418396,-0.10039025545120239,1.5235379934310913
1776444113247380200,31.466380126953126,0.32892942428588867,-0.4580985903739929,1.8606606721878052
1776444113287408400,31.506408447265624,0.34518855810165405,-0.7303774952888489,1.8344993591308594
1776444113327435300,31.546435302734373,0.009526659734547138,-0.8161555528640747,1.6715588569641113
1776444113367463400,31.58646337890625,-0.27883508801460266,-0.6147809028625488,1.4766764640808105
1776444113407491300,31.6264912109375,-0.18261589109897614,-0.6155233979225159,1.5212393999099731
1776444113447518500,31.6665185546875,-0.14864540100097656,-0.3967268466949463,1.5531576871871948
1776444113487546000,31.706546142578127,0.12055703997612,-0.20240344107151031,1.4699780941009521
1776444113527573200,31.7465732421875,0.3856416940689087,-0.11676683276891708,1.1898689270019531
1776444113567601200,31.78660107421875,0.5924686789512634,-0.08355934172868729,0.9843642711639404
1776444113607629300,31.82662939453125,0.6056563854217529,0.022824356332421303,1.0503208637237549
1776444113647656200,31.86665625,0.6678643226623535,0.08887661248445511,1.0268642902374268
1776444113687684400,31.906684326171874,0.7324545383453369,0.12747353315353394,0.9727880358695984
1776444113727711200,31.946711181640627,0.6612951159477234,0.13608646392822266,0.9138895273208618
1776444113767739400,31.986739501953124,0.613950252532959,0.18916992843151093,0.8640125393867493
1776444113807767000,32.02676708984375,0.5178269147872925,0.2426307499408722,0.7706828713417053
1776444113847794200,32.06679418945313,0.5311829447746277,0.11201708018779755,0.650412380695343
1776444113887822000,32.106822021484376,0.37045156955718994,-0.09927305579185486,0.8072552680969238
1776444113927849200,32.14684912109375,0.16530320048332214,-0.27193376421928406,1.0057891607284546
1776444113967877000,32.18687719726562,0.04647136107087135,-0.5125759243965149,1.0078349113464355
1776444114007908000,32.226908203125,0.032647956162691116,-0.7860426306724548,1.1276715993881226
1776444114047936300,32.26693627929688,-0.19363151490688324,-0.9700396656990051,1.201164722442627
1776444114087964200,32.30696411132813,-0.2905372977256775,-0.9907036423683167,1.0725867748260498
1776444114127991300,32.3469912109375,-0.28916335105895996,-1.117182731628418,1.0306135416030884
1776444114168019000,32.38701904296875,-0.14915460348129272,-0.9691040515899658,0.8558624982833862
1776444114208046000,32.42704614257813,-0.18851211667060852,-0.7036484479904175,0.7617551684379578
1776444114248074000,32.46707397460938,-0.1606338918209076,-0.3953723609447479,0.7044751048088074
1776444114288102100,32.50710205078125,0.01410756353288889,-0.1342555433511734,0.4363594651222229
1776444114328129000,32.54712890625,-0.09952792525291443,-0.07450299710035324,0.4347698390483856
1776444114368157200,32.5871572265625,-0.09543011337518692,0.005983057431876659,0.7348771691322327
1776444114408184000,32.62718408203125,-0.07902983576059341,0.14483600854873657,0.8924793601036072
1776444114448212200,32.66721215820313,-0.0007933556917123497,0.5862592458724976,0.9156816005706787
1776444114488240000,32.707240234375,-0.08056248724460602,0.7056590914726257,0.9086050391197205
1776444114528267300,32.747267333984375,-0.09451265633106232,0.5694368481636047,1.0215516090393066
1776444114568295200,32.787295166015625,0.02864442765712738,0.45531052350997925,1.1260231733322144
1776444114608322000,32.82732202148438,0.2733500599861145,0.4514947533607483,1.5029224157333374
1776444114648350200,32.86735009765625,0.2883436381816864,0.26028645038604736,1.5019346475601196
1776444114688377000,32.907377197265625,0.13769687712192535,0.09821471571922302,1.374878168106079
1776444114728405200,32.9474052734375,0.36859720945358276,-0.0941896140575409,1.2039881944656372
1776444114768433200,32.98743310546875,0.44661450386047363,-0.20944643020629883,1.0939253568649292
1776444114808460300,33.02746020507813,0.3971683979034424,-0.2938755750656128,1.1291531324386597
1776444114848488200,33.06748828125,0.3386334478855133,-0.4874415695667267,1.2538039684295654
1776444114888515300,33.107515380859375,0.03020770289003849,-0.777804434299469,1.4472283124923706
1776444114928543000,33.14754296875,-0.3156711459159851,-1.1118156909942627,1.4857405424118042
1776444114968570000,33.18757006835938,-0.28707703948020935,-1.1475484371185303,1.6362121105194092
1776444115008597800,33.22759765625,-0.2792761027812958,-1.0741021633148193,1.5490467548370361
1776444115048625700,33.26762573242188,-0.1809881627559662,-0.7329573035240173,1.4098753929138184
1776444115088652800,33.30765283203125,-0.07508942484855652,0.20789460837841034,1.0936691761016846
1776444115128680700,33.3476806640625,0.2570323348045349,1.0196945667266846,0.7991400957107544
1776444115168707800,33.38770776367188,0.573756754398346,1.3957784175872803,0.6202254295349121
1776444115208735700,33.42773583984375,0.5528064370155334,1.265184760093689,0.6833716630935669
1776444115248763000,33.467762939453124,0.48314934968948364,0.9283849000930786,0.8024488091468811
1776444115288790800,33.50779077148437,0.43542230129241943,0.600348949432373,0.9362907409667969
1776444115328818000,33.54781787109375,0.4206353724002838,0.34185880422592163,1.0769016742706299
1776444115368845800,33.587845703125,0.4876950979232788,0.19239793717861176,1.1773589849472046
1776444115408873000,33.627873046875,0.44872692227363586,-0.08464191854000092,1.3714336156845093
1776444115448900600,33.66790063476562,0.15930576622486115,-0.5272265076637268,1.477695345878601
1776444115488927700,33.707927734375,0.11705099046230316,-0.7462416887283325,1.5397512912750244
1776444115528955600,33.74795556640625,-0.05127570405602455,-0.8128976821899414,1.4552994966506958
1776444115568983800,33.78798388671875,-0.2654649615287781,-0.6497843861579895,1.3612757921218872
1776444115609010700,33.8280107421875,-0.16717994213104248,-0.4550977349281311,1.2184110879898071
1776444115649038800,33.86803881835937,-0.36893171072006226,-0.30866408348083496,0.9193181395530701
1776444115689065700,33.908065673828126,-0.13336844742298126,-0.10272397845983505,0.86844402551651
1776444115729094000,33.94809399414063,-0.09549323469400406,-0.007148989476263523,0.9240313768386841
1776444115769120800,33.98812084960937,0.0062368568032979965,0.10228748619556427,0.7656574845314026
1776444115809148700,34.02814868164062,0.25256460905075073,0.11651143431663513,0.9406202435493469
1776444115849175800,34.06817578125,0.5328159928321838,0.06714920699596405,1.4612677097320557
1776444115889203700,34.10820361328125,0.6252366900444031,0.14178402721881866,1.748970627784729
1776444115929232000,34.14823193359375,0.8786729574203491,0.16354019939899445,2.034893751144409
1776444115969258800,34.1882587890625,0.9339599609375,0.05473781377077103,2.303335666656494
1776444116009283000,34.22828295898437,0.6857479810714722,0.019634421914815903,2.238067388534546
1776444116049310000,34.26831005859375,0.08280060440301895,-0.1269180029630661,2.064199686050415
1776444116089338000,34.30833813476563,-0.4100562334060669,-0.1610967367887497,1.8389712572097778
1776444116129365000,34.34836499023437,-0.12500318884849548,-0.40754619240760803,1.55979323387146
1776444116169393200,34.38839306640625,-0.17453372478485107,-0.01781335100531578,1.7904788255691528
1776444116209420000,34.428419921875,-0.24373942613601685,0.28607091307640076,2.0023882389068604
1776444116249448000,34.46844799804688,0.1525256186723709,0.31986987590789795,2.0754847526550293
1776444116289475000,34.50847509765625,0.43152955174446106,0.3857745826244354,2.0360498428344727
1776444116329503000,34.5485029296875,0.5280033946037292,0.3749006390571594,1.9794232845306396
1776444116369531000,34.58853076171875,0.46456819772720337,0.3370928168296814,1.8233790397644043
1776444116409558000,34.62855810546875,0.4064066410064697,0.13437192142009735,1.6430457830429077
1776444116449586000,34.6685859375,0.44142454862594604,-0.19773225486278534,1.6357649564743042
1776444116489613000,34.70861303710937,0.06801154464483261,-0.34567591547966003,1.4192078113555908
1776444116529641200,34.74864111328125,-0.03856656700372696,-0.26443272829055786,1.6031372547149658
1776444116569668000,34.78866821289063,-0.27638205885887146,-0.41901618242263794,1.755423903465271
1776444116609696300,34.8286962890625,-0.33525151014328003,-0.31115761399269104,1.6857404708862305
1776444116649723100,34.86872314453125,-0.35183820128440857,-0.1699666678905487,1.5739670991897583
1776444116689751000,34.9087509765625,-0.21331334114074707,-0.043296609073877335,1.2845877408981323
1776444116729778200,34.94877807617188,-0.06409669667482376,0.22010360658168793,1.093858003616333
1776444116769806000,34.98880615234375,0.1347343772649765,0.4303114414215088,0.9631279110908508
1776444116809834000,35.028833984375,0.4078223705291748,0.459358274936676,0.9716354012489319
1776444116849861000,35.06886108398437,0.3136298358440399,0.4006110727787018,1.058050513267517
1776444116889889000,35.10888891601562,0.006754841655492783,0.28167828917503357,1.1082746982574463
1776444116929916200,35.14891625976563,-0.12725968658924103,0.1001734733581543,0.8552818894386292
1776444116969944000,35.18894409179688,0.2508482038974762,0.14658278226852417,0.874557614326477
1776444117009971500,35.228971435546875,0.41753625869750977,-0.011566374450922012,0.8371622562408447
1776444117049999400,35.268999267578124,0.4448131322860718,0.009520800784230232,0.7419406771659851
1776444117090026500,35.30902661132812,0.3288159668445587,-0.2849918007850647,0.7204819917678833
1776444117130054400,35.34905444335938,-0.2350734919309616,-0.4287910461425781,0.8852560520172119
1776444117170081300,35.389081298828124,-0.32320868968963623,-0.3785414397716522,1.100669026374817
1776444117210109400,35.429109375,-0.1971634030342102,-0.19476309418678284,1.3544429540634155
1776444117250136300,35.46913623046875,0.061646051704883575,0.09404847025871277,1.4640495777130127
1776444117290164500,35.50916455078125,-0.11929842829704285,-0.10022460669279099,1.6463121175765991
1776444117330192400,35.5491923828125,-0.4838431179523468,-0.09266974776983261,1.7709592580795288
1776444117370219500,35.589219482421875,0.04164518043398857,-0.06955031305551529,1.662834644317627
1776444117410247400,35.629247314453124,-0.5377073884010315,-0.08261711895465851,1.6005901098251343
1776444117450274600,35.66927465820312,-0.1874718964099884,0.40718746185302734,1.7040244340896606
1776444117490302200,35.70930224609375,0.5761647820472717,0.8557484745979309,1.6058179140090942
1776444117530329300,35.749329345703124,0.5669600963592529,1.0554440021514893,1.3084759712219238
1776444117570357200,35.789357177734374,0.6007944941520691,1.1633055210113525,1.1900482177734375
1776444117610384400,35.82938427734375,0.6155763864517212,1.2135082483291626,1.2646840810775757
1776444117650412300,35.86941235351563,0.5991553068161011,0.8605768084526062,1.387521505355835
1776444117690439400,35.909439453125,0.24470801651477814,0.2727460563182831,1.4721728563308716
1776444117730467300,35.94946728515625,0.4826987385749817,-0.0694081038236618,1.543574333190918
1776444117770494500,35.98949438476563,0.5478814840316772,-0.2868621349334717,1.5031328201293945
1776444117810522400,36.0295224609375,0.7520934343338013,-0.3712843358516693,1.4399319887161255
1776444117850549500,36.069549560546875,0.9343258738517761,-0.3742614686489105,1.3672593832015991
1776444117890577400,36.109577392578124,0.8817151188850403,-0.39653509855270386,1.3169370889663696
1776444117930604500,36.1496044921875,0.9387711882591248,-0.2686788737773895,1.2701044082641602
