timestamp,orient_x,orient_y,orient_z,orient_w,gyro_x,gyro_y,gyro_z,accel_x,accel_y,accel_z,mag_x,mag_y,mag_z
1776438797.126116,-0.11931186322622164,0.3212790100257193,0.9211920640888496,0.18425432985443269,-0.68967,-0.190079,0.050766,3.534,-6.106,-5.354,-1.057e-05,5.363e-05,6.135000000000001e-05
1776438797.1499865,-0.1162462496452449,0.3116549968924423,0.9244721910710382,0.1863038923149518,-0.789961,-0.559031,-0.28515,3.759,-7.358,-7.457,-1.002e-05,5.303e-05,6.286e-05
1776438797.1760361,-0.11580208959926691,0.3011702346989451,0.9265532891777899,0.19335296245375844,-0.64774,-0.134104,-0.713807,3.585,-5.537,-10.566,-1.0150000000000001e-05,5.232e-05,6.339e-05
1776438797.2010694,-0.12243042626452842,0.29486223858478045,0.9267019849743517,0.19821826864861378,-0.465141,0.521061,-0.514617,3.471,-4.924,-9.916,-1.084e-05,5.104e-05,6.297e-05
1776438797.226161,-0.13312272773550898,0.29355393163758775,0.924957727429797,0.2013892525639776,-0.084705,0.703436,-0.534457,3.322,-4.721,-6.593,-1.239e-05,5.130000000000001e-05,6.315e-05
1776438797.2502115,-0.13967234332699247,0.29236684091141046,0.923205200060294,0.2066529105206633,-0.027774,0.181635,-0.603162,3.152,-3.656,-6.921,-1.397e-05,4.991e-05,6.429000000000001e-05
1776438797.2763968,-0.14330824867739508,0.2920319590994274,0.9217609783260889,0.21103738901175734,0.073735,0.284553,-0.313338,3.293,-3.138,-8.828,-1.473e-05,5.0639999999999996e-05,6.277000000000001e-05
1776438797.3004262,-0.1492569588385032,0.2946246183439495,0.9198535237737427,0.21163220290161894,0.118793,0.552492,-0.128864,3.658,-4.379,-6.977,-1.584e-05,5.0770000000000003e-05,6.338e-05
1776438797.3263397,-0.15437505431164045,0.29450636756929055,0.9188402359173717,0.21252520539156974,-0.31483,0.132367,-0.309226,4.001,-5.353,-4.844,-1.6610000000000002e-05,5.091e-05,6.254e-05
1776438797.3514674,-0.1541790760697639,0.2831788733525904,0.9213809774102348,0.2170152820784562,-1.175482,-0.666282,-0.50365,3.833,-4.509,-4.723,-1.6530000000000003e-05,4.949e-05,6.323e-05
1776438797.376588,-0.1475302128465663,0.2577660867072553,0.9284582257453851,0.22306233184203472,-1.974757,-1.374314,-0.516184,3.158,-3.242,-6.277,-1.4920000000000001e-05,4.638e-05,6.508000000000001e-05
1776438797.4009633,-0.13723907704228602,0.23275445889347154,0.9353846932523929,0.22813652322001257,-1.721504,-1.381598,-0.148307,3.418,-2.195,-8.34,-1.3660000000000001e-05,4.269e-05,6.866e-05
1776438797.4271328,-0.12793308696067124,0.21383716710326273,0.9408607224180382,0.22953843302804885,-1.169833,-0.910645,0.007553,3.131,-3.313,-9.797,-1.1380000000000001e-05,4.0400000000000006e-05,7.081e-05
1776438797.4518037,-0.12337918022876444,0.19710010855827298,0.9449313247466623,0.2302909390421446,-1.397573,-0.662369,-0.159426,3.169,-4.232,-8.138,-9.760000000000001e-06,3.8240000000000007e-05,7.105e-05
1776438797.4786077,-0.1182809707431603,0.17612719509700506,0.9487814572274907,0.23409948639114153,-1.393877,-0.984902,-0.507028,2.841,-4.154,-8.037,-9.01e-06,3.681e-05,7.284000000000001e-05
1776438797.5027466,-0.11053859657556482,0.16207384286604942,0.9498909289603606,0.24335264782730157,-0.627056,-0.866031,-0.631586,2.717,0.102,-11.443,-7.3899999999999995e-06,3.465e-05,7.295000000000001e-05
1776438797.5267997,-0.10743648585777256,0.15571064124366554,0.9508552904603196,0.24512407942436115,-0.300545,-0.087193,0.142831,2.443,-0.649,-11.609,-6.840000000000001e-06,3.405e-05,7.299e-05
1776438797.5513794,-0.10869192334987574,0.1541304378242219,0.9514602057884405,0.24321461867173433,-0.200268,0.070339,0.038798,2.423,-2.71,-8.725,-7.2e-06,3.287e-05,7.445000000000001e-05
1776438797.5775387,-0.10798207359660202,0.14850548202050168,0.9523581273350391,0.2435158945336704,-0.593798,-0.373089,-0.022342,2.715,-1.795,-7.74,-6.550000000000001e-06,3.227e-05,7.383e-05
1776438797.6016574,-0.10397120671147624,0.13765752768836498,0.9545147326648428,0.24319132051010794,-0.797872,-0.563466,-0.032802,2.477,-2.603,-9.548,-5.580000000000001e-06,3.071e-05,7.563e-05
1776438797.6274457,-0.10165784619417782,0.12925100585923777,0.9556745460295225,0.2442253505736089,-0.482714,-0.175505,-0.096418,2.47,-1.74,-10.784,-4.81e-06,3.046e-05,7.54e-05
1776438797.652425,-0.10300667367153482,0.12566059000003293,0.9559648605413512,0.244397681474527,-0.188056,0.106211,-0.026018,2.577,-1.705,-9.366,-5.2600000000000005e-06,3e-05,7.539000000000001e-05
1776438797.6774695,-0.1042777083474996,0.12208217003285086,0.9563228496450984,0.24427179646562241,-0.347244,-0.076975,-0.057975,2.59,-2.047,-8.115,-5.1600000000000006e-06,2.9170000000000004e-05,7.527e-05
1776438797.7017314,-0.10261542801865793,0.11772406651374706,0.9568636565227315,0.24499604266592206,-0.346782,-0.301948,-0.054148,2.535,-1.527,-8.995,-4.84e-06,2.869e-05,7.569e-05
1776438797.7264192,-0.10047409964303028,0.11184072027918288,0.9578447291946126,0.24480621589832077,-0.455154,-0.247959,0.006589,2.447,-2.182,-9.955,-4.09e-06,2.7260000000000003e-05,7.615e-05
1776438797.7516809,-0.1003115465968887,0.10580597979388619,0.9583385662177902,0.24562141754909367,-0.445804,-0.07104,-0.169603,2.34,-2.053,-9.843,-4.12e-06,2.607e-05,7.683000000000001e-05
1776438797.7776353,-0.10106504678491204,0.0996719746229771,0.95853943841479,0.24709006211618312,-0.622991,-0.155345,-0.119676,2.59,-1.447,-8.595,-4.12e-06,2.607e-05,7.643e-05
1776438797.8015604,-0.09984050473045071,0.0895518600756019,0.9594468771045366,0.24793956518982777,-0.834563,-0.372072,-0.165778,2.558,-2.614,-8.841,-3.36e-06,2.488e-05,7.701000000000001e-05
1776438797.826525,-0.09790373419229138,0.07569365752907897,0.9597603001777233,0.25208231838794687,-1.048345,-0.530894,-0.632928,2.182,-2.426,-8.579,-2.51e-06,2.309e-05,7.681e-05
1776438797.851232,-0.09475349648150312,0.05842640270891568,0.95927285471057,0.2596222651978429,-1.253064,-0.684058,-0.650743,2.08,0.271,-8.856,-2.02e-06,2e-05,7.821000000000001e-05
1776438797.8764997,-0.08978723768209654,0.03966004246987187,0.9593913120914567,0.26444969892994774,-1.304596,-0.88339,-0.437304,1.734,0.157,-9.26,-6.2e-07,1.773e-05,7.831e-05
1776438797.9017787,-0.0837269129369577,0.026346530752016286,0.9592449069668603,0.26859797621262843,-0.681956,-0.598766,-0.299691,1.498,1.24,-11.123,6.7e-07,1.546e-05,7.947e-05
1776438797.9265594,-0.08146289826644937,0.02077179255219724,0.9591199928102322,0.27022429245332313,-0.11927,-0.106505,-0.090545,1.314,1.118,-10.733,1.23e-06,1.592e-05,7.963000000000001e-05
1776438797.951523,-0.08160177898346971,0.019863128416367018,0.9591172199685021,0.2702605486491507,-0.016756,-0.007646,0.013965,1.38,0.663,-9.246,1.67e-06,1.58e-05,7.805e-05
1776438797.9765215,-0.0804154119169419,0.018356807717110218,0.9594209150203286,0.2696440189550311,-0.118497,-0.175222,0.06538,1.266,0.37,-9.348,1.8900000000000001e-06,1.5320000000000002e-05,7.807e-05
1776438798.0016184,-0.07799828412375731,0.01620779961053656,0.9598277226931913,0.26904333787539936,-0.110251,-0.267293,0.03197,1.469,0.094,-9.473,2.1000000000000002e-06,1.508e-05,7.955e-05
1776438798.0265365,-0.07461911031353637,0.014858157599952097,0.9600434494611572,0.2693098562538582,0.083433,-0.295225,-0.052193,1.352,0.24,-9.621,2.87e-06,1.4710000000000001e-05,7.959000000000002e-05
1776438798.0515196,-0.0701928600785946,0.016142484054649128,0.9601557734865716,0.27002457896076026,0.236998,-0.313046,0.001576,1.51,0.559,-9.853,3.5600000000000002e-06,1.5640000000000003e-05,7.922e-05
1776438798.0766876,-0.06657283050388259,0.016371548718059736,0.9605670104903137,0.2694643742482021,0.113353,-0.210449,0.048331,1.204,-0.161,-10.09,4.000000000000001e-06,1.552e-05,7.964e-05
1776438798.1018133,-0.064113715126352,0.01823856828479062,0.960652352777888,0.2696365020948135,0.170909,-0.160354,0.017864,1.424,0.34,-9.523,4.23e-06,1.5870000000000002e-05,7.858000000000001e-05
1776438798.1271212,-0.062165577502103664,0.018484496474655047,0.961269596007538,0.26787035699273076,0.018387,-0.100127,0.226045,1.329,-0.202,-10.211,4.68e-06,1.657e-05,7.82e-05
1776438798.1518633,-0.06170142208980725,0.01915736809477883,0.9617475494388653,0.26620965592576484,0.124437,0.036641,0.024314,1.144,-1.153,-9.961,5e-06,1.55e-05,7.929000000000001e-05
1776438798.1767035,-0.061609651859342245,0.02077653186943536,0.9613368549544532,0.26758930813380716,0.05151,-0.020643,-0.102419,1.338,0.557,-9.292,4.780000000000001e-06,1.5740000000000002e-05,7.915e-05
1776438798.2016385,-0.06043926065243239,0.01881822511333452,0.9617523524870829,0.266505877347824,-0.181544,-0.172384,0.190561,1.254,0.306,-9.843,4.89e-06,1.5740000000000002e-05,7.982e-05
1776438798.2265513,-0.059111178592381054,0.01755408203864307,0.9624340073322797,0.2644210738566987,-0.024952,-0.088099,0.101776,1.205,-0.919,-10.343,5.240000000000001e-06,1.644e-05,7.863e-05
1776438798.2516217,-0.05922470264384744,0.01740339251341673,0.9624007245386497,0.26452675088401556,-0.058402,0.06915,-0.053215,1.301,-0.699,-10.12,5.45e-06,1.596e-05,7.851e-05
1776438798.2770476,-0.06076211254689925,0.0170333423256891,0.9618828736045758,0.2660811312255299,-0.030115,0.103148,-0.190728,1.05,-0.021,-9.269,5.23e-06,1.597e-05,7.837e-05
1776438798.3016968,-0.06094185352419002,0.01602909942294432,0.9614880692865946,0.2675254213719922,-0.164963,-0.120115,-0.007561,1.282,1.073,-8.854,4.880000000000001e-06,1.514e-05,7.942000000000001e-05
1776438798.3269672,-0.05907574532493269,0.012539913998282916,0.962167324973771,0.26568185038507397,-0.25052,-0.22938,0.196706,1.234,-0.11,-10.226,5.42e-06,1.4660000000000002e-05,7.866e-05
1776438798.3520453,-0.05844205376881873,0.01032359127429321,0.9626008910720125,0.2643434779256925,-0.086205,0.009453,-0.015604,1.123,-1.054,-10.519,5.86e-06,1.4060000000000001e-05,7.922e-05
1776438798.3773787,-0.05974389485226772,0.008494404919303068,0.962121504068923,0.2658584652048926,-0.177288,0.071513,-0.1823,1.081,0.153,-9.721,5.54e-06,1.4779999999999999e-05,7.920000000000001e-05
1776438798.4022121,-0.06032808354626652,0.00448373207819317,0.9617699652883047,0.2670935273487898,-0.384869,-0.123325,-0.041547,1.253,1.136,-9.33,5.64e-06,1.4180000000000001e-05,7.841e-05
1776438798.426747,-0.05984714661239959,-0.0012171649198121151,0.9621840556686211,0.26574175541114375,-0.3678,-0.13402,0.171893,1.067,0.44,-10.287,5.83e-06,1.3000000000000001e-05,7.83e-05
1776438798.4517856,-0.06030942889053369,-0.002412476167169551,0.9624728491583737,0.26458073886547956,-0.002551,0.107218,0.011896,0.995,-0.115,-10.64,5.82e-06,1.2410000000000001e-05,7.937e-05
1776438798.4767551,-0.06323879239869803,-0.000504907350602081,0.9622539328990822,0.26470354894630727,0.136197,0.361648,0.000888,1.145,0.373,-10.051,5.600000000000001e-06,1.2410000000000001e-05,7.896e-05
1776438798.5017362,-0.06681126964364863,0.0012051154797204228,0.9620855771547131,0.2644355198837079,-0.069457,0.216045,0.047168,1.432,0.252,-8.808,4.83e-06,1.29e-05,7.972e-05
1776438798.528637,-0.0682714483146201,-0.002029639524078579,0.9623615797348323,0.263049576617611,-0.265853,-0.002216,0.059535,1.469,-1.212,-10.129,4.83e-06,1.278e-05,7.918e-05
1776438798.5519228,-0.07052529575979843,-0.0021914701262367026,0.9614814590710681,0.2656591500009902,0.181978,0.364936,-0.403974,1.394,-0.671,-10.969,4.49e-06,1.243e-05,7.864e-05
1776438798.5767484,-0.07538364831404085,0.003424938413152577,0.9595913606770172,0.2710903832262622,0.433191,0.511868,-0.365276,1.553,1.332,-9.151,3.52e-06,1.387e-05,7.884e-05
1776438798.6018593,-0.07842647975110835,0.007462537006537335,0.9586800461046372,0.27336087323551994,0.125874,0.180846,-0.056502,1.545,1.32,-8.468,2.3e-06,1.3660000000000001e-05,8.011e-05
1776438798.6267822,-0.07936212089250616,0.006934898386919382,0.9586627971486958,0.27316515574802946,-0.12752,0.010704,0.006261,1.231,0.396,-8.858,2.52e-06,1.377e-05,7.838e-05
1776438798.6516206,-0.0785987822345993,0.0032956390976425845,0.9586703387319988,0.27342741601684883,-0.460816,-0.307518,-0.033314,1.475,0.661,-8.256,2.6100000000000004e-06,1.27e-05,7.960000000000001e-05
1776438798.6769567,-0.07433454026471997,-0.00964829664135759,0.9595093880128196,0.27151983502281635,-1.135502,-0.772736,0.069625,1.336,-1.295,-10.171,3.82e-06,1.197e-05,7.981000000000001e-05
1776438798.7017837,-0.0697741182949788,-0.021893784605771766,0.9589909795098026,0.2738403473387801,-0.600109,-0.382019,-0.453917,0.85,-0.703,-12.196,5.13e-06,1.076e-05,7.896e-05
1776438798.7266688,-0.06960310388743195,-0.027150911921941915,0.957338182944421,0.2791448358607351,-0.241933,-0.003743,-0.442735,0.54,1.203,-11.604,5.66e-06,9.810000000000001e-06,7.833e-05
1776438798.7518358,-0.06937028194490072,-0.033333285120118135,0.9562714850436028,0.2821728246633408,-0.762998,-0.327582,-0.183678,0.79,1.688,-11.18,5.31e-06,8.75e-06,7.966e-05
1776438798.7774127,-0.06662584638087544,-0.048855639246941654,0.9557956281958819,0.2821858257061193,-1.330136,-0.662346,-0.098799,0.648,0.616,-12.68,6.6e-06,6.72e-06,7.908e-05
1776438798.8016613,-0.06443290935462681,-0.06704216423937412,0.954600915984602,0.28300325017136824,-1.372579,-0.442931,-0.294635,-0.008,0.299,-13.56,7.54e-06,3.98e-06,7.943e-05
1776438798.8268554,-0.06569916449519211,-0.08317514668025097,0.9525426901698556,0.28535580975919705,-1.258436,-0.098303,-0.235814,-0.111,1.221,-13.605,7.97e-06,2.91e-06,7.786e-05
1776438798.8523984,-0.07167087758020846,-0.09660144090515321,0.9505674337350586,0.2862743454176011,-1.061575,0.356282,-0.172947,-0.351,-0.147,-12.744,8.15e-06,1.01e-06,7.669000000000001e-05
1776438798.8768775,-0.08096716044038288,-0.10483375860578169,0.947263815144805,0.2917969610947223,-0.644865,0.701137,-0.665199,-0.107,0.58,-10.482,6.800000000000001e-06,-3e-08,7.717000000000001e-05
1776438798.9017544,-0.09000045049885139,-0.10861123202812147,0.9432450980836998,0.3006529629463325,-0.378627,0.640543,-0.657292,0.577,3.615,-8.724,5.3400000000000005e-06,-1.06e-06,7.844e-05
1776438798.9266145,-0.09720183356600917,-0.11295704411394095,0.9409621365681313,0.3039453360089348,-0.611688,0.354864,0.004725,1.798,3.812,-8.465,4.45e-06,-1.28e-06,7.733e-05
1776438798.9518394,-0.1028669588195096,-0.11777738368415772,0.9400477626816924,0.3030793304613243,-0.261534,0.365146,-0.084651,2.087,1.344,-9.469,3.55e-06,-1.86e-06,7.596000000000001e-05
1776438798.9767416,-0.10726141076866086,-0.11519635622830854,0.9383298929635204,0.30783404821868743,0.189246,0.476136,-0.352479,2.972,3.935,-9.363,2.68e-06,-7.8e-07,7.683000000000001e-05
1776438799.00203,-0.11180180980873985,-0.11069881433832297,0.9378001659744171,0.3094785558418154,0.299441,0.43992,0.136927,3.214,4.145,-9.496,1.8100000000000002e-06,1.9e-07,7.557000000000001e-05
1776438799.0268939,-0.11521364933222186,-0.10378395308874777,0.9389061506666669,0.30726201576037065,0.407573,0.399182,0.356822,3.467,2.503,-10.956,9.5e-07,1.3800000000000001e-06,7.565e-05
1776438799.051647,-0.12147139075521543,-0.09917780271213114,0.9391362922080496,0.3056656495828473,0.096349,0.74439,0.013994,2.918,0.093,-11.338,-4.8e-07,1.8800000000000002e-06,7.61e-05
1776438799.076691,-0.13054336726223245,-0.09234737741926217,0.9361842136556894,0.3130327606649195,0.475865,0.964634,-0.757635,1.954,3.006,-8.459,-1.91e-06,2.74e-06,7.522e-05
1776438799.1018183,-0.1369671689301092,-0.08270474156892857,0.9330411916441419,0.32223292049783986,0.669947,0.677415,-0.342697,1.318,8.184,-6.565,-3.88e-06,4.2000000000000004e-06,7.443e-05
1776438799.1267483,-0.13835521106551363,-0.08417036503014008,0.9354124068389269,0.31428778906205707,-0.88874,-0.409137,1.257226,1.54,5.016,-8.853,-4.09e-06,4.79e-06,7.401e-05
1776438799.1520097,-0.1400376280666294,-0.08837666370911648,0.9391538876910633,0.30094684459532,-0.112864,0.287558,0.72462,0.884,-0.189,-12.194,-3.55e-06,3.72e-06,7.325e-05
1776438799.1767335,-0.14972589255762184,-0.08108507116038413,0.9389013269528073,0.2991181481939816,0.514416,1.186924,0.023357,1.383,-0.06,-8.884,-5.42e-06,4.58e-06,7.275e-05
1776438799.2020354,-0.15915994028271008,-0.07187804817278606,0.9367090759932664,0.30344318504773865,0.270522,0.606401,-0.248573,2.056,2.415,-4.367,-7.630000000000001e-06,5.330000000000001e-06,7.302e-05
1776438799.2267375,-0.15877243549994713,-0.07702351485714151,0.936883897361373,0.3018397832450712,-0.952502,-0.624161,0.320654,2.314,2.378,-6.153,-7.2e-06,4.610000000000001e-06,7.252e-05
1776438799.2518823,-0.15368358533837173,-0.09220855233631198,0.9378727029970835,0.2971089555138477,-0.894486,-0.716926,-0.155894,1.249,-0.614,-10.306,-5.7900000000000005e-06,2.81e-06,7.288000000000001e-05
1776438799.2776098,-0.15030884632529404,-0.09844911637440937,0.9357267340443195,0.3035300667087339,0.026064,-0.018394,-0.803839,0.631,3.521,-12.033,-5.21e-06,3.98e-06,7.223e-05
1776438799.3018346,-0.1541933428819787,-0.09536799521641434,0.9335641952387903,0.3091718807838649,0.169785,0.694823,-0.011626,0.758,6.257,-10.732,-5.66e-06,3.7600000000000004e-06,7.114e-05
1776438799.3267927,-0.16410272190392255,-0.08944053192869084,0.933529111325727,0.3059315057646649,0.155818,0.901179,0.564544,1.185,3.745,-7.663,-7.2100000000000004e-06,3.7900000000000006e-06,6.973000000000001e-05
1776438799.352169,-0.17431863208147186,-0.08252122227531433,0.9344450712024959,0.2993587668480662,0.319826,0.885531,0.708868,1.76,1.332,-5.731,-8.87e-06,4.2900000000000004e-06,7.137e-05
1776438799.377749,-0.18245233142879203,-0.07261627611209709,0.9353372274533541,0.29424869437209444,0.430783,0.632697,0.498668,2.166,-0.241,-3.031,-9.96e-06,5.02e-06,7.01e-05
1776438799.4019384,-0.18424842383853315,-0.07009457338452367,0.9363679194336318,0.29043826977619397,-0.172514,-0.187251,0.266164,2.438,-0.968,-2.151,-1.084e-05,5.390000000000001e-06,7.045e-05
1776438799.426719,-0.17858242038874472,-0.07831172386998023,0.937730700461429,0.28746604398559333,-0.883027,-0.979643,0.017719,2.715,-1.799,-2.732,-9.62e-06,5.600000000000001e-06,7.078e-05
1776438799.4517481,-0.16818920835743367,-0.09897451772286188,0.9384324797096149,0.28506300366706594,-1.451501,-1.354323,-0.355914,2.118,-3.5,-4.98,-7.2100000000000004e-06,4.0200000000000005e-06,7.012000000000001e-05
1776438799.4768188,-0.15568419715584914,-0.11878549064564284,0.9360053368442096,0.2924832428826829,-0.88858,-1.223552,-1.361076,0.991,-1.389,-6.254,-4.7e-06,1.73e-06,6.988e-05
1776438799.5019746,-0.14329077498408038,-0.13175118741906833,0.9321700927398989,0.3052348220950801,-0.389686,-0.952717,-1.15682,0.424,2.622,-6.884,-2.8400000000000003e-06,5.100000000000001e-07,7.133000000000001e-05
1776438799.5268583,-0.1332594926496591,-0.1411703140644094,0.9301107322330865,0.31178017228576776,-0.554718,-0.946008,-0.525154,0.224,1.617,-5.62,-8.6e-07,-3.5000000000000004e-07,7.104000000000001e-05
1776438799.5517879,-0.12050834786187156,-0.15850156812102023,0.9279341744200836,0.31510817022428567,-1.157332,-1.589637,-0.81462,-0.376,-0.82,-5.643,1.7800000000000001e-06,-1.5900000000000002e-06,7.239e-05
1776438799.5775454,-0.10083458089443426,-0.18043531466300647,0.9237454567710642,0.3224435076305977,-1.046918,-2.0053,-1.278907,-0.486,-0.374,-8.47,5.76e-06,-2.25e-06,7.127e-05
1776438799.6025755,-0.0797984572949185,-0.2012027272688728,0.9175352860860733,0.33358457329418933,-0.947481,-1.701679,-1.66033,-1.129,-1.362,-10.812,9.52e-06,-3.0300000000000002e-06,7.174e-05
1776438799.6268303,-0.06213848645380042,-0.22264444045485185,0.9058800976679263,0.3548936605307641,-1.292507,-1.359231,-2.69959,-1.991,0.022,-9.958,1.2839999999999999e-05,-3.4500000000000004e-06,7.192e-05
1776438799.6518147,-0.042968408177039105,-0.24841339249625416,0.8883455682641213,0.3837794336239621,-1.537679,-1.66979,-3.230243,-2.383,3.837,-9.804,1.6380000000000002e-05,-3.52e-06,7.237e-05
1776438799.6769357,-0.01862685759072409,-0.27267908879258956,0.868219804459538,0.4141177680995825,-0.896351,-1.726085,-3.34037,-3.258,8.013,-13.633,2.095e-05,-2.77e-06,7.033000000000001e-05
1776438799.7018034,-0.0008201695575715817,-0.2846835581048105,0.851335854876935,0.4406607099205014,-0.454505,-0.467712,-2.400627,-3.229,10.023,-15.588,2.319e-05,-1.7500000000000002e-06,7.123000000000001e-05
1776438799.7267911,0.0017808270353178446,-0.2902660705833211,0.8376179363736657,0.46275115298431235,-0.677086,0.422162,-1.932354,-3.57,8.987,-13.576,2.334e-05,4.9e-07,7.175000000000001e-05
1776438799.7519033,0.0025431105109683244,-0.2887072475943681,0.824891834190054,0.48599909430160626,0.238317,0.541808,-2.160823,-4.573,10.501,-12.48,2.259e-05,1.93e-06,7.129e-05
1776438799.776885,0.006464497019607718,-0.28021462987152157,0.8141430181585775,0.5085362499054435,0.543297,0.751293,-1.697742,-4.641,13.761,-14.408,2.144e-05,5.2600000000000005e-06,7.119e-05
1776438799.801805,-0.00026811872328395825,-0.26774721462804385,0.8103780389593275,0.5211514090393589,0.4715,1.540481,-0.283215,-4.15,12.898,-13.423,1.846e-05,6.26e-06,7.289e-05
1776438799.826921,-0.013552425738626792,-0.2531233520796869,0.8121519439903598,0.5255036824430648,0.328535,1.436287,0.16633,-3.412,9.102,-10.803,1.527e-05,7.620000000000001e-06,7.325e-05
1776438799.8521972,-0.024809106437267595,-0.24660167563903096,0.8125758166718391,0.5275345144821335,-0.350249,0.806006,0.076161,-2.902,7.612,-11.735,1.283e-05,7.430000000000001e-06,7.285000000000001e-05
1776438799.87698,-0.036067748305380565,-0.2451505847048111,0.8103508241833167,0.5309725511704803,-0.278878,1.066504,-0.209318,-3.067,8.16,-13.774,1.084e-05,7.820000000000001e-06,7.315e-05
1776438799.9019108,-0.048930386930054054,-0.23192362085096624,0.808832158830728,0.5381521998166288,0.540757,1.813795,-0.159246,-3.184,10.395,-12.494,8.069999999999999e-06,7.99e-06,7.207e-05
1776438799.9269123,-0.06535073083693729,-0.2109375090227644,0.8106786376757332,0.5422497539718818,0.671726,2.08989,0.519369,-2.68,10.961,-9.82,3.98e-06,9.13e-06,7.158e-05
1776438799.9519703,-0.08429939647633519,-0.19255837176149052,0.8166133271234574,0.5375477273532523,0.295729,1.763528,1.174973,-2.244,7.893,-7.798,-1.2e-07,9.09e-06,7.257e-05
1776438799.9768786,-0.09991267223772193,-0.1749725830742116,0.8236885066380484,0.5300370714686259,0.700144,1.504656,1.072696,-2.065,5.843,-6.818,-2.88e-06,9.62e-06,7.055000000000001e-05
1776438800.0020428,-0.11030847918069484,-0.15989910301690902,0.8300120278272981,0.5228234405009463,0.33924,0.997756,1.097119,-1.2,6.543,-8.14,-5.21e-06,9.900000000000002e-06,6.976000000000001e-05
1776438800.0269768,-0.12244109446034179,-0.14542801575876502,0.8369189186697775,0.5132500308742636,0.787915,1.485781,1.186877,-1.321,4.839,-8.942,-7.17e-06,1.147e-05,6.924000000000001e-05
1776438800.0519822,-0.13505297655513762,-0.12291360158850241,0.8424044204468952,0.5069593006146262,1.058077,1.62356,0.927604,-0.901,4.83,-6.761,-9.59e-06,1.27e-05,6.883e-05
1776438800.0770283,-0.14743464417517302,-0.10601648238291303,0.8473712414003173,0.4989844791251316,0.477718,1.317671,1.096936,-0.66,4.397,-6.761,-1.1890000000000001e-05,1.4280000000000002e-05,6.602000000000001e-05
1776438800.1022992,-0.15863543542129452,-0.08487727815314045,0.8527500128757349,0.49035503650155865,1.170637,1.537352,1.226724,0.439,3.452,-5.145,-1.422e-05,1.409e-05,6.671e-05
1776438800.1269827,-0.1646627220422566,-0.06271970079564926,0.8578205556328438,0.48280049858662955,1.114163,0.735638,0.73404,0.421,1.632,-4.07,-1.596e-05,1.601e-05,6.473e-05
1776438800.1519878,-0.1634251499769436,-0.045769518425259496,0.8598680668602109,0.48148133830109874,1.522373,0.692164,0.325518,0.133,5.755,-8.418,-1.6819999999999998e-05,1.757e-05,6.440000000000001e-05
1776438800.176887,-0.16405749362774327,-0.011304991576215215,0.863231783075287,0.4772716465899745,2.718457,1.653703,1.384114,1.095,6.633,-6.22,-1.861e-05,2.2090000000000004e-05,6.264999999999999e-05
1776438800.202195,-0.16273039861870697,0.033146560311283275,0.8701610875169868,0.46393944074219634,2.750409,0.993906,1.72743,1.785,0.398,-2.507,-1.9750000000000002e-05,2.637e-05,5.9730000000000006e-05
1776438800.2268806,-0.15483172932711167,0.06364618297301568,0.8745680592191744,0.4550901106156323,2.334032,0.592944,0.869449,1.279,0.213,-7.315,-1.969e-05,2.9680000000000004e-05,5.77e-05
1776438800.2519305,-0.1506989624223742,0.09828869908572115,0.8744459935277897,0.4505256471723371,2.712191,1.257174,0.772468,1.446,1.785,-6.605,-2.095e-05,3.302e-05,5.652000000000001e-05
1776438800.2775674,-0.14899344611647616,0.1384237655657645,0.8732236543415711,0.4428546755305666,2.817016,1.455453,1.177636,1.649,1.807,-3.321,-2.198e-05,3.694e-05,5.456e-05
1776438800.3018916,-0.14398804633952536,0.18408016326533883,0.8710333446876178,0.4320681062585328,3.47661,1.276853,1.207156,0.59,1.519,-0.07,-2.301e-05,4.133e-05,5.151e-05
1776438800.3269596,-0.12925032477106707,0.2230381572334583,0.870296088995788,0.41968208377665145,2.260117,-0.207021,2.005754,1.085,3.131,1.272,-2.2020000000000003e-05,4.64e-05,4.7770000000000005e-05
1776438800.3521993,-0.10394637073427111,0.24067289302434908,0.8796488970987173,0.39684950347389125,1.541884,-1.11148,2.706528,-0.138,-1.903,-1.618,-1.887e-05,4.8830000000000005e-05,4.657e-05
1776438800.3773093,-0.07483642844372546,0.2538867633105215,0.8883881521825421,0.3751099991404958,1.338571,-1.422465,2.243956,-0.444,-4.788,-2.54,-1.449e-05,5.135e-05,4.356e-05
1776438800.4020698,-0.04651608299047519,0.25565592353119937,0.895039077143863,0.3624656579209884,0.353872,-2.064661,1.309518,-1.309,-3.789,-2.838,-1.049e-05,5.198000000000001e-05,4.630000000000001e-05
1776438800.426911,-0.014809152219629973,0.23990629247747927,0.9031210946290005,0.3558060542997572,-0.673372,-2.863424,1.536186,-1.987,0.468,-7.215,-5.48e-06,5.2480000000000006e-05,4.682e-05
1776438800.4521625,0.01886307539646339,0.21767601849812784,0.914329922263266,0.34097232821951995,-0.959622,-2.686751,2.2018,-3.585,-1.294,-10.883,5.9e-07,5.118000000000001e-05,4.915e-05
1776438800.477664,0.04853756524449902,0.18988486215763128,0.9258798488681791,0.32300828061111864,-1.550333,-2.431463,2.057037,-4.058,-2.633,-13.79,6.78e-06,4.976e-05,5.109000000000001e-05
1776438800.502194,0.06923427285391762,0.16710493257496647,0.9353928765562358,0.30384654590657373,-0.861904,-1.247014,2.201651,-3.897,-1.608,-15.296,1.1390000000000001e-05,4.767e-05,5.1620000000000004e-05
1776438800.5270412,0.07876901063160907,0.15784479311873723,0.9444590586115884,0.27726801268075024,-0.430554,-0.29636,2.342714,-3.521,-4.591,-11.238,1.5129999999999999e-05,4.5820000000000005e-05,5.397e-05
1776438800.5520277,0.08447010009441963,0.14375831969496253,0.9522455065863167,0.2557867136789731,-1.179707,-0.588315,1.746665,-2.922,-3.696,-8.926,1.796e-05,4.305e-05,5.4810000000000005e-05
1776438800.5773203,0.09410221443939251,0.12161942786559111,0.9592489876703375,0.23705456683363285,-1.606008,-1.111125,2.003814,-3.052,-1.811,-10.214,2.165e-05,3.872e-05,5.5860000000000004e-05
1776438800.6019497,0.10580611192299065,0.10090946714880922,0.965705014535492,0.21456041345152232,-1.00249,-0.900171,2.086532,-3.617,-3.404,-12.298,2.512e-05,3.487e-05,5.848e-05
1776438800.627193,0.11498997948706151,0.08530528310245186,0.9707743021297098,0.19260728858729778,-1.007774,-0.744864,1.91872,-3.331,-4.011,-12.371,2.7950000000000005e-05,3.222e-05,5.88e-05
1776438800.6521616,0.12361384862174231,0.07095105488129774,0.9745226242880833,0.1731797303116602,-0.611632,-0.640471,1.674591,-3.426,-3.546,-13.959,3.0550000000000004e-05,2.8860000000000005e-05,5.857e-05
1776438800.6769633,0.12944358511708356,0.06167050302420137,0.97767082919807,0.15362570443756007,-0.424526,-0.291679,1.693775,-3.507,-3.726,-14.459,3.206e-05,2.6700000000000002e-05,5.841e-05
1776438800.7021248,0.1315435323347059,0.050232297992712914,0.9810179441824256,0.13332969860975002,-0.961586,-0.221499,1.846647,-2.737,-4.132,-13.618,3.287e-05,2.243e-05,6.05e-05
1776438800.7273107,0.13632919515169623,0.027135323753102684,0.9839227143927907,0.11213436964654439,-1.866435,-0.638418,1.984374,-3.309,-5.331,-15.615,3.4760000000000006e-05,1.743e-05,5.9730000000000006e-05
1776438800.7520015,0.14129608178918301,-0.0030968010548952894,0.9854945029314346,0.09394898501940034,-2.223064,-0.434464,1.586785,-3.994,-5.429,-18.203,3.5980000000000004e-05,1.1730000000000001e-05,5.9860000000000006e-05
1776438800.7770946,0.13686020104556457,-0.030559763842582507,0.9868167999903029,0.08079597428431418,-1.743323,0.603302,1.2891,-3.634,-3.883,-18.456,3.569e-05,7.95e-06,6.0150000000000005e-05
1776438800.8019807,0.12279012388988757,-0.04802930560753063,0.9888859589867338,0.06870466794077494,-1.175298,1.163125,1.142333,-3.526,-4.089,-16.733,3.373e-05,4.32e-06,6.009e-05
1776438800.827106,0.10573426565429936,-0.06481988224071442,0.9905286443989332,0.05892073113987602,-1.618011,1.249814,0.908792,-3.271,-4.479,-16.178,3.1790000000000006e-05,1.52e-06,6.056e-05
1776438800.8522284,0.08508224744695107,-0.0900405089453323,0.9909256879595759,0.05215360831315954,-2.205292,1.755995,0.907982,-2.746,-3.769,-16.069,2.8480000000000002e-05,-3.38e-06,6.125000000000001e-05
1776438800.8774161,0.056665936383385795,-0.11025943467547057,0.9911598608205789,0.047264775647095185,-1.364729,2.221354,0.458626,-2.096,-5.669,-11.506,2.488e-05,-6.040000000000001e-06,6.176e-05
1776438800.902074,0.03311625389500562,-0.12505656041336186,0.9902457120722489,0.0517455326387277,-1.499028,1.565083,-0.312205,-1.428,-3.053,-10.55,2.118e-05,-8.09e-06,6.306000000000001e-05
1776438800.927021,0.013461684694905173,-0.15016624958983413,0.9868839829293174,0.05769648834084523,-2.43488,1.616683,-0.078344,-1.387,-0.609,-12.637,1.881e-05,-9.820000000000001e-06,6.229e-05
1776438800.9520955,-0.012726459519322594,-0.1805084023820482,0.981698649169748,0.0593507886710466,-2.495815,2.16231,0.293491,-1.176,-1.847,-11.34,1.6080000000000002e-05,-1.32e-05,6.179e-05
1776438800.9770057,-0.043697158320021336,-0.20140885377581613,0.9763742479808883,0.06494890187849044,-1.534226,2.538073,-0.336775,-1.041,-3.119,-7.932,1.225e-05,-1.62e-05,6.123e-05
1776438801.0022464,-0.07253863562165212,-0.21898406118050373,0.9698739909994002,0.07828517659134616,-1.924724,2.189953,-0.763854,-0.06,-1.607,-4.58,8.13e-06,-1.743e-05,6.157000000000001e-05
1776438801.027104,-0.09408512913339764,-0.23911406393826992,0.9618790317782822,0.09360118123267036,-1.08916,1.699744,-1.23682,0.168,-0.907,-3.838,5.8700000000000005e-06,-1.916e-05,6.067000000000001e-05
1776438801.052054,-0.10901174653717954,-0.24792867160843524,0.9558776283393602,0.11377949090987602,-0.481108,1.386616,-1.364381,0.13,1.569,-3.248,4.080000000000001e-06,-1.995e-05,6.205e-05
1776438801.0778663,-0.1199358089848926,-0.25447505268821247,0.9507665049849525,0.13000347026587042,-0.706105,0.939107,-0.975352,0.21,1.517,-2.218,2.9700000000000004e-06,-1.993e-05,6.133e-05
1776438801.1022131,-0.12458624672332605,-0.26907765097267183,0.9444186011232868,0.141947140607895,-1.502298,0.215086,-1.131689,-0.448,0.439,-2.275,3.06e-06,-2.135e-05,6.0280000000000006e-05
1776438801.127368,-0.12161323602926427,-0.2919857402127153,0.935959710208685,0.1547060735750142,-1.853662,-0.324674,-1.571459,-1.269,0.744,-4.292,4.03e-06,-2.279e-05,5.902e-05
1776438801.1520424,-0.11573132093288149,-0.31157045217742674,0.9273614382722061,0.17184550471510632,-1.161452,-0.015374,-1.70676,-1.786,3.011,-6.678,5.2e-06,-2.5290000000000004e-05,5.9770000000000005e-05
1776438801.177328,-0.1140983102007878,-0.3264142289692735,0.9189067530182645,0.1898570672720654,-1.243352,0.316211,-1.641296,-2.309,2.759,-6.149,6.4100000000000005e-06,-2.5790000000000002e-05,5.9040000000000004e-05
1776438801.20205,-0.11561751989482116,-0.34450735939296423,0.9076019544631121,0.21025213595156805,-1.418358,0.571263,-1.976729,-2.551,2.161,-4.236,7.049999999999999e-06,-2.734e-05,5.8420000000000006e-05
1776438801.227203,-0.11434598570529314,-0.3601752361012096,0.8950679509195321,0.23675336975264602,-1.058277,0.373371,-2.462595,-2.272,4.072,-2.626,8.49e-06,-2.725e-05,5.877e-05
1776438801.2520938,-0.10654320347831985,-0.3765708995552465,0.8821532469958147,0.2620086872900803,-1.196833,-0.238709,-2.361205,-1.855,5.411,-3.99,1.06e-05,-2.7170000000000002e-05,5.741000000000001e-05
1776438801.2778323,-0.09700219830399547,-0.3908704042427412,0.8695975815706412,0.28567629712281056,-0.769843,0.003991,-2.363026,-2.793,5.66,-5.849,1.3130000000000001e-05,-2.828e-05,5.6750000000000004e-05
1776438801.302005,-0.08914025835124045,-0.3981464028697793,0.8581813836130796,0.31154160082221755,-0.430463,0.229246,-2.314136,-3.025,6.783,-5.309,1.4920000000000001e-05,-2.7600000000000003e-05,5.924000000000001e-05
1776438801.3271756,-0.0828344034112789,-0.402853314485449,0.8477794003167614,0.334839897590084,-0.21155,0.278314,-1.94174,-3.349,7.095,-4.57,1.659e-05,-2.728e-05,5.918e-05
1776438801.3523552,-0.07563552197856718,-0.40781434098388614,0.8384573313798768,0.3534912086010683,-0.576327,-0.162726,-1.716044,-2.84,6.134,-4.493,1.794e-05,-2.6240000000000003e-05,5.991e-05
1776438801.3778694,-0.06713594735369312,-0.41614441026180427,0.8277352758232803,0.37036591033535393,-0.413761,-0.097248,-1.838691,-3.204,5.76,-6.85,1.9520000000000003e-05,-2.485e-05,6.011e-05
1776438801.402214,-0.05847795746897552,-0.410865148783705,0.8207077575457774,0.39269445464557057,1.095133,0.640996,-1.987824,-3.628,6.59,-6.266,2.089e-05,-2.251e-05,6.082e-05
1776438801.4271865,-0.04940129838246286,-0.39814070409731284,0.8163787427263961,0.4154145398075172,0.879156,0.372225,-1.768077,-3.341,6.536,-3.743,2.162e-05,-1.9220000000000002e-05,6.175000000000001e-05
1776438801.4521067,-0.03722538149421445,-0.39555540286109797,0.8090168997771959,0.4331764653289686,0.180049,-0.380945,-1.806214,-3.625,6.679,-5.324,2.2550000000000003e-05,-1.7460000000000002e-05,6.431e-05
1776438801.477095,-0.022842175683217586,-0.3935652074935235,0.8019407004109982,0.44886053010367744,0.790755,-0.203589,-1.62536,-4.323,6.742,-8.302,2.471e-05,-1.4660000000000002e-05,6.439000000000001e-05
1776438801.5021935,-0.008569192041544438,-0.38448859640225364,0.7975513814672284,0.464765405451068,0.983882,-0.082195,-1.685831,-4.431,4.849,-8.958,2.5440000000000004e-05,-1.137e-05,6.612000000000001e-05
1776438801.5271964,0.006340539307799431,-0.3737497646259849,0.7908369671114769,0.4846109805330746,1.178499,0.266092,-2.201389,-5.171,5.108,-10.828,2.598e-05,-6.18e-06,6.716e-05
1776438801.5521593,0.02054485875038764,-0.35430465634756675,0.783146248184423,0.510615386787376,1.712433,0.802389,-2.429569,-5.895,7.315,-10.039,2.586e-05,-1.33e-06,6.723e-05
1776438801.5773385,0.034137752231105156,-0.3314579073126362,0.7763729557218014,0.534990937471215,1.614552,0.601136,-2.002928,-5.824,8.861,-8.868,2.453e-05,4.3700000000000005e-06,6.736e-05
1776438801.6020823,0.04796454438166964,-0.3142543855969067,0.7702512486222411,0.5528621868162518,1.70614,0.327627,-1.811836,-7.144,8.472,-12.341,2.3400000000000003e-05,9.48e-06,6.897e-05
1776438801.627215,0.06244952233120578,-0.2875630172317702,0.765809931513403,0.5717890494549557,2.252909,1.113486,-1.716866,-7.082,10.591,-14.811,2.196e-05,1.4950000000000001e-05,6.87e-05
1776438801.6520772,0.06795877053307595,-0.2517369762123693,0.7657473450591217,0.5879124967629047,2.530917,1.972059,-1.065724,-6.583,10.541,-13.61,1.774e-05,2.035e-05,6.922e-05
1776438801.6773102,0.06995955574125758,-0.2120831645540852,0.7685664102825623,0.5995265339070379,2.402844,1.882649,-0.643753,-5.757,10.923,-12.592,1.331e-05,2.646e-05,6.798e-05
1776438801.7021785,0.06850385753339015,-0.18212273916741445,0.7737012564798609,0.6029302572459665,1.379881,1.476781,0.230599,-5.266,10.103,-14.557,1.1040000000000001e-05,2.946e-05,6.676e-05
1776438801.7273142,0.057838474501885825,-0.16586949302625642,0.7808789335733722,0.5994748645705008,0.197395,1.550659,0.781096,-4.465,8.231,-17.625,8.720000000000001e-06,3.0330000000000003e-05,6.703e-05
1776438801.7522476,0.039283219392903114,-0.1391613376331721,0.7891317520034848,0.596960659308623,1.512147,3.17338,0.501207,-5.429,8.079,-18.179,4.84e-06,3.04e-05,6.696e-05
1776438801.7773192,0.016543810300210043,-0.08822781631598747,0.7988283905269035,0.5948238035393844,2.152287,4.015541,0.790933,-4.35,7.975,-12.525,-1.3e-06,3.4070000000000004e-05,6.487000000000001e-05
1776438801.802204,-0.006773711019599489,-0.04201099167573523,0.8079112586587662,0.5877657624852374,1.550092,3.319912,1.061847,-2.629,6.366,-9.924,-7.04e-06,3.536000000000001e-05,6.455999999999999e-05
1776438801.8271472,-0.02714702070435924,-0.009512908418259771,0.8156929112990605,0.5777695200482332,1.029249,2.625239,1.096859,-1.982,6.079,-11.843,-1.0539999999999999e-05,3.802e-05,5.954000000000001e-05
1776438801.8523772,-0.04794439509036864,0.016911594487578098,0.8229901175289431,0.565776103596646,0.426869,2.470755,1.335859,-1.956,6.931,-11.958,-1.309e-05,3.8190000000000005e-05,6.0070000000000006e-05
1776438801.877673,-0.07235744205073891,0.03701548727600573,0.8326930840237382,0.5477376033290298,0.199453,2.620532,1.870545,-1.967,6.694,-11.886,-1.541e-05,3.859e-05,5.915000000000001e-05
1776438801.9023209,-0.09705807477528695,0.06499119089419982,0.8434785599005752,0.5243088729128285,0.837716,3.012335,2.256239,-1.822,5.306,-9.061,-1.808e-05,3.7930000000000004e-05,5.915000000000001e-05
1776438801.927319,-0.12054209600460646,0.09342114006591326,0.8535880686970978,0.4981259907468791,0.435065,2.592325,2.279638,-0.768,4.333,-5.798,-2.007e-05,3.82e-05,5.571000000000001e-05
1776438801.952189,-0.139449888869306,0.11270441444537257,0.8641448834193238,0.47021810250038976,0.190771,1.86876,2.452989,-0.315,4.24,-4.594,-2.129e-05,3.858e-05,5.5910000000000005e-05
1776438801.977734,-0.1494084999286302,0.12844548365544034,0.8759501774856453,0.4403295861516268,0.358888,1.192799,2.718722,-0.501,4.883,-5.831,-2.1040000000000002e-05,3.9760000000000006e-05,5.537e-05
1776438802.0024047,-0.1546682481968182,0.14131981418993766,0.8898615640349457,0.4052811863019665,0.029288,0.990397,3.308365,-0.816,4.451,-6.949,-1.9800000000000004e-05,4.092e-05,5.3020000000000004e-05
1776438802.0272353,-0.1589120111236208,0.15909479163204202,0.9039216759348578,0.3638150955792261,0.859399,1.361776,3.630911,-1.085,1.732,-6.613,-1.79e-05,4.159e-05,5.2310000000000006e-05
1776438802.0524116,-0.1636146109934607,0.18836433823206938,0.913045359806283,0.3226411413444796,1.80606,1.695723,3.519834,-0.863,1.635,-3.682,-1.689e-05,4.2170000000000005e-05,5.155e-05
1776438802.0776253,-0.16472666890048712,0.21836381490709944,0.9207213316071635,0.27830666254277653,1.332459,1.162964,3.924808,-0.827,0.059,-1.68,-1.5070000000000001e-05,4.462e-05,5.082e-05
1776438802.1023378,-0.15802529264866663,0.23878250163522308,0.9292969787706424,0.23327676490358823,0.481998,0.264455,3.872638,-0.98,-1.803,-1.947,-1.1920000000000001e-05,4.657e-05,4.9090000000000006e-05
1776438802.127357,-0.14373595914576565,0.24108060898354972,0.9413397716513807,0.1873487345243996,-0.921102,-0.626712,3.957383,-0.846,-4.871,-4.622,-7.610000000000001e-06,4.601e-05,5.105e-05
1776438802.1522567,-0.12804513504163073,0.2348864035924686,0.9523712338862426,0.14636206361473023,-0.674584,-0.363553,2.922025,-1.244,-7.539,-7.652,-3.75e-06,4.4760000000000005e-05,5.207000000000001e-05
1776438802.177373,-0.12374304009948771,0.23484472011271912,0.9566915684162992,0.11948581666154673,-0.185846,0.379569,1.832729,-0.657,-5.443,-6.17,-1.7700000000000002e-06,4.366e-05,5.245e-05
1776438802.2016573,-0.12246344090027292,0.2349379650953793,0.959186492161212,0.09883385783817661,-0.286204,0.054736,1.610367,-0.272,-2.602,-3.68,-1.13e-06,4.258e-05,5.2900000000000005e-05
1776438802.2273118,-0.11286504684301135,0.2270663402096656,0.9642724711288428,0.07668741596890623,-1.260368,-0.609389,1.989988,-0.116,-3.282,-6.792,1.27e-06,4.029e-05,5.292e-05
1776438802.251307,-0.10540614236793286,0.2137140829104272,0.9697959866294886,0.05207283585712276,-1.035392,0.074363,1.765042,-0.193,-6.066,-8.795,3.1e-06,3.753e-05,5.758e-05
1776438802.277721,-0.10685924436225883,0.20448351541258483,0.9724325351428025,0.03380175164958825,-0.897545,0.413093,1.102461,0.092,-4.743,-5.887,3.29e-06,3.6230000000000004e-05,5.841e-05
1776438802.3022351,0.10679727416237693,-0.19546855167398833,-0.9746673585630233,-0.020246671077948,-0.849952,-0.065394,0.929094,-0.194,-1.907,-4.086,3.49e-06,3.481e-05,5.923000000000001e-05
1776438802.3274605,0.09731203438278767,-0.18423152986185756,-0.9780339395513009,-0.006222897621270396,-1.380711,-0.931648,1.428903,-0.166,1.332,-5.676,4.9000000000000005e-06,3.312e-05,5.933000000000001e-05
1776438802.351668,0.07819936952733651,-0.16365310592734925,-0.9832317725378614,0.018915628403888315,-2.088442,-1.2124,2.528805,-1.02,-0.983,-10.345,7.91e-06,2.822e-05,6.114000000000001e-05
1776438802.3777769,0.05944350221270421,-0.14258512459260073,-0.9866784318992942,0.05100612036168638,-1.658308,-0.840214,2.447266,-1.502,-7.214,-12.432,1.115e-05,2.3780000000000003e-05,6.23e-05
1776438802.401528,0.05290026602611779,-0.13183281541751377,-0.9874442807608341,0.0691047250640403,-0.18048,0.05729,0.655826,-1.03,-6.503,-10.79,1.198e-05,2.093e-05,6.358000000000001e-05
1776438802.427319,0.05109348981810351,-0.13346654337965058,-0.9869655522031962,0.07399416099082078,-0.21311,-0.399227,0.692768,-0.45,1.491,-8.516,1.2220000000000002e-05,2.199e-05,6.318e-05
1776438802.4521906,0.03723618910835812,-0.12270752324437874,-0.9873633559746757,0.09311247627650535,-1.451638,-0.962688,2.198407,-1.194,-0.106,-11.803,1.3830000000000001e-05,1.9e-05,6.423e-05
1776438802.4775655,0.020424364834009265,-0.10587478619953256,-0.9864642622607939,0.12353798707522332,-1.421431,-0.834469,2.368866,-1.427,-7.891,-13.404,1.5850000000000002e-05,1.4590000000000001e-05,6.439000000000001e-05
1776438802.5015564,0.008755296261029687,-0.09152251971287667,-0.9856611758658175,0.14148858456992808,-1.212819,-0.457741,0.967396,-1.267,-7.077,-14.381,1.699e-05,1.031e-05,6.543e-05
1776438802.5272663,0.0019688165998231703,-0.07528063306384374,-0.9857546132836356,0.15038880422668863,-1.614535,-0.191507,0.765118,-1.277,-2.773,-14.894,1.726e-05,6.990000000000001e-06,6.482e-05
1776438802.551767,-0.00438438465282444,-0.05004424796090218,-0.98531549057345,0.16318619565773684,-2.358476,-0.092315,1.251066,-0.998,-2.518,-14.983,1.7080000000000002e-05,3.5700000000000005e-06,6.485e-05
1776438802.5775502,-0.011960692027831139,-0.018245550456765004,-0.9834721497127651,0.1797402917381009,-2.906441,-0.220036,1.389294,-1.04,-4.66,-15.005,1.687e-05,-1.27e-06,6.463e-05
1776438802.6034935,-0.018756677041250485,0.012672539768616571,-0.9811022663923956,0.19216122575037775,-2.270353,0.263418,0.825953,-1.381,-4.07,-17.745,1.7000000000000003e-05,-6.24e-06,6.389e-05
1776438802.627588,-0.013567654768558772,0.04238420942379147,-0.9786506936019556,0.20065472196789327,-2.2096,1.143023,0.781405,-1.214,-2.251,-16.163,1.515e-05,-9.990000000000001e-06,6.264e-05
1776438802.6525507,-0.0059066473881685035,0.07531833078310465,-0.9747479788889102,0.2101395684221878,-2.639137,0.95081,0.879136,-0.995,-2.362,-14.351,1.2740000000000002e-05,-1.42e-05,6.297e-05
1776438802.6776571,-0.002361868418826376,0.10854759420026316,-0.969636063657468,0.21912951746799764,-2.491245,0.758407,0.819248,-0.866,-2.56,-16.165,1.1190000000000001e-05,-1.9500000000000003e-05,6.121e-05
1776438802.7018218,0.004590954924938044,0.13770854693206186,-0.9644096005168648,0.22567543434241688,-1.998593,1.257476,0.558381,-1.071,-2.983,-17.61,9.01e-06,-2.336e-05,5.995000000000001e-05
1776438802.727538,0.021280945359289226,0.16905142166236767,-0.9589286213040309,0.2267700100156492,-2.222215,2.221127,0.173319,-1.249,-3.537,-16.637,5.8700000000000005e-06,-2.507e-05,5.9e-05
1776438802.7525682,0.04748960368931688,0.19703869544240044,-0.9546263810840342,0.21819478128082906,-1.301577,2.831952,-0.566951,-1.186,-2.629,-12.614,2.95e-06,-2.691e-05,5.754000000000001e-05
1776438802.7776396,0.07499956613881166,0.21645397210291661,-0.9524552342569008,0.20087749942811362,-1.003753,2.539279,-1.103788,-0.519,-0.232,-9.196,-4.0000000000000003e-07,-2.803e-05,5.698e-05
1776438802.801794,0.09378414577189298,0.24546145430142485,-0.9469823022204559,0.1848721929747983,-2.470799,2.008964,-0.886984,0.087,0.048,-8.187,-3.01e-06,-3.082e-05,5.648e-05
1776438802.8277173,0.1056055574354034,0.28084450064656,-0.938748069844677,0.16948715012718615,-2.403605,1.687085,-1.33464,0.162,-1.266,-8.075,-3.9399999999999995e-06,-3.3400000000000005e-05,5.366e-05
1776438802.8524687,0.11406104839816067,0.3076084756460992,-0.9336067668459627,0.1440330095791383,-1.153431,1.617944,-2.239252,-0.309,2.012,-9.115,-4.66e-06,-3.599e-05,5.178000000000001e-05
1776438802.8775022,0.12691328370686572,0.32148945906576065,-0.9314994126293549,0.11334191810408065,-0.385876,2.124912,-1.725921,-0.16,6.772,-9.189,-4.87e-06,-3.5510000000000004e-05,5.19e-05
1776438802.9025848,0.14961759606912683,0.33341396476904966,-0.9259834252758156,0.09489151257065359,-0.901228,2.336822,-0.340276,0.427,5.476,-6.81,-6.090000000000001e-06,-3.56e-05,5.130000000000001e-05
1776438802.9273837,0.17273177471983872,0.34772402306910055,-0.917521049489819,0.0860631252388365,-0.970998,1.989682,-0.210505,0.962,0.966,-4.991,-8.77e-06,-3.65e-05,4.944e-05
1776438802.9514365,-0.18843846651875548,-0.36235572102816443,0.9097705049556778,-0.07420851761698138,-1.012644,1.531981,-0.881082,1.066,-0.619,-5.199,-1.025e-05,-3.825e-05,4.979e-05
1776438802.977496,-0.19908288532375015,-0.3763813548369665,0.9032425288593671,-0.05344169310562094,-0.672067,1.659539,-1.671006,0.977,0.279,-5.924,-1.049e-05,-3.8950000000000005e-05,4.7510000000000004e-05
1776438803.0016806,-0.2083444657893281,-0.3910397485303844,0.896169208426526,-0.023690684085244093,-0.905403,1.713713,-2.336035,0.687,1.607,-4.544,-1.0290000000000001e-05,-4.037e-05,4.8480000000000003e-05
1776438803.0274284,-0.21306737290752115,-0.4113374855603605,0.8861780502061934,0.009603692410587325,-1.342384,1.494842,-2.686778,0.336,3.372,-4.02,-9.29e-06,-4.039e-05,4.706000000000001e-05
1776438803.0524614,-0.21477651640340786,-0.4337605708263782,0.8739917322221357,0.0431424061144267,-1.308765,1.441056,-2.673648,0.022,5.228,-4.716,-7.99e-06,-4.195e-05,4.541e-05
1776438803.077536,-0.219799931923014,-0.4469527862347151,0.8635305873413884,0.0789691175682,-0.129759,1.983961,-2.547105,-0.364,6.464,-4.371,-6.45e-06,-4.245e-05,4.496e-05
1776438803.1018083,-0.22873964056789675,-0.4490598037603448,0.8557333977713946,0.11723404547406113,0.172703,2.091436,-2.256518,-0.475,7.017,-2.043,-5.9e-06,-4.282000000000001e-05,4.660000000000001e-05
1776438803.127546,-0.2367480193834537,-0.456217999781718,0.8448383686846066,0.14853835461426418,-0.889907,1.560946,-2.053308,-0.465,5.019,-0.626,-5.920000000000001e-06,-4.3650000000000004e-05,4.594e-05
1776438803.1516283,-0.23957899139542327,-0.4717226410204898,0.8297628264919954,0.17768879706560142,-1.03573,1.294695,-2.616706,-0.962,4.292,-1.096,-4.49e-06,-4.426e-05,4.5350000000000005e-05
1776438803.1776295,-0.23758713219838742,-0.4799216763867727,0.8163247265004738,0.21642892609765077,0.197813,1.635656,-3.159572,-1.722,7.053,-1.413,-2.7e-06,-4.371e-05,4.597e-05
1776438803.2024198,-0.2340491844557771,-0.4765927000865931,0.806126053669738,0.26123009603529806,0.915007,1.637675,-3.125271,-1.46,9.017,0.145,-9.100000000000001e-07,-4.291e-05,4.619e-05
1776438803.226812,-0.22571858560675626,-0.4778456766185556,0.795278740414504,0.2970628796961351,-0.107763,0.548639,-2.673947,-1.187,10.023,-0.403,1.23e-06,-4.13e-05,4.855e-05
1776438803.2515893,-0.2155412205731442,-0.49019422172904786,0.7825653251268002,0.3175580563085714,-0.914117,-0.157031,-1.917982,-0.904,9.153,-2.955,3.66e-06,-4.182e-05,4.975e-05
1776438803.2778935,-0.20695453145451267,-0.5016562072301207,0.7710375218243589,0.3331846509022953,-0.30055,0.21093,-1.845306,-1.251,7.45,-5.569,6.18e-06,-4.316e-05,4.9090000000000006e-05
1776438803.3014472,-0.19992480125118267,-0.4992944133594578,0.7632509348792438,0.358026776985563,0.839384,1.087144,-2.136668,-2.041,6.302,-5.125,7.55e-06,-4.13e-05,5.101e-05
1776438803.3273876,-0.19139048729764188,-0.4933496875732007,0.7526436890656686,0.39179490100436165,0.555109,1.102152,-2.944813,-3.057,6.99,-3.232,8.920000000000001e-06,-3.9200000000000004e-05,5.293e-05
1776438803.3518724,-0.17872287493557631,-0.49752847816025947,0.7340617313958541,0.42623575858252377,-0.470772,0.476421,-3.3037,-3.663,9.828,-3.443,1.128e-05,-3.77e-05,5.3830000000000005e-05
1776438803.376589,-0.16399833734531433,-0.5034153002886311,0.7136818936919874,0.458623740553734,0.371671,0.752986,-3.229082,-5.164,12.161,-6.14,1.396e-05,-3.6570000000000004e-05,5.396e-05
1776438803.4013581,-0.14867736395001807,-0.49116245270184045,0.7003713760013404,0.4961193628379921,1.552085,1.590853,-2.955495,-6.046,14.183,-6.191,1.559e-05,-3.2940000000000006e-05,5.7470000000000004e-05
1776438803.426412,-0.13909738410516592,-0.4707341425452659,0.6901551245392684,0.5317397755006298,1.438188,1.85654,-2.131842,-5.722,15.3,-4.816,1.488e-05,-2.9380000000000003e-05,5.952e-05
1776438803.4513972,-0.13761545579265488,-0.45241902705406883,0.6836725551508297,0.555851461831275,0.788111,1.467468,-1.11617,-5.276,13.297,-3.409,1.3280000000000002e-05,-2.616e-05,6.247e-05
1776438803.4763818,-0.13711037748812147,-0.4441759020619788,0.6764654721040546,0.5712293562690304,0.23868,0.7033,-1.199448,-6.15,12.433,-4.296,1.231e-05,-2.448e-05,6.293e-05
1776438803.5015497,-0.13090495591489484,-0.44123213615821166,0.6669373216634028,0.5859801221121989,0.20323,0.306283,-1.507611,-7.18,15.189,-6.324,1.235e-05,-2.2470000000000003e-05,6.358000000000001e-05
1776438803.5264702,-0.12618606712295513,-0.4362618416795845,0.6590111213764658,0.5995473491397584,0.582643,0.821271,-0.876477,-7.498,17.844,-7.522,1.248e-05,-2.177e-05,6.318e-05
1776438803.551405,-0.12981009055838008,-0.42202209423034887,0.6605600679648341,0.6072125566726609,0.709193,1.252763,0.552595,-6.947,17.996,-6.245,1.016e-05,-2.113e-05,6.478000000000001e-05
1776438803.5763984,-0.1416818870992403,-0.40555296339359587,0.6711519801563077,0.6041589660701379,0.59477,1.130472,1.532501,-7.153,14.453,-4.953,7.620000000000001e-06,-2.061e-05,6.411000000000001e-05
1776438803.601607,-0.15306410509729895,-0.3896874971087059,0.6848303287753629,0.5964247271176337,0.630159,0.879956,1.688721,-6.431,13.403,-4.875,4.65e-06,-1.949e-05,6.541e-05
1776438803.626711,-0.1657027084645889,-0.3758166351453135,0.7001276272516745,0.5840597355703386,0.441927,0.747499,2.203995,-5.778,13.296,-4.736,2.1000000000000002e-06,-1.909e-05,6.474000000000001e-05
1776438803.6514232,-0.17918582041031517,-0.3595309206497721,0.7195403008154585,0.5664730482229575,0.830253,0.703557,2.680343,-5.542,12.053,-3.623,2.2e-07,-1.8820000000000003e-05,6.371e-05
1776438803.6763937,-0.19029953472937966,-0.3412608140178693,0.7423901625160707,0.5442278847109959,0.762921,0.273576,3.079051,-5.128,11.621,-2.639,-2.31e-06,-1.794e-05,6.383e-05
1776438803.701563,-0.20176675178489717,-0.33199688468469796,0.7662069729691033,0.5118545897101546,-0.078107,-0.390678,3.615237,-4.678,10.163,-2.938,-4.1000000000000006e-06,-1.862e-05,6.415e-05
1776438803.7264264,-0.21189677522413716,-0.32538414326906534,0.7905749908640972,0.4735146246726711,0.132525,-0.580286,3.752104,-4.024,8.112,-2.816,-4.89e-06,-1.919e-05,6.238000000000001e-05
1776438803.7513807,-0.21771711009475317,-0.3116100654834952,0.8152979876717434,0.4367924202178497,1.177593,-0.353448,3.603669,-3.721,7.694,-2.832,-6.44e-06,-1.893e-05,6.27e-05
1776438803.7778025,-0.22156231830191667,-0.2852059607737288,0.841343936071712,0.402129432251823,1.867113,-0.049399,3.85627,-2.817,7.14,-1.221,-7.91e-06,-1.4760000000000001e-05,6.271e-05
1776438803.801809,-0.2251577029259204,-0.2551466457316208,0.8681876877852845,0.36118462974366305,1.57144,-0.427517,4.529675,-1.464,4.225,1.433,-8.99e-06,-1.356e-05,6.197e-05
1776438803.826433,-0.22165877462615494,-0.23392858344876216,0.8939449504526524,0.31145983856203974,0.913469,-1.658584,4.334739,-1.062,0.187,2.414,-9.51e-06,-1.1540000000000001e-05,6.032e-05
1776438803.851937,-0.20137979530384012,-0.22810366470130305,0.9152125255787674,0.26419865483562366,0.14144,-3.124502,3.101165,-1.138,-1.556,0.763,-7.180000000000001e-06,-1.1700000000000001e-05,6.257e-05
1776438803.8765466,-0.16763366061644167,-0.23333071236700048,0.9307561498609377,0.22616083655373087,0.125707,-3.599066,2.047461,-1.206,-0.144,-2.366,-2.53e-06,-1.2030000000000002e-05,6.202e-05
1776438803.9014714,-0.1291716634548519,-0.2324167672611382,0.9439658005101065,0.19551392565109615,0.829777,-3.59347,1.685411,-1.875,0.474,-2.906,2.33e-06,-1.294e-05,6.228000000000001e-05
1776438803.926445,-0.08569627402734184,-0.2327828861092206,0.9542669310482707,0.1668619215405591,0.123612,-4.300614,1.369493,-2.883,0.344,-2.851,7.670000000000001e-06,-1.2450000000000001e-05,6.108e-05
1776438803.9514542,-0.03300622953922621,-0.24848882963675717,0.9581779315464094,0.13805412654029273,-0.89271,-4.886475,1.146716,-3.514,2.096,-7.238,1.387e-05,-1.316e-05,5.888e-05
1776438803.9764693,0.013740199626466061,-0.25964472113536957,0.9593316044240786,0.10990313213864471,0.101368,-3.787478,1.129622,-4.069,0.887,-8.98,2.0030000000000003e-05,-1.5870000000000002e-05,5.496e-05
1776438804.0016115,0.0524377535795503,-0.26007047756653134,0.9598349276133264,0.09127179428151427,0.241191,-3.17384,0.299524,-4.467,1.365,-8.634,2.409e-05,-1.796e-05,5.492e-05
1776438804.0264702,0.08736792243703823,-0.26440565456655624,0.9570687555699144,0.08047293379840068,-0.313429,-2.818642,0.056856,-5.07,4.425,-9.619,2.8510000000000003e-05,-1.8990000000000003e-05,5.223e-05
1776438804.0518436,0.11722741391562354,-0.2715381605400753,0.9526601186294781,0.07045182162326336,-0.368008,-2.341304,0.312807,-5.44,6.707,-10.894,3.181e-05,-2.035e-05,5.0549999999999995e-05
1776438804.0765338,0.13497955668272932,-0.27594692820342215,0.9499607178204453,0.056643152197716054,-0.053898,-1.324836,0.948025,-5.093,6.76,-9.681,3.357e-05,-2.086e-05,4.838e-05
1776438804.1015527,-0.14566404716202697,0.2813915363295056,-0.9476650027141281,-0.03913861619080303,-0.409706,-1.368147,1.145028,-5.075,4.675,-6.578,3.442e-05,-2.288e-05,4.551e-05
1776438804.1265998,-0.16309250405507691,0.29192358490483966,-0.942164172407354,-0.022541693133335136,-0.846553,-2.039684,0.886688,-5.318,5.073,-7.326,3.57e-05,-2.5390000000000003e-05,4.4540000000000004e-05
1776438804.151744,-0.18378455643059097,0.3034962301753915,-0.9349180541892711,-0.00644259558595147,-0.614395,-1.944175,0.877076,-5.476,6.081,-9.679,3.6870000000000004e-05,-2.825e-05,4.21e-05
1776438804.176807,-0.19942048223234443,0.3090769087134642,-0.9298481887558189,0.009234805567581626,-0.101404,-1.426239,0.859642,-5.865,6.45,-9.9,3.783e-05,-3.004e-05,3.923e-05
1776438804.2018812,-0.21140354355634672,0.3116968978767587,-0.9260222961280474,0.025224842904642206,-0.112579,-1.404346,1.053509,-6.077,7.183,-8.678,3.826e-05,-3.087e-05,3.873e-05
1776438804.2264943,-0.2277285826081615,0.32323313737752496,-0.9173642530893944,0.045856937513283874,-1.159457,-2.134523,1.500238,-6.064,6.47,-9.823,3.855e-05,-3.3010000000000004e-05,3.53e-05
1776438804.2514596,-0.24649109020603716,0.33726932014733524,-0.9059970257504014,0.0682710587864303,-0.689357,-1.871432,1.352781,-6.823,5.357,-12.961,3.8610000000000005e-05,-3.5610000000000006e-05,3.147e-05
1776438804.2768862,-0.2555843413332872,0.341849418790998,-0.900324258167958,0.08504028158351036,0.014063,-0.81369,0.930742,-7.186,5.943,-12.578,3.8350000000000004e-05,-3.749e-05,3.0140000000000003e-05
1776438804.3015652,-0.26030329827260223,0.3452414153754204,-0.8964325382625654,0.09725873925830751,-0.283552,-0.759659,0.864491,-7.53,8.581,-12.191,3.766e-05,-3.878e-05,2.985e-05
1776438804.3265572,-0.26361295333452006,0.3524507577975952,-0.8908690618081256,0.11242325771504456,-0.476225,-0.563514,1.522304,-7.233,10.769,-14.001,3.686e-05,-3.995e-05,2.7020000000000002e-05
1776438804.3519933,-0.25186516070102305,0.3620985501998841,-0.8870481501656319,0.13636040501524035,-0.232987,0.560464,2.768281,-6.343,8.003,-12.472,3.405e-05,-4.214e-05,2.837e-05
1776438804.3767862,-0.23380553054783418,0.3767601245277851,-0.8812214979292311,0.16381530465257382,-0.400148,0.35521,2.497028,-5.27,1.333,-9.406,2.979e-05,-4.431e-05,2.738e-05
1776438804.4018645,-0.22601243110505412,0.385490049786907,-0.8764877543922934,0.17912291562395322,-0.138641,0.097413,0.873647,-5.069,2.247,-11.841,2.798e-05,-4.617e-05,2.677e-05
1776438804.4265323,-0.21411631378605972,0.3825956290907784,-0.8799599523986518,0.18288048268162427,0.939305,1.344043,0.478351,-4.979,6.235,-14.115,2.667e-05,-4.496e-05,2.642e-05
1776438804.451519,-0.18353250109778924,0.3718871242313152,-0.8915693393565733,0.1819887386379602,2.047288,2.747865,0.595073,-4.347,6.602,-11.797,2.445e-05,-4.516e-05,3.1650000000000004e-05
1776438804.4766357,-0.14123331340370263,0.3553301557358396,-0.9059480571948566,0.18180140063987457,2.389483,2.938536,0.822205,-2.711,2.423,-7.226,2.1260000000000003e-05,-4.38e-05,3.587e-05
1776438804.5016277,-0.10722592168399064,0.3327852066448415,-0.9198896604695305,0.17765027587544246,2.437208,2.065658,-0.383972,-2.82,0.101,-7.195,1.83e-05,-4.1620000000000005e-05,4.1160000000000006e-05
1776438804.526527,-0.08611048831964727,0.3115377423534618,-0.9327745985121656,0.15956430447041844,1.706482,1.812153,-1.387305,-2.703,4.325,-9.709,1.752e-05,-3.6400000000000004e-05,4.333000000000001e-05
1776438804.5515113,-0.06493072206546732,0.29925312902385653,-0.9413291179745744,0.1418839587645416,1.074224,1.989971,-0.584381,-1.66,6.429,-10.038,1.6669999999999998e-05,-3.4370000000000005e-05,4.406e-05
1776438804.5766802,-0.039662384133826833,0.2897032864528515,-0.9471459330255096,0.1319601555639988,1.331031,2.099509,-0.295253,-1.464,2.061,-8.88,1.4920000000000001e-05,-3.304e-05,4.5820000000000005e-05
1776438804.6017113,-0.01437411550876104,0.27628084549695986,-0.9538263667377871,0.11695102107556829,1.305122,2.107882,-0.89801,-1.007,1.738,-7.296,1.24e-05,-3.134e-05,5.0339999999999996e-05
1776438804.6266887,0.004488558671767243,0.2698936749291336,-0.9577725264294948,0.09904062141949575,0.308936,1.516841,-0.961442,-0.346,3.11,-6.132,1.134e-05,-2.919e-05,5.08e-05
1776438804.651605,0.014747070043954227,0.27380112584701477,-0.9579282974151316,0.08478705338300833,-0.480495,0.901827,-0.895099,-0.555,2.493,-6.676,1.0440000000000002e-05,-2.9530000000000004e-05,5.2090000000000004e-05
1776438804.676583,0.018821668677231576,0.28472296245171813,-0.9557944105138595,0.07096213265810063,-0.973574,0.655522,-1.017292,-0.799,2.779,-8.543,1.0780000000000002e-05,-2.9060000000000003e-05,5.2100000000000006e-05
1776438804.7016742,0.024462231933670933,0.29604545832379164,-0.9533255693421397,0.05412064904603827,-0.797145,1.05809,-1.243099,-1.042,3.659,-8.952,1.0680000000000001e-05,-2.894e-05,5.103e-05
1776438804.7265255,0.03314166722934102,0.3095157694252039,-0.9496768287572003,0.034864585069252954,-1.343076,1.21788,-1.244402,-1.235,5.058,-8.017,1.0320000000000001e-05,-2.9880000000000002e-05,5.0480000000000005e-05
1776438804.7515624,0.044219970131477056,0.3290393217626083,-0.9430860931509499,0.019140007336776725,-1.563187,1.381176,-0.698478,-0.427,5.093,-7.233,9.760000000000001e-06,-3.058e-05,5.046000000000001e-05
1776438804.776593,-0.056616072427026085,-0.3450613114434459,0.9368475936970413,-0.00662554691556533,-1.228551,1.209165,-0.768108,-0.314,1.946,-6.012,9.04e-06,-3.317e-05,4.926e-05
1776438804.8017316,-0.06454199776693575,-0.3615495732925418,0.9300606213674887,0.010172372277629491,-1.488677,1.062775,-1.369286,-0.679,1.821,-6.783,8.580000000000001e-06,-3.387e-05,4.951e-05
1776438804.8266077,-0.07216761535297297,-0.3847411037371375,0.9196535774742259,0.0316767395458067,-2.231213,1.415567,-1.50307,-0.994,3.74,-7.557,8.920000000000001e-06,-3.376e-05,4.846e-05
1776438804.8519535,-0.08582076179151293,-0.4138599245485427,0.9046835437320159,0.05387434824367372,-2.55195,1.874142,-1.418838,-0.845,2.671,-5.481,8.53e-06,-3.6700000000000004e-05,4.58e-05
1776438804.876677,-0.09988193146221355,-0.4397122168922651,0.8888279566499708,0.08161880641436044,-2.009479,1.922442,-2.111233,-1.338,2.616,-3.239,8.25e-06,-3.942e-05,4.529e-05
1776438804.9017143,-0.1085792028358878,-0.46102926066521605,0.873088689807219,0.11566640503067843,-1.858944,1.73318,-2.404221,-1.479,6.063,-3.056,8.9e-06,-4.014e-05,4.546e-05
1776438804.9265728,-0.11873406463156895,-0.4812559303263893,0.8561526238865683,0.14593709615410463,-1.833302,1.906868,-1.848572,-1.613,6.128,-3.173,9.44e-06,-4.121000000000001e-05,4.363000000000001e-05
1776438804.9517117,-0.1328925524916052,-0.4928266046598605,0.841240983143425,0.1782557587052474,-0.836628,2.371106,-2.122811,-1.949,4.095,-1.025,9.09e-06,-4.215e-05,4.523e-05
1776438804.9770613,-0.14220079113748538,-0.4968770723883306,0.8281538227240212,0.21691785505639083,-0.353839,2.037483,-2.654078,-2.274,4.86,0.687,9.560000000000002e-06,-4.0860000000000005e-05,4.604e-05
1776438805.0018928,-0.1422318689035933,-0.5020416588494448,0.8147213950896516,0.2528899298727818,-0.790371,1.039152,-2.694459,-2.671,5.538,1.036,1.0670000000000001e-05,-4.041e-05,4.5820000000000005e-05
1776438805.0266123,-0.13500266421742196,-0.5147767383537649,0.7978409275442266,0.2832473206217945,-0.96898,0.619277,-2.805587,-3.278,6.934,-1.36,1.334e-05,-4.0220000000000005e-05,4.583e-05
1776438805.0515652,-0.1258050351685603,-0.522413479835525,0.7823695356402005,0.3148891216198359,-0.315749,0.762683,-2.757666,-3.516,9.326,-2.012,1.612e-05,-3.9800000000000005e-05,4.77e-05
1776438805.0770433,-0.11703426127904756,-0.5269929197055505,0.7695652295446676,0.34110233324172656,-0.53861,0.363365,-2.110258,-3.651,9.34,-2.921,1.8350000000000002e-05,-3.9250000000000005e-05,4.7810000000000005e-05
1776438805.1019404,-0.10911033817202437,-0.5298431723891701,0.75820538007267,0.36398591786692086,0.063379,0.714399,-2.226153,-4.542,7.85,-5.218,2.027e-05,-3.775e-05,4.936e-05
1776438805.1267653,-0.10178371304693155,-0.5239595020434041,0.747678807259025,0.3950733060490541,0.60902,1.439179,-2.543541,-5.268,9.13,-5.128,2.143e-05,-3.482e-05,5.0849999999999996e-05
1776438805.1516259,-0.09462054028169314,-0.510547156587129,0.7379258093337416,0.4311079379653552,0.841822,1.491419,-2.71421,-6.222,11.053,-2.859,2.226e-05,-3.212e-05,5.233e-05
1776438805.176627,-0.08433752330269398,-0.500757183632758,0.7264974413678624,0.4629588457836238,0.686449,0.906095,-2.439809,-6.137,14.272,-4.025,2.288e-05,-2.858e-05,5.5389999999999997e-05
1776438805.2018445,-0.07714485379744826,-0.4943916134705827,0.7180873956902866,0.4837107567682014,0.059654,0.603033,-1.253138,-5.56,14.351,-5.68,2.3140000000000002e-05,-2.6810000000000003e-05,5.778e-05
1776438805.2266877,-0.07951316592119073,-0.4956509226295299,0.7085607866414745,0.49593288958860127,-0.615262,0.698012,-1.033315,-5.843,11.167,-6.485,2.337e-05,-2.658e-05,5.7530000000000007e-05
1776438805.2516394,-0.08019501014326086,-0.4936839610848044,0.6969892756677054,0.5138587904472854,0.140709,1.066233,-1.682892,-6.404,13.403,-7.334,2.294e-05,-2.5629999999999997e-05,5.843000000000001e-05
1776438805.2769127,-0.07801900587114718,-0.48311106064364717,0.6878271500352934,0.5361068452099583,0.467094,1.337564,-1.405745,-6.804,16.925,-7.847,2.168e-05,-2.229e-05,6.032e-05
1776438805.3018053,-0.08652322037303017,-0.47463059717620715,0.6816032255336486,0.5501423193161596,-0.322315,1.545574,-0.168551,-6.96,16.742,-8.296,2.035e-05,-2.1790000000000003e-05,5.9980000000000005e-05
1776438805.3266742,-0.10309988953926191,-0.4623224081881943,0.679844376800886,0.5598571487408869,0.096077,1.928587,0.108121,-7.212,13.88,-6.146,1.702e-05,-2.221e-05,6.115000000000001e-05
1776438805.3520544,-0.1173265714284929,-0.4463152258339144,0.6795085317819161,0.5703554593946144,0.353176,1.805218,0.110098,-5.834,14.831,-4.88,1.3710000000000001e-05,-2.143e-05,6.297e-05
1776438805.37645,-0.1302936120449241,-0.4304474845074392,0.6819254303680663,0.5768156075894899,0.347211,1.500191,0.620932,-5.482,15.835,-5.055,1.062e-05,-2.055e-05,6.253e-05
1776438805.4026408,-0.14618186413586637,-0.4160651160413621,0.6887779792890959,0.5754177413476934,0.245788,1.336627,1.33836,-5.012,14.153,-4.917,7.290000000000001e-06,-2.061e-05,6.383e-05
1776438805.4265718,-0.1632566610454823,-0.4042958023174632,0.6980855579115706,0.5679513365492244,0.01585,1.011434,1.629576,-4.577,12.212,-4.826,4.420000000000001e-06,-1.9960000000000002e-05,6.26e-05
1776438805.4516509,-0.17902214759850746,-0.3931213962248081,0.7083847209423749,0.5582093922847136,0.163499,0.92626,1.723308,-4.678,11.977,-5.31,1.9699999999999998e-06,-2.0150000000000002e-05,6.195e-05
1776438805.4767113,-0.19302810379218702,-0.37738098185311036,0.7210871194511016,0.5480484575689342,0.75697,1.03339,1.899453,-4.793,12.406,-5.373,-3.5000000000000004e-07,-1.9750000000000002e-05,6.142e-05
1776438805.5017617,-0.20595904639376178,-0.35158846576615965,0.7384071415881893,0.537327940089039,1.534391,1.475989,2.398409,-4.512,12.205,-4.874,-3.99e-06,-1.886e-05,6.189e-05
1776438805.5266771,-0.2213314725774828,-0.319460359089088,0.7582933795873594,0.5234010018058187,1.492341,1.540394,2.762902,-3.71,9.777,-2.5,-7.83e-06,-1.654e-05,6.166e-05
1776438805.551829,-0.2338201841974726,-0.2851300064079819,0.7787732392177028,0.5074852143521138,1.992964,1.327876,2.749507,-3.001,8.386,-0.934,-1.133e-05,-1.411e-05,6.225000000000001e-05
1776438805.5766716,-0.23733345171373327,-0.2419712729529025,0.8006510443792012,0.4940451810287106,3.517856,1.252273,2.527192,-3.404,9.133,-0.423,-1.4330000000000002e-05,-8.26e-06,6.136000000000001e-05
1776438805.6018953,-0.23352420121391265,-0.19643166739862292,0.8240604249371047,0.47728970609356225,2.623588,0.309139,3.162804,-3.129,10.594,1.029,-1.546e-05,-4.1000000000000006e-06,6.085000000000001e-05
1776438805.6267962,-0.22931745781340426,-0.17285887125538202,0.8512178349427603,0.439273845847522,0.968696,-0.840841,4.315391,-3.052,7.031,-0.383,-1.551e-05,-7.900000000000002e-07,6.014000000000001e-05
1776438805.6517425,-0.22095613666557495,-0.14710944391018704,0.8792087851928158,0.39563759834226137,2.366347,-0.621881,4.1728,-2.61,2.997,-0.967,-1.4690000000000002e-05,1.56e-06,6.176e-05
1776438805.6768284,-0.20667746308261786,-0.10714925660700463,0.9040848271471852,0.3583770198890318,2.790627,-0.858379,3.838208,-1.661,1.336,1.853,-1.3600000000000002e-05,5.920000000000001e-06,6.016000000000001e-05
1776438805.7017791,-0.18318027879235424,-0.08322837304792527,0.9265265300215468,0.31790975535139293,1.257909,-2.330192,3.71803,-1.497,-0.563,2.307,-1.0440000000000002e-05,9.17e-06,6.0960000000000006e-05
1776438805.726662,-0.14775029682966384,-0.08138162680103524,0.946151616444548,0.2763041789501782,0.057721,-3.657737,3.088243,-2.054,-2.55,0.806,-5.31e-06,1.037e-05,6.187e-05
1776438805.7526555,-0.10066875173402057,-0.0964023767895148,0.9600358470974544,0.24270054895183057,-0.796704,-4.658999,1.857749,-2.908,-1.913,-3.211,8.699999999999999e-07,8.49e-06,6.0750000000000006e-05
1776438805.7770836,-0.04992169444452692,-0.11782364995023008,0.9678214248780322,0.21667279820791563,-0.812673,-4.290508,1.560949,-3.261,1.053,-7.915,8.15e-06,6.58e-06,5.888e-05
1776438805.8018763,-0.009420368216613257,-0.13326880031242108,0.9731762968062432,0.18729276243474655,-0.581318,-3.301837,2.155911,-2.692,0.103,-8.477,1.4069999999999999e-05,3.1500000000000003e-06,6.029e-05
1776438805.8267674,0.01941084159235392,-0.14069657542335726,0.9765949620502553,0.16152390841877406,0.379556,-2.231992,1.205706,-3.394,-1.749,-7.021,1.8360000000000004e-05,1.06e-06,5.7740000000000006e-05
1776438805.8526309,0.046084688547742475,-0.1373705648966208,0.9783126281688218,0.14802003562644278,0.479717,-2.28937,0.822177,-3.473,3.314,-6.088,2.168e-05,8.8e-07,5.7640000000000004e-05
1776438805.8768518,0.07272581324816943,-0.14320359590598916,0.9786672036665072,0.12811787804426855,-0.170043,-2.356561,1.539542,-3.861,3.315,-6.472,2.5110000000000002e-05,2.3e-07,5.5830000000000006e-05
1776438805.9018347,0.09747268208291138,-0.1492865227803458,0.9784711747745787,0.10395561792886947,-0.065663,-2.389311,1.596139,-4.719,1.974,-5.113,2.773e-05,-1.83e-06,5.399000000000001e-05
1776438805.926741,0.13045376818897256,-0.1654450567348641,0.9742113943926408,0.08075832218936874,-1.323498,-3.431515,1.466123,-6.253,3.269,-7.221,3.176e-05,-5.690000000000001e-06,5.211e-05
1776438805.9517195,0.16866304531527937,-0.18983101958020904,0.9654222959591784,0.05896398574573114,-1.586466,-3.372354,1.429047,-6.724,5.24,-11.175,3.613e-05,-9.32e-06,4.8370000000000006e-05
1776438805.9768176,-0.1969056820044522,0.21471804897542915,-0.9560174640802108,-0.033984117057671584,-1.430941,-2.27931,2.070336,-6.264,4.925,-12.818,3.9040000000000006e-05,-1.3630000000000002e-05,4.497e-05
1776438806.00212,-0.20880501303814056,0.22401639169762713,-0.9519113991573981,-0.009044939752262324,0.289769,-1.021774,1.434815,-7.342,1.758,-9.806,3.973e-05,-1.8010000000000002e-05,4.426e-05
1776438806.0267806,-0.2176268731933146,0.21976787642637782,-0.9509607272220949,0.0037841559647692202,0.337115,-0.948401,0.473812,-7.83,6.306,-8.228,4.0510000000000003e-05,-1.779e-05,4.3490000000000005e-05
1776438806.051707,-0.22867440722716792,0.2194091585450399,-0.9482763136094203,0.018430129494632866,-0.126367,-1.473825,1.516287,-7.862,10.647,-8.154,4.084e-05,-1.827e-05,4.152e-05
1776438806.076828,-0.2455928667037124,0.23752669974645363,-0.9382893987666068,0.053648997138903975,-1.256778,-2.346332,3.285574,-7.714,5.658,-10.922,4.14e-05,-2.3480000000000002e-05,3.8e-05
1776438806.1018016,-0.26235927114114244,0.2518216491230768,-0.9269584994694814,0.0922030918164345,-0.076457,-1.794807,2.343344,-8.226,0.787,-13.835,4.0520000000000005e-05,-2.867e-05,3.655e-05
1776438806.128143,-0.27064530447230706,0.2528273113415485,-0.9218568161631201,0.11405910880105735,0.214568,-0.858414,1.240395,-8.525,5.14,-13.914,4.0260000000000004e-05,-3.0550000000000004e-05,3.389e-05
1776438806.1521964,-0.2777147511684892,0.2638710445348533,-0.9137445958458194,0.13534179842927246,-0.986629,-1.174307,2.203882,-8.071,7.741,-14.971,3.921e-05,-3.3610000000000005e-05,3.321e-05
1776438806.1767764,-0.2764850341954167,0.2753023936023627,-0.9056085126132325,0.16624632274194162,0.508156,-0.001552,2.676484,-8.382,5.249,-17.3,3.7080000000000004e-05,-3.475e-05,3.1780000000000004e-05
1776438806.2017949,-0.2572681179708516,0.2747794165670622,-0.9060998486013196,0.19311253732336048,0.780649,1.116542,2.037476,-8.147,3.528,-13.72,3.4250000000000006e-05,-3.7180000000000007e-05,3.206e-05
1776438806.2269678,-0.24010616217441516,0.28322378126651276,-0.9047322438390237,0.20878909830012027,-0.390481,0.933913,1.593481,-7.573,7.217,-13.617,3.134e-05,-3.855e-05,3.339e-05
1776438806.2517486,-0.22246675720021875,0.2954361165307347,-0.900768064651254,0.22769044049869822,-0.317753,1.108754,2.543376,-6.33,8.985,-15.208,2.764e-05,-4.096e-05,3.456e-05
1776438806.278271,-0.19315246854435641,0.31145609915411887,-0.8949346528304415,0.25451756198380177,-0.229287,1.99005,2.99288,-6.352,3.792,-13.175,2.294e-05,-4.3e-05,3.4210000000000006e-05
1776438806.3029568,-0.1656281052718303,0.3314730571875516,-0.8881681429589826,0.2717541038063528,-1.114293,1.659407,1.970901,-5.5,3.943,-11.907,1.8140000000000003e-05,-4.457e-05,3.478e-05
1776438806.3273413,-0.14066051426282897,0.3539252834728189,-0.8796926724655156,0.2847671249573591,-1.023572,2.038821,2.351671,-3.883,6.148,-13.122,1.402e-05,-4.543e-05,3.418e-05
1776438806.352849,-0.10716161361169894,0.37500072250468774,-0.8702893881484627,0.30081094987595414,-0.82254,2.33636,2.460785,-3.709,1.753,-11.095,9.88e-06,-4.678e-05,3.332e-05
1776438806.3773072,-0.07599348616419899,0.39736481979363963,-0.8608215132334501,0.3087272459719951,-1.02793,2.48206,1.482709,-2.89,0.738,-10.671,5.21e-06,-4.763e-05,3.268e-05
1776438806.4018843,-0.04574207806799345,0.41938622870312336,-0.8536777653643022,0.3053802979741888,-0.845103,2.890733,0.827259,-1.935,2.04,-10.348,1.8700000000000003e-06,-4.8400000000000004e-05,3.292e-05
1776438806.4268684,-0.009033046146051937,0.4389859116605956,-0.8482787250329676,0.29602867782916203,-0.585485,3.486432,0.815295,-0.643,1.106,-7.493,-1.8100000000000002e-06,-4.928e-05,3.207e-05
1776438806.4518194,0.0265098605595631,0.4584381860484613,-0.8420982468599858,0.2828466006531587,-0.865084,3.115283,0.201114,-0.207,-0.517,-5.219,-5.15e-06,-4.957e-05,3.164e-05
1776438806.476831,0.052394903689721564,0.4776378902017345,-0.836742591293113,0.26263787965003615,-0.847393,2.878946,-0.613938,0.099,0.713,-5.545,-6.35e-06,-4.884e-05,3.0230000000000004e-05
1776438806.5018632,0.0751985847113699,0.49707309265412664,-0.8309469801980436,0.2383078461075526,-0.86517,2.976973,-0.812734,0.086,0.644,-5.501,-7.25e-06,-4.9170000000000005e-05,2.885e-05
1776438806.5268066,0.09859373234680127,0.5123080491072763,-0.8276812864380124,0.20679319824921877,-0.352013,3.172293,-1.501024,-0.148,0.596,-3.692,-7.93e-06,-5.0339999999999996e-05,2.8170000000000003e-05
1776438806.5518246,0.11424133557341584,0.5271388802981177,-0.8252522531059275,0.1674283036647004,-0.762834,2.689436,-2.326741,-0.708,3.618,-3.162,-7.4899999999999994e-06,-5.035e-05,2.8990000000000002e-05
1776438806.5768647,0.1250307093057625,0.5441232690483773,-0.8198980816863705,0.12674512005444333,-0.769866,2.826881,-2.227796,-1.483,6.568,-4.091,-5.850000000000001e-06,-5.1800000000000005e-05,2.616e-05
1776438806.6018326,-0.14124601242397092,-0.5574915072134774,0.8134626730439021,-0.0867828492470851,-0.508502,3.085682,-1.821354,-0.765,5.943,-2.222,-5.31e-06,-5.228000000000001e-05,2.752e-05
1776438806.6268964,-0.15633998256749101,-0.5650403476252615,0.8087898024423354,-0.04632786279992156,0.037656,2.581711,-2.293232,-1.212,4.407,0.207,-4.18e-06,-5.1359999999999996e-05,2.7700000000000002e-05
1776438806.6522784,-0.15742870993435282,-0.5775907265432985,0.8009504305137195,-0.00914121214487959,-1.158008,1.629371,-2.443327,-1.546,7.662,-2.999,-2.31e-06,-5.2100000000000006e-05,2.701e-05
1776438806.676801,-0.1635617912579299,-0.5905201921286867,0.7898460198769177,0.026013612078835346,-0.419163,2.732242,-1.972907,-1.846,7.747,-4.758,-3.3e-07,-5.273e-05,2.592e-05
1776438806.7018206,-0.18045770043309597,-0.5852875369525615,0.7870322801258667,0.0738492212706558,1.296835,3.626943,-2.347484,-2.126,6.547,-0.742,3.4e-07,-5.263e-05,2.9420000000000003e-05
1776438806.7270107,-0.19506837588119946,-0.572749652419958,0.785776242024373,0.12830378737177733,1.460744,3.431549,-2.740933,-2.247,7.332,1.567,1.5800000000000003e-06,-5.147000000000001e-05,3.147e-05
1776438806.751929,-0.20078382373037015,-0.560230770588688,0.7827016999906202,0.18222345800036244,1.432931,2.704887,-3.039828,-2.261,9.187,1.923,3.06e-06,-4.9840000000000004e-05,3.567e-05
1776438806.7768927,-0.19922376297450126,-0.5453200159580271,0.780948356630596,0.23033809224222612,1.591044,1.970323,-2.625868,-1.337,10.967,1.575,4.67e-06,-4.6920000000000005e-05,3.8520000000000004e-05
1776438806.8019166,-0.19461103761244603,-0.5299168326443217,0.7817903229614623,0.2647991416969277,1.307513,1.137331,-1.758246,-1.333,9.803,-0.185,5.7000000000000005e-06,-4.516e-05,4.0820000000000006e-05
1776438806.8269243,-0.1890457498321269,-0.5229762022593076,0.7797567438035844,0.28764042976200677,0.425433,0.671809,-1.657328,-2.606,7.298,-3.291,7.280000000000001e-06,-4.366e-05,4.315e-05
1776438806.8528194,-0.1823677395175629,-0.5170120007715007,0.7742596138515214,0.31616870338475506,1.164844,1.298163,-2.407684,-2.745,7.236,-5.334,8.63e-06,-4.274e-05,4.521e-05
1776438806.8769927,-0.17362594290351124,-0.5005492703822348,0.7694437816084266,0.35673621461074434,2.194314,1.804494,-2.889154,-2.938,9.851,-5.523,1.0340000000000001e-05,-4.029e-05,4.7010000000000006e-05
1776438806.901867,-0.16642600218748121,-0.4814434284252595,0.7639580905010273,0.396084141288248,1.55712,1.800369,-2.41879,-2.538,10.726,-7.795,1.0520000000000001e-05,-3.6740000000000004e-05,5.2180000000000005e-05
1776438806.9269817,-0.16802484158812786,-0.45988100552433614,0.7564011840509631,0.43374458167625685,1.638977,2.784495,-2.024467,-3.136,10.324,-9.644,9.820000000000001e-06,-3.2710000000000004e-05,5.503000000000001e-05
1776438806.9519057,-0.1744223144652463,-0.4237342958152999,0.7496679454526797,0.4775186638522697,2.67624,3.590647,-2.355145,-4.43,8.958,-7.558,7.35e-06,-2.888e-05,5.7520000000000005e-05
1776438806.9768605,-0.1759485975801054,-0.37917301690023136,0.7399593468724982,0.5270010239462508,3.01182,3.49587,-2.77142,-3.94,10.694,-5.505,3.3500000000000005e-06,-2.337e-05,6.072e-05
1776438807.0018582,-0.17674038524566754,-0.343256755654603,0.7269592821464702,0.5678625168311232,1.740721,2.547644,-2.089258,-3.752,14.09,-4.53,-2.3e-07,-1.9050000000000002e-05,6.436e-05
1776438807.0268605,-0.1793733074920908,-0.3213685639752098,0.7185692172202931,0.5900896056627967,0.876206,1.454116,-0.574641,-2.904,17.888,-5.512,-2.83e-06,-1.628e-05,6.472e-05
1776438807.051897,-0.18691018178823243,-0.3072235112091791,0.723210276464356,0.5896144453119705,0.658366,0.76599,1.300661,-2.792,16.303,-5.601,-5.2600000000000005e-06,-1.5640000000000003e-05,6.472e-05
1776438807.077025,-0.1933912070955513,-0.3023694427519373,0.736619593741859,0.5732051423561962,-0.360923,-0.658918,1.862453,-1.221,10.28,-4.76,-5.8800000000000005e-06,-1.326e-05,6.560000000000001e-05
1776438807.1021106,-0.1925285726116075,-0.3144225183333238,0.7487408715015357,0.5508705256557012,-0.890394,-1.562026,1.608769,-0.858,10.333,-10.092,-4.710000000000001e-06,-1.553e-05,6.528000000000001e-05
1776438807.127102,-0.19193267602214065,-0.3248323449376059,0.7584907223652295,0.5313545140894057,-0.191703,-0.619397,1.181113,-2.068,8.771,-13.724,-3.5100000000000003e-06,-1.686e-05,6.416e-05
1776438807.1520743,-0.19257654057441173,-0.31404844431139844,0.7637522551246627,0.5300663575798547,1.261132,0.936826,0.061565,-1.967,9.113,-12.189,-4.38e-06,-1.578e-05,6.477e-05
1776438807.1769626,-0.19276815747918072,-0.2884546053577789,0.7655046918173996,0.5418827778362382,2.055716,1.535855,-0.276879,-1.706,13.254,-10.114,-6.54e-06,-1.29e-05,6.476e-05
1776438807.2018955,-0.19671050900565493,-0.2597830903923682,0.7694111066865603,0.5493853570129889,1.56585,1.620208,0.617877,-1.605,13.858,-7.983,-9.35e-06,-9.06e-06,6.59e-05
1776438807.2271457,-0.20465319399849763,-0.2391020493717303,0.7748332148424882,0.5482524686212608,0.60522,0.936515,0.707523,-1.585,9.502,-3.791,-1.2080000000000001e-05,-7.000000000000001e-06,6.52e-05
1776438807.2519817,-0.2057148125721831,-0.23139499214280018,0.7782077124192005,0.5463794742035063,0.508502,0.016278,0.404558,-2.684,13.454,-5.39,-1.2070000000000001e-05,-6.53e-06,6.399e-05
1776438807.2781124,-0.20358170020268865,-0.22221222674937086,0.7875129899920424,0.5375867448323685,0.684117,-0.033838,1.655713,-3.508,16.687,-6.711,-1.248e-05,-4.86e-06,6.302e-05
1776438807.3019085,-0.20728308151194935,-0.21592267819316308,0.8053878595328495,0.5116263449802966,-0.280199,-0.454908,3.029498,-3.652,13.05,-4.915,-1.283e-05,-5.330000000000001e-06,6.314e-05
1776438807.3270025,-0.211084126510901,-0.22008281171815505,0.8257010410826287,0.4745785902002157,-0.54474,-1.12143,3.222675,-3.01,9.953,-4.936,-1.196e-05,-6.29e-06,6.280000000000001e-05
1776438807.3527436,-0.20945843963876207,-0.21862987826208813,0.8472921075293537,0.43637624008837356,0.375002,-0.954054,3.391299,-2.983,9.137,-6.194,-1.0520000000000001e-05,-6.560000000000001e-06,6.287000000000001e-05
1776438807.3769886,-0.2073095264888122,-0.20811540592804217,0.869161908476914,0.39782950480722173,0.388568,-0.795008,3.552732,-2.278,6.86,-5.854,-1.027e-05,-5.140000000000001e-06,6.127e-05
1776438807.4020917,-0.206797271723131,-0.19550025770647525,0.8881973712890915,0.3607214538667188,1.102286,-0.286516,3.249361,-1.873,4.927,-6.342,-9.810000000000001e-06,-4.32e-06,6.102e-05
1776438807.4270308,-0.2081069366574188,-0.1583144281754481,0.9054158677288782,0.33444005623027345,3.455156,0.956729,2.836356,-1.081,4.161,-3.887,-1.0850000000000001e-05,-7.5e-07,6.0519999999999997e-05
1776438807.4521837,-0.20954282180128764,-0.10588303988583184,0.9199252674501355,0.31403517319384133,3.132578,0.723629,2.794792,0.213,3.839,1.178,-1.2750000000000002e-05,4.01e-06,6.103e-05
1776438807.4777722,-0.20375032226527873,-0.07051706356351062,0.9337180234736991,0.28580378332615425,2.041162,-0.425697,3.136883,0.293,2.908,1.615,-1.224e-05,7.670000000000001e-06,5.981e-05
1776438807.5019743,-0.19021327316235273,-0.04488102470788646,0.948707581244723,0.24851263473477936,1.545215,-1.148315,3.637352,0.711,-0.47,1.81,-1.075e-05,1.012e-05,5.9590000000000004e-05
1776438807.527,-0.16786752986163675,-0.029762828994321748,0.9633044405905968,0.20731430526339592,0.504395,-2.27009,3.413472,0.995,-4.247,2.302,-7.370000000000001e-06,1.278e-05,6.04e-05
1776438807.5519571,-0.13210373121008295,-0.03701778488344238,0.9756500182787254,0.17112956972837898,-0.967618,-3.608561,2.31312,-0.07,-6.121,0.498,-3.08e-06,1.092e-05,5.971e-05
1776438807.57701,-0.08751348148827959,-0.06024912901544932,0.9832970860546962,0.14777778441641115,-1.595013,-4.06311,1.117688,-1.184,-4.731,-1.907,3.3e-06,8.200000000000001e-06,6.021e-05
1776438807.6019866,-0.04048905138866611,-0.0846901520070396,0.986413020064006,0.13482421414151685,-1.297991,-4.08799,0.364425,-2.29,-2.836,-3.105,9.33e-06,4.43e-06,6.017e-05
1776438807.6271088,0.01061169067043813,-0.10597233030991203,0.9855724892021281,0.13154514722224897,-1.18776,-4.466537,-0.514423,-4.051,0.826,-4.96,1.6270000000000002e-05,2.17e-06,5.8280000000000004e-05
1776438807.6520832,0.06342723333088186,-0.12523586744384482,0.9810700399906648,0.13339617764498754,-0.619428,-4.039299,-0.401341,-4.814,6.504,-9.008,2.256e-05,2.8e-07,5.69e-05
1776438807.6770432,0.10228384586270503,-0.13328408803410377,0.9784768817771775,0.11981802276812531,0.320084,-2.792495,1.387268,-4.808,5.656,-9.126,2.733e-05,1.9e-07,5.5010000000000004e-05
1776438807.7020302,0.13118074989558212,-0.12971136237563327,0.9782517794421303,0.09481576528086261,0.796323,-2.559128,1.392007,-6.632,0.011,-6.3,3.051e-05,-1.41e-06,5.279000000000001e-05
1776438807.727026,0.16587120441714587,-0.13383206263970437,0.9737258893495696,0.08020981838401814,-0.436705,-3.111017,0.614432,-7.808,3.798,-9.169,3.4580000000000004e-05,-3.38e-06,5.062e-05
1776438807.7525423,0.19957027260554436,-0.14993894574932878,0.9661717217083564,0.06482455561620994,-1.177004,-2.821913,1.383773,-7.352,5.949,-10.987,3.862e-05,-6.53e-06,4.86e-05
1776438807.7779024,0.22424317533391885,-0.16841546238138994,0.958954693605116,0.04191808630820537,-0.713707,-2.165445,1.75867,-7.755,2.62,-9.542,4.11e-05,-1.059e-05,4.491e-05
1776438807.80217,-0.24710767049033072,0.17627122671969592,-0.9525366234285502,-0.023242952542910006,-0.108951,-2.273762,0.849474,-8.969,2.557,-8.191,4.36e-05,-1.3120000000000001e-05,4.32e-05
1776438807.8271146,-0.2769691135005393,0.1817677586852693,-0.9434783152417153,-0.009862085880469398,-0.42113,-2.923258,0.716981,-10.074,6.398,-10.997,4.5810000000000004e-05,-1.3510000000000001e-05,3.931e-05
1776438807.8530273,-0.3079005296359955,0.1939010905205084,-0.9314220168947787,0.007256541083307158,-0.752916,-2.602039,1.405239,-10.319,7.259,-14.266,4.797e-05,-1.6270000000000002e-05,3.519e-05
1776438807.877085,-0.3272696089128377,0.20754192895002951,-0.9213606279459796,0.030257958965033166,-0.541015,-1.781282,1.891462,-10.968,5.942,-13.579,4.88e-05,-1.9600000000000002e-05,3.167e-05
1776438807.9020462,-0.3440088455416594,0.22353956832968933,-0.9103991888218729,0.05349105133147604,-0.940189,-1.925922,1.901397,-12.069,7.349,-14.231,4.86e-05,-2.4210000000000004e-05,2.958e-05
1776438807.927081,-0.3616820454255947,0.24639600676514986,-0.8956334859460703,0.07947178567917419,-1.543705,-2.232052,2.490859,-14.044,9.161,-16.114,4.7860000000000006e-05,-2.809e-05,2.5180000000000003e-05
1776438807.9519973,-0.3760354792793145,0.2793431466383851,-0.8763790607734846,0.1119127632896572,-2.128384,-1.63181,3.793329,-14.042,10.949,-19.683,4.5770000000000004e-05,-3.278e-05,2.153e-05
1776438807.9770715,-0.36901741727362664,0.32436374553982206,-0.8573711173382716,0.15339189509945872,-1.838898,0.146822,4.790941,-13.993,6.6,-20.059,4.087e-05,-3.9070000000000004e-05,1.828e-05
1776438808.0020852,-0.33730693290798397,0.35592679167214136,-0.8506262025874959,0.18967133535081532,-0.387999,2.202392,3.865786,-12.808,3.569,-17.578,3.6020000000000004e-05,-4.359e-05,1.808e-05
1776438808.0270915,-0.28877498278335667,0.3756963666601248,-0.8553723745026766,0.20928294324790556,0.189616,3.683092,2.875489,-10.521,4.447,-13.594,3.031e-05,-4.609e-05,2.1020000000000002e-05
1776438808.051051,-0.23060294960332994,0.39457733383030097,-0.8623002308115395,0.21810391835998974,0.24594,4.388168,2.484002,-7.752,3.107,-8.699,2.417e-05,-4.822e-05,2.58e-05
1776438808.077198,-0.17815186737919944,0.4102213697779841,-0.8671063880861813,0.2193327418943995,-0.01132,3.562178,1.518003,-5.426,2.307,-5.987,1.894e-05,-4.8830000000000005e-05,2.6200000000000003e-05
1776438808.1016943,-0.14050753457888707,0.42151516903647035,-0.8697009966163508,0.21494829955885827,-0.19616,2.629156,0.827682,-3.776,3.515,-5.52,1.505e-05,-4.9120000000000004e-05,2.961e-05
1776438808.1271174,-0.11913016254108741,0.43954522375952904,-0.8652114822910549,0.2098025060737717,-1.730711,1.540623,0.659721,-3.223,6.126,-7.747,1.3180000000000001e-05,-4.825e-05,2.7360000000000002e-05
1776438808.1521008,-0.10287759969073335,0.46871856881795637,-0.8515152130629859,0.2112840378481483,-2.428446,1.521204,1.610641,-2.973,5.862,-10.405,1.1040000000000001e-05,-4.987e-05,2.5810000000000002e-05
1776438808.1770883,-0.07773799976665621,0.49561447220329785,-0.8382312761966613,0.2137555284446288,-1.34456,2.317429,1.27257,-3.006,1.35,-9.808,7.91e-06,-5.135e-05,2.4060000000000003e-05
1776438808.202063,-0.0454213275201703,0.5086348922367039,-0.8357886337764474,0.20170475714707764,-0.083051,3.087906,0.161816,-3.372,1.434,-7.404,5.3500000000000004e-06,-5.1649999999999995e-05,2.5530000000000005e-05
1776438808.2269895,-0.012954628192881415,0.5189229165555199,-0.8353396678985741,0.1809939875161523,-0.450181,3.198029,-0.003534,-2.147,2.749,-5.398,3.58e-06,-5.174e-05,2.411e-05
1776438808.2510056,0.018140108590044696,0.5350613446250109,-0.8291242599555964,0.1610380560659544,-1.023197,3.106706,-0.020396,-2.215,0.755,-3.716,1.36e-06,-5.182e-05,2.5330000000000003e-05
1776438808.278043,0.046167760951678245,0.5487369153266517,-0.8235411340122171,0.13614821407705444,-0.600658,3.116706,-0.641136,-2.255,0.572,-2.207,4.7000000000000005e-07,-5.168000000000001e-05,2.515e-05
1776438808.3026664,0.07119227638043381,0.557451706049697,-0.8204497694700619,0.10507821364382172,-0.191779,3.079241,-1.129616,-2.348,1.088,-0.193,2.5000000000000004e-07,-5.1559999999999994e-05,2.487e-05
1776438808.3276143,0.0891891607971712,0.5647516569089428,-0.8173150239958835,0.07139335519156147,-0.370737,2.539182,-1.567468,-2.684,2.049,0.956,2.4e-07,-5.2390000000000005e-05,2.541e-05
1776438808.3521895,-0.09914994015944852,-0.5731166519020174,0.8124734111492538,-0.03991927923315891,-0.570987,1.854249,-1.65602,-2.259,2.826,1.36,1.13e-06,-5.205e-05,2.625e-05
1776438808.3772805,-0.10041985297414288,-0.5847497841747394,0.8048566664765839,-0.013758250777187446,-1.119175,1.15436,-1.702125,-1.876,3.996,-0.059,3e-06,-5.2669999999999995e-05,2.542e-05
1776438808.401276,-0.10229187798978373,-0.5967512804871887,0.7958224559316817,0.009534126550999299,-0.823619,1.503334,-1.349254,-1.725,3.901,-1.331,4.65e-06,-5.3410000000000005e-05,2.5380000000000004e-05
1776438808.427062,-0.10937959192690838,-0.6022741302441038,0.7898793836379691,0.03731670151974085,-0.142385,2.012492,-1.689975,-2.22,1.222,0.347,5.7900000000000005e-06,-5.19e-05,2.556e-05
1776438808.4521124,-0.11073464510349301,-0.600315295043175,0.788302378574256,0.07706325223606467,0.679022,1.920445,-2.96455,-3.633,2.552,1.602,7.77e-06,-5.265e-05,2.5940000000000002e-05
1776438808.477373,-0.09973550295565765,-0.5966519329352824,0.7865833441621972,0.12387874337991854,0.377131,1.273093,-3.685269,-4.494,7.37,1.014,1.214e-05,-5.084e-05,2.868e-05
1776438808.5012486,-0.0824192446855221,-0.6002782649991056,0.7782220282868442,0.16505619456488677,-0.268235,0.784079,-3.252223,-3.89,11.611,-1.424,1.658e-05,-5.0570000000000005e-05,3.0240000000000002e-05
1776438808.5271552,-0.07206512469756166,-0.6010267364818721,0.77136049617347,0.1964089223515398,0.130608,1.02178,-2.015749,-3.505,12.139,-2.077,2.017e-05,-4.85e-05,3.12e-05
1776438808.5511503,-0.0714648617709516,-0.5967103981840476,0.7685896181053236,0.21931592092642738,0.354145,1.149677,-1.26038,-3.073,9.318,-0.874,2.1609999999999998e-05,-4.841e-05,3.4070000000000004e-05
1776438808.5772152,-0.06797369707645438,-0.5937405946753735,0.7648580379269119,0.24050751455804187,-0.015993,0.654893,-1.787522,-2.702,7.36,-0.689,2.354e-05,-4.6320000000000004e-05,3.562e-05
1776438808.6028163,-0.05621352104350687,-0.5964709674464858,0.7556583346521094,0.2646562040008604,-0.326734,0.32703,-2.470845,-3.071,9.338,-2.779,2.6340000000000002e-05,-4.507e-05,3.4280000000000004e-05
1776438808.627883,-0.04096782182622059,-0.5960661286225779,0.7468355369762842,0.2919991243018591,0.435568,0.547981,-2.577221,-3.745,11.736,-4.826,2.9470000000000004e-05,-4.3480000000000004e-05,3.6020000000000004e-05
1776438808.6511173,-0.026289449578211666,-0.5900666250139119,0.7405882049320939,0.32040498373312654,0.361465,0.747419,-2.446034,-4.564,12.666,-6.375,3.2300000000000006e-05,-4.069e-05,3.854000000000001e-05
1776438808.6772187,-0.017828713128855755,-0.5808587341742312,0.7338025333295518,0.3518793969541422,0.687948,1.606501,-2.451795,-5.278,12.982,-7.014,3.469e-05,-3.778000000000001e-05,4.1160000000000006e-05
1776438808.7013025,-0.014270360964534351,-0.5622586007428477,0.7295125386802572,0.3891954246865232,1.206626,2.255968,-2.392945,-5.471,13.821,-5.529,3.478e-05,-3.3060000000000005e-05,4.605e-05
1776438808.7272089,-0.013067939707188891,-0.5417563458953404,0.7263655695427125,0.4227556623119654,0.78053,1.789167,-1.827358,-5.029,13.364,-4.019,3.4200000000000005e-05,-2.867e-05,4.97e-05
1776438808.7521615,-0.014335431924126618,-0.5357801717886221,0.7159156201032835,0.44743594826727373,-0.363169,1.256043,-1.840311,-7.023,11.575,-5.801,3.424e-05,-2.655e-05,5.088000000000001e-05
1776438808.7781465,-0.012509375779332338,-0.52243466312031,0.7056972273378208,0.47843177320877406,1.169049,2.102788,-2.378274,-8.481,14.186,-6.794,3.319e-05,-2.357e-05,5.3190000000000004e-05
1776438808.801183,-0.007803424103538792,-0.49528166923802114,0.7010808286629495,0.512953064490633,1.442469,2.095418,-2.089694,-9.307,16.93,-5.431,3.1400000000000004e-05,-1.857e-05,5.758e-05
1776438808.8261535,-0.011430548310434746,-0.4796311153124171,0.6952455769254492,0.5352167070963771,-0.105173,1.586407,-0.760644,-9.215,17.822,-6.245,2.922e-05,-1.6400000000000002e-05,5.864000000000001e-05
1776438808.8509617,-0.026288370167126346,-0.46898059240013407,0.6925835822108909,0.5474432456409575,0.023381,1.915544,-0.005616,-9.592,15.451,-6.081,2.5900000000000003e-05,-1.599e-05,6.0729999999999996e-05
1776438808.8765247,-0.04189357436875482,-0.45309657104795154,0.692594867486996,0.5596970388182063,0.229058,2.040853,-0.100005,-10.02,15.372,-5.533,2.216e-05,-1.462e-05,6.146000000000001e-05
1776438808.9021618,-0.05995882645306058,-0.43534436090153694,0.6935463605522588,0.5708534595903929,0.375085,2.364,0.385483,-9.671,16.898,-5.715,1.94e-05,-1.409e-05,6.171e-05
1776438808.927109,-0.08298569144154982,-0.4146463773912693,0.6992732548975774,0.5763667857512376,0.171161,2.335639,1.16457,-8.932,15.618,-4.137,1.4280000000000002e-05,-1.4710000000000001e-05,6.279e-05
1776438808.951184,-0.10973121876063796,-0.3962993648231462,0.7076491247540977,0.5745768784982871,0.035505,2.129562,1.659599,-8.681,13.945,-2.793,9.5e-06,-1.5210000000000002e-05,6.361000000000001e-05
1776438808.976162,-0.13594769158439754,-0.3819006800360869,0.7176383326745809,0.5662731842643579,-0.311986,1.488598,2.049575,-8.067,13.547,-1.596,5.61e-06,-1.5490000000000002e-05,6.221e-05
1776438809.0014002,-0.16303880889643846,-0.3791419489486236,0.7290718559055316,0.5460072877421452,-1.035378,0.739341,2.900991,-7.497,13.244,-3.2,2.55e-06,-1.886e-05,6.223e-05
1776438809.0271993,-0.18845100032651232,-0.36778042759378027,0.7470582277635339,0.520699320035739,0.259307,1.153644,3.292305,-6.867,11.031,-3.226,-8.900000000000001e-07,-1.903e-05,5.9919999999999996e-05
1776438809.0506306,-0.21271505126327245,-0.34760666340774254,0.7673118201747879,0.49513077579630793,0.484193,1.262892,3.451413,-5.762,9.559,-1.49,-3.99e-06,-1.886e-05,5.949e-05
1776438809.0760307,-0.23445478063903763,-0.3224127596733839,0.7890282103851448,0.46745636315244377,1.111763,1.109495,3.657247,-4.395,7.822,0.872,-7.74e-06,-1.772e-05,5.8750000000000005e-05
1776438809.1022327,-0.24749790079518036,-0.29228100188501804,0.8132675345689873,0.43807821476894987,1.465945,0.351618,3.750847,-2.932,6.439,3.061,-1.126e-05,-1.612e-05,5.921e-05
1776438809.1274462,-0.25077459727841084,-0.27083467332523586,0.8381111380713386,0.40165955898674843,0.893519,-0.86173,3.706725,-2.217,4.357,3.246,-1.2110000000000001e-05,-1.4330000000000002e-05,5.915000000000001e-05
1776438809.1514604,-0.24280601886279218,-0.2564945262029616,0.8624585962968818,0.3625202958532556,1.024169,-1.768862,3.361526,-2.094,2.739,2.543,-1.1310000000000002e-05,-1.2920000000000002e-05,5.944000000000001e-05
1776438809.1761823,-0.22317517533670883,-0.2537168840943448,0.884332509277089,0.3221437518788365,-0.10341,-2.995476,2.832035,-2.759,1.755,0.575,-8.62e-06,-1.156e-05,5.929e-05
1776438809.2008111,-0.19690681543184663,-0.260968693044706,0.9015155295009825,0.28353623640654796,0.078676,-3.023457,2.363385,-2.481,2.756,-2.588,-5.750000000000001e-06,-1.22e-05,5.7850000000000003e-05
1776438809.2263887,-0.1719196880752547,-0.2500283010744816,0.9185315199862156,0.2534350336984368,2.209027,-2.103548,2.122532,-2.868,2.811,-1.356,-2.64e-06,-1.202e-05,5.8009999999999995e-05
1776438809.2512312,-0.1468259799036191,-0.22627894991689498,0.9361354319482769,0.2255890544792955,2.054165,-2.450628,2.318982,-2.689,2.434,1.566,-7.2e-07,-1.005e-05,5.915000000000001e-05
1776438809.2766266,-0.11247113904322693,-0.22021162503026454,0.9505028484423947,0.18815264597327205,0.222955,-3.76642,2.702455,-2.86,1.45,-1.117,3.5100000000000003e-06,-9.54e-06,5.8030000000000005e-05
1776438809.301476,-0.07481720208454588,-0.21831882739135988,0.9621157711315897,0.14516376551525628,1.075837,-3.444668,2.774101,-2.415,-1.064,-4.235,8.17e-06,-9.5e-06,5.76e-05
1776438809.3261974,-0.04306762796631358,-0.19709093088258556,0.9733034195496434,0.10945683111693832,2.445065,-2.596997,2.126721,-2.368,-3.149,-2.957,1.141e-05,-8.500000000000002e-06,5.682000000000001e-05
1776438809.352181,-0.010519795958605431,-0.17323430726772512,0.9811737101328285,0.08471929663684091,1.805495,-3.141053,1.188038,-3.181,-2.185,-0.954,1.4210000000000001e-05,-7.13e-06,5.6550000000000006e-05
1776438809.3768592,0.038011016744819937,-0.17279594832051134,0.9822325772063984,0.06257704950312454,-0.386173,-4.569642,1.256877,-3.358,2.465,-6.288,1.974e-05,-7.71e-06,5.4040000000000004e-05
1776438809.401407,0.08528806269490836,-0.18227374800518945,0.9790496301894214,0.03104913486471586,-0.0297,-3.723014,2.010391,-4.42,0.589,-9.863,2.501e-05,-1.065e-05,5.2480000000000006e-05
1776438809.426339,-0.1196925565098798,0.17866550892463762,-0.9765982715310638,-0.002853748301375903,0.731919,-2.916254,1.268864,-5.666,-1.639,-7.553,2.907e-05,-1.2970000000000001e-05,5.045e-05
1776438809.4512708,-0.1576807903546218,0.17365128873152927,-0.9720064659348107,0.013617211753544335,-0.138744,-3.786562,0.504787,-6.998,3.421,-7.329,3.26e-05,-1.3860000000000001e-05,4.838e-05
1776438809.4762166,-0.2114146105366549,0.19043226136435645,-0.9581613900261937,0.031083226125423136,-1.844037,-4.771131,1.309071,-8.059,7.686,-14.144,3.7890000000000005e-05,-1.573e-05,4.2930000000000004e-05
1776438809.5015302,-0.25402479663995103,0.216514881505096,-0.9407264641933257,0.060219833486892665,-1.579722,-3.159925,2.380758,-8.417,4.53,-16.927,4.057e-05,-2.075e-05,3.7930000000000004e-05
1776438809.5262277,-0.27382822738235035,0.230103761363596,-0.9300272100353906,0.08437860800435551,-0.490693,-1.453541,1.171718,-9.267,2.079,-13.775,4.1370000000000005e-05,-2.478e-05,3.495e-05
1776438809.5514832,-0.2851329289357755,0.2336076630935217,-0.924799786508052,0.09419144045586723,-0.22573,-1.081558,0.566842,-9.32,8.222,-11.343,4.114e-05,-2.549e-05,3.4280000000000004e-05
1776438809.577854,-0.295596601908538,0.24245465402875793,-0.9174279099038632,0.11029242861298073,-0.742968,-1.164217,1.79645,-9.573,9.114,-12.367,4.1410000000000005e-05,-2.868e-05,3.113e-05
1776438809.6015267,-0.3014498533697543,0.2547304458211921,-0.9092891780340254,0.13203626996131346,-0.465857,-0.775157,1.612869,-10.522,5.927,-12.936,4.002e-05,-3.185e-05,3.069e-05
1776438809.626755,-0.30243520300298277,0.2606011610317607,-0.9049383026498307,0.14733177271276723,-0.002353,-0.21246,1.204391,-10.574,9.805,-13.579,3.867e-05,-3.253e-05,2.9830000000000004e-05
1776438809.6512625,-0.29514914524186314,0.27030449336319073,-0.90064976212486,0.16927040176917874,-0.353757,0.234767,2.810219,-9.583,10.739,-12.778,3.731e-05,-3.404e-05,2.8710000000000005e-05
1776438809.6762624,-0.2868635805181598,0.2914790863808381,-0.8892318551446771,0.2049778919075153,-1.145378,-0.586314,3.392965,-9.546,3.083,-11.492,3.3560000000000004e-05,-3.8700000000000006e-05,2.697e-05
1776438809.7011907,-0.29095173351006876,0.3148937200185794,-0.872979512376917,0.23258504859622206,-1.460821,-0.882033,2.169085,-9.185,2.811,-16.338,3.062e-05,-4.16e-05,2.5380000000000004e-05
1776438809.7262902,-0.2892474164085019,0.33355975843385083,-0.8622886723634685,0.24805657654697333,-0.975912,0.479081,1.637102,-8.889,5.778,-19.656,2.8470000000000004e-05,-4.3690000000000004e-05,2.396e-05
1776438809.7513056,-0.2639950728003458,0.3505021522188591,-0.8613155772083374,0.25610607037974775,-0.066289,2.780784,1.655417,-8.531,6.419,-17.604,2.5330000000000003e-05,-4.553e-05,2.516e-05
1776438809.7765176,-0.21903109554793188,0.3647875134075492,-0.8674597768922239,0.25781579610082667,-0.058658,3.591276,1.519462,-7.09,5.866,-10.616,2.112e-05,-4.533e-05,2.7870000000000003e-05
1776438809.8015313,-0.18015967077775655,0.391309803779483,-0.8641787751713382,0.2600272582532043,-1.636523,2.779666,1.884887,-5.527,3.993,-7.944,1.766e-05,-4.6450000000000004e-05,2.691e-05
1776438809.8263166,-0.14830760504912052,0.4182527694640089,-0.8574763840020831,0.26039148603399603,-1.025188,2.687437,1.290011,-4.09,3.442,-7.606,1.3630000000000002e-05,-4.814e-05,2.525e-05
1776438809.8522997,-0.11842941478962866,0.43764793586275813,-0.853886926205343,0.2555697071314292,-1.022279,2.39432,0.833167,-3.217,4.389,-6.669,1.0290000000000001e-05,-4.8790000000000006e-05,2.7760000000000002e-05
1776438809.8764427,-0.09228757610949764,0.4574744838638379,-0.8480418879163676,0.2510479162402901,-1.030797,2.30856,1.015862,-2.441,4.802,-7.485,7.94e-06,-4.969e-05,2.6040000000000005e-05
1776438809.9015367,-0.06550342275342719,0.4789123139923103,-0.8397330152857937,0.24738787390077452,-1.405064,2.314895,1.016171,-1.97,2.741,-7.033,5.04e-06,-5.047e-05,2.6440000000000004e-05
1776438809.9263513,-0.03933858155461553,0.5013968051877286,-0.8303168937940646,0.24005744235283752,-1.148718,2.602758,0.674519,-1.279,1.629,-6.768,2.4000000000000003e-06,-4.9710000000000003e-05,2.522e-05
1776438809.951327,-0.009332134571666748,0.516973127893302,-0.8256703008920133,0.22565515842861678,-0.394551,2.958241,0.141048,-0.943,0.415,-4.868,8.200000000000001e-07,-5.074e-05,2.3820000000000002e-05
1776438809.9763827,0.019544708033285646,0.5256762031893026,-0.8258321235689045,0.20318424513245695,0.218761,3.037949,-0.533087,-0.762,0.81,-3.631,-6.100000000000001e-07,-5.024e-05,2.427e-05
1776438810.0017188,0.04749235334822191,0.5295152807145384,-0.8285534657810397,0.17566217067279655,0.310677,3.020213,-0.791206,-0.815,0.4,-1.357,-1.73e-06,-5.093e-05,2.542e-05
1776438810.0265365,0.06840058451009665,0.5341102270699926,-0.8296452725814148,0.14743251697379456,0.024631,2.283303,-1.200404,-0.921,-0.421,0.825,-1.94e-06,-5.0100000000000005e-05,2.5940000000000002e-05
1776438810.0513537,0.07360510618854907,0.5398582357282043,-0.829887559087584,0.12009168552008262,-0.1765,1.131346,-1.935597,-1.339,0.258,0.688,-9.5e-07,-5.047e-05,2.759e-05
1776438810.0763402,0.06537083515223313,0.548271373106004,-0.8283060743731715,0.09504842187255211,-0.979308,0.369313,-1.934924,-1.463,2.965,-1.813,1.83e-06,-5.005e-05,2.707e-05
1776438810.1021829,0.055265761655144095,0.5655427924409709,-0.8194080883644804,0.07534872414058108,-1.701436,0.553274,-1.796146,-2.095,2.129,-5.249,3.9300000000000005e-06,-5.08e-05,2.398e-05
1776438810.1264539,0.05480674053216039,0.5813986435298981,-0.8104549677436282,0.04620155574771896,-0.782256,2.145834,-2.080793,-2.264,1.269,-5.626,6.02e-06,-5.155e-05,2.3160000000000002e-05
1776438810.1522634,-0.06550765589584444,-0.5784535967820801,0.8130792604897127,0.0015164268556487476,1.224909,3.10624,-2.951665,-3.464,1.003,-0.053,8.350000000000001e-06,-5.147000000000001e-05,2.7550000000000002e-05
1776438810.1778393,-0.06200505511401405,-0.574265106341389,0.814589872834688,0.053087661977035724,-0.476715,1.194443,-3.71068,-4.729,5.155,0.988,1.2030000000000002e-05,-5.0360000000000006e-05,2.84e-05
1776438810.201749,-0.04663562691053727,-0.5938454521602653,0.7983026170846327,0.08880106309643786,-2.259023,0.688949,-2.831159,-4.881,7.775,-5.069,1.636e-05,-5.056000000000001e-05,2.849e-05
1776438810.2263198,-0.04433267534759189,-0.6108506890702148,0.7804565331939963,0.12563299468602016,-1.178465,2.144499,-2.711024,-5.911,5.738,-4.827,1.948e-05,-4.9550000000000005e-05,2.6510000000000002e-05
1776438810.2513354,-0.04540725149168087,-0.6119809533002469,0.7700692063188177,0.17438724663575192,-0.224945,2.480757,-3.321942,-6.735,5.816,-1.022,2.226e-05,-4.937e-05,2.865e-05
1776438810.2769241,-0.0385512502274217,-0.6109441029028299,0.7578287015325026,0.2257360480023519,-0.358227,1.92398,-3.871665,-6.786,8.492,-1.232,2.6079999999999998e-05,-4.6960000000000004e-05,3.122e-05
1776438810.301571,-0.025834370084508354,-0.6053584131164025,0.7452602084923523,0.27831816079706906,0.490424,2.032196,-4.05671,-7.77,12.178,-3.504,2.9900000000000002e-05,-4.4550000000000005e-05,3.539e-05
1776438810.326377,-0.01438451319883799,-0.5898920180765153,0.7365653704101599,0.330593327068458,0.87269,2.279077,-3.61014,-9.709,14.18,-4.208,3.332e-05,-3.965e-05,3.871e-05
1776438810.3522923,-0.007582612938631522,-0.5763681890832383,0.7247739590879444,0.37741876320861184,0.108063,2.064755,-3.278382,-10.763,14.651,-4.321,3.541e-05,-3.4960000000000004e-05,4.33e-05
1776438810.3764217,-0.0039731359758253815,-0.5687802094359795,0.707033334863041,0.4202108410511657,-0.323529,2.048671,-3.020829,-11.106,16.351,-5.666,3.616e-05,-3.036e-05,4.5950000000000006e-05
1776438810.4015834,-0.006576105392274212,-0.5551549170196123,0.6923961270685012,0.4608116493398977,0.341106,2.821298,-2.397788,-11.052,16.898,-6.608,3.6e-05,-2.7289999999999998e-05,4.8309999999999997e-05
1776438810.426431,-0.01675467340004433,-0.5286194922740074,0.683507324669894,0.5030889090705863,1.036832,3.829482,-2.278044,-12.608,15.442,-5.004,3.275e-05,-2.344e-05,5.263e-05
1776438810.4521692,-0.027420864982093035,-0.4912600226222753,0.6737472258875489,0.5513405136080857,1.321019,4.201931,-2.663823,-12.984,17.184,-1.667,2.7839999999999998e-05,-1.91e-05,5.847e-05
1776438810.4764838,-0.03323472042590911,-0.44937772386055974,0.6643347623940679,0.5963341664963795,1.739802,3.556772,-2.240639,-12.713,20.996,-0.414,2.218e-05,-1.367e-05,6.171e-05
1776438810.5015204,-0.04028239318842369,-0.42263104937382867,0.6579451005929136,0.621987595945426,0.035529,1.921799,-0.629825,-13.139,22.658,-2.661,1.812e-05,-1.111e-05,6.441e-05
1776438810.5265365,-0.060550206261064554,-0.4117206077006498,0.658357000835067,0.6272048095859963,-0.298235,1.982825,1.093732,-12.709,20.808,-5.988,1.4360000000000001e-05,-1.081e-05,6.434e-05
1776438810.5514271,-0.08649224528866767,-0.38872104020996195,0.6707762561452635,0.6256790380017169,0.594875,2.597961,1.954911,-11.219,16.938,-4.83,1.079e-05,-1.1570000000000001e-05,6.377000000000001e-05
1776438810.5764563,-0.11094336249752251,-0.3549975821580384,0.6897703031486393,0.6211966000180013,1.402415,2.749537,2.315137,-10.223,14.776,-4.022,4.93e-06,-1.0510000000000001e-05,6.399e-05
1776438810.6017954,-0.1354076851588247,-0.3236878558774471,0.7096437369235328,0.6109801121170749,0.419944,2.148628,2.734747,-8.885,14.115,-4.03,-3.9e-07,-1.0290000000000001e-05,6.558e-05
1776438810.6266453,-0.1649429340577715,-0.3057823738250012,0.7290005974386985,0.5897873322617074,-0.403648,1.598554,3.320365,-7.511,12.193,-4.728,-4.28e-06,-1.081e-05,6.351000000000001e-05
1776438810.6513987,-0.1934333038028493,-0.2880361985568612,0.7501068883753033,0.5629905517082393,0.31237,1.665592,3.538164,-6.979,10.446,-5.816,-7.84e-06,-1.145e-05,6.267000000000001e-05
1776438810.6764948,-0.21897508097934676,-0.2539491434205955,0.7729792300665045,0.5385748382089792,1.406992,2.409926,3.775395,-5.42,9.23,-3.886,-1.234e-05,-9e-06,6.147e-05
1776438810.7015393,-0.2467661305093024,-0.21623815496761867,0.7965619377468235,0.5077761480245916,0.952347,2.115283,4.30915,-3.076,5.605,-0.179,-1.652e-05,-7.15e-06,6.03e-05
1776438810.726434,-0.26755648817328176,-0.18068098289262302,0.819439974099466,0.4735884678760693,1.378409,1.539049,3.920886,-2.394,2.572,1.02,-1.992e-05,-4.96e-06,5.9430000000000005e-05
1776438810.7515469,-0.2790538472406123,-0.13989402569873904,0.8375376844358972,0.44842974819225506,2.263507,1.538608,3.041775,-1.497,2.382,3.842,-2.2850000000000003e-05,-1.83e-06,5.951e-05
1776438810.7787716,-0.28196536823766416,-0.1017525513375689,0.8537252704040937,0.42578763730802577,1.858575,0.269411,2.994853,-0.936,2.344,7.889,-2.4220000000000002e-05,1.98e-06,5.7260000000000004e-05
1776438810.8015583,-0.2653990685626218,-0.08484536937410439,0.8747974885750571,0.3963507937227294,0.752679,-2.284969,2.963402,-1.321,1.247,7.311,-2.273e-05,4.5500000000000005e-06,5.891e-05
1776438810.8266573,-0.23028702347838947,-0.08675160877703077,0.899095834864552,0.3620341488330552,0.376171,-3.698229,2.793985,-2.383,-0.287,3.04,-1.726e-05,6.22e-06,5.944000000000001e-05
1776438810.8523803,-0.18611898650675035,-0.08837491742010475,0.9205416573575022,0.3318925336644272,1.034719,-3.868147,2.267883,-2.472,0.017,0.384,-1.235e-05,7.430000000000001e-06,5.981e-05
1776438810.8766239,-0.13725823850939156,-0.09054607689691876,0.9390295420649174,0.30196871203690573,0.557631,-4.388652,2.368003,-2.864,-0.458,-0.826,-5.47e-06,7.660000000000001e-06,6.0429999999999996e-05
1776438810.901641,-0.08293657652869038,-0.10840882560220065,0.9534384593480989,0.2689315062263552,-0.699271,-5.109487,1.950724,-4.495,-1.899,-4.125,1.8200000000000002e-06,5.98e-06,6.123e-05
1776438810.926495,-0.028720710125415418,-0.12098667407132574,0.9610319989694305,0.24689034501954768,0.792339,-4.174472,1.140024,-4.702,2.717,-8.041,1e-05,4.77e-06,5.94e-05
1776438810.951552,0.015978483934995638,-0.1183108010791204,0.9681121502417065,0.2202410201427867,0.813442,-3.658018,2.042531,-6.368,2.029,-6.792,1.567e-05,5.49e-06,5.928e-05
1776438810.9766874,0.06253852223509376,-0.129996589593691,0.971072199001962,0.19028558604411988,-0.432276,-4.246804,1.851536,-7.63,2.845,-10.009,2.1740000000000002e-05,3.6e-06,5.7350000000000005e-05
1776438811.0015764,0.10543384548304705,-0.14762671110766024,0.9705677019918741,0.1583931635027373,-0.766767,-3.671916,2.535306,-7.862,4.638,-12.52,2.689e-05,5.5e-07,5.4579999999999996e-05
1776438811.0265229,0.14097760618144545,-0.17304896590566493,0.9678020266165371,0.11635552084560903,-1.405261,-3.682321,3.196663,-8.594,1.794,-13.272,3.167e-05,-4.5e-06,5.102e-05
1776438811.0515847,0.1766053756619512,-0.19997494005661146,0.9608978681123386,0.07413401172079293,-1.288599,-3.568311,2.735932,-8.95,0.251,-15.669,3.555e-05,-1.061e-05,4.836e-05
1776438811.0774891,-0.20563250548258283,0.2204354218353925,-0.9525286508183922,-0.04257542553282916,-0.871226,-2.421392,2.010078,-8.936,3.738,-18.013,3.834e-05,-1.5620000000000003e-05,4.3219999999999996e-05
1776438811.102451,-0.21866725697356987,0.24147064525269124,-0.945364124017638,-0.012776197762540839,-1.28904,-1.323165,2.480821,-8.575,3.78,-16.214,3.892e-05,-2.001e-05,4.21e-05
1776438811.126594,-0.2222364763240148,0.2601548207343193,-0.9395266541720471,0.014835226323133256,-0.8572,-0.729574,2.184009,-7.377,2.401,-13.051,3.7980000000000006e-05,-2.235e-05,3.915e-05
1776438811.1517284,-0.22493904680517562,0.27139441073025855,-0.9351199087732035,0.03603130947870573,-0.39558,-0.80392,1.441587,-7.909,3.898,-11.102,3.692e-05,-2.5650000000000003e-05,3.753e-05
1776438811.1784627,-0.2344840415703488,0.2826761212479791,-0.928565609018392,0.0536409775576048,-1.043251,-1.398831,1.551207,-8.89,9.191,-13.586,3.6780000000000004e-05,-2.718e-05,3.5010000000000005e-05
1776438811.20208,-0.24386561814860985,0.3099103546144655,-0.9153169533241599,0.08173131190131752,-2.241968,-1.370766,2.977846,-8.932,7.385,-16.59,3.579e-05,-3.236e-05,3.3820000000000005e-05
1776438811.226578,-0.24469901511151693,0.3413563385759776,-0.9006929175164761,0.11113285046787211,-1.805531,-0.323284,2.627058,-8.192,4.087,-18.179,3.359e-05,-3.705e-05,3.016e-05
1776438811.2515943,-0.22671952290702435,0.35770794152550395,-0.8968678754440971,0.12755900790924002,0.027809,1.734515,1.579036,-7.107,4.684,-15.313,3.0220000000000005e-05,-3.912e-05,3.0669999999999996e-05
1776438811.2760012,-0.19482333531256046,0.3619794340551445,-0.9018604602690884,0.1329002164860349,-0.099051,2.251283,1.515142,-5.828,8.511,-8.884,2.6900000000000003e-05,-3.905e-05,3.2370000000000003e-05
1776438811.302497,-0.1707384945607836,0.3873038282425182,-0.8935089983725948,0.14995259561277804,-2.266889,0.770374,2.712028,-5.029,4.604,-7.563,2.3760000000000003e-05,-4.053e-05,3.0890000000000004e-05
1776438811.3271525,-0.15820046471005433,0.415362332527504,-0.8796215392497193,0.16944820261893836,-1.618627,0.484669,1.99629,-4.07,2.542,-10.881,2.004e-05,-4.3650000000000004e-05,2.86e-05
1776438811.3524663,-0.1416273872898644,0.4327901434990241,-0.8720812387492941,0.1791889725430603,-0.75294,1.362906,1.308949,-3.486,3.222,-11.305,1.7670000000000002e-05,-4.574e-05,2.8899999999999998e-05
1776438811.3766263,-0.11959440071839467,0.4454860529832691,-0.8684060502477269,0.18196232524162442,-0.96173,1.503348,1.195151,-2.483,4.228,-8.836,1.4979999999999999e-05,-4.699e-05,2.758e-05
1776438811.4016309,-0.10162815827972348,0.4675912832723801,-0.8581356990945792,0.18610005693663306,-1.546003,1.452569,1.237006,-2.864,3.075,-10.266,1.23e-05,-4.812000000000001e-05,2.718e-05
1776438811.42655,-0.07566668235432664,0.48184895300727737,-0.8536121335769443,0.18287281120357132,-0.22226,2.467932,0.678251,-2.431,1.744,-8.267,9.410000000000001e-06,-4.818e-05,2.6900000000000003e-05
1776438811.4519162,-0.04709501563997683,0.4862907113869786,-0.8559466359780863,0.16928898333445738,0.114778,2.403131,-0.176854,-2.606,1.933,-5.3,8.200000000000001e-06,-4.769e-05,2.697e-05
1776438811.4766178,-0.025848165482713056,0.4926728328940143,-0.8563688429267489,0.15243935493718896,-0.33802,2.194322,-0.280464,-2.006,3.606,-5.633,7.11e-06,-4.684e-05,2.7700000000000002e-05
1776438811.502322,-0.0016639854347156938,0.5003422536536595,-0.855284164118002,0.13469914242570644,-0.169618,2.661669,-0.25788,-1.337,1.585,-3.418,5.65e-06,-4.788e-05,2.924e-05
1776438811.526713,0.02426004193539867,0.5013872526938236,-0.8578050985443781,0.11042049679612158,0.663412,2.674159,-1.047454,-1.456,0.096,0.318,4.66e-06,-4.75e-05,2.958e-05
1776438811.551571,0.03337772883710112,0.4974219916307384,-0.8631837722130082,0.07981895043100896,0.309576,1.062926,-2.113149,-1.39,3.485,1.628,5.56e-06,-4.6460000000000006e-05,3.202e-05
1776438811.5765562,0.025844752605822967,0.5020825417835932,-0.8625049602549365,0.057709301975513494,-0.493906,0.242638,-1.497156,-0.807,7.504,-2.055,7.480000000000001e-06,-4.5190000000000006e-05,3.157e-05
1776438811.6025941,0.025384206639758912,0.5046647753906207,-0.8618169805960154,0.044052224570065246,0.119509,0.734055,-0.656231,-0.421,5.856,-1.513,8.7e-06,-4.5100000000000005e-05,3.016e-05
1776438811.6272197,0.028563837894245978,0.5021697074347542,-0.8637152963950806,0.03171086364012358,0.366251,0.562679,-0.927872,0.14,2.655,1.154,9.15e-06,-4.463e-05,3.072e-05
1776438811.6523182,0.01955410361462475,0.5020331397298574,-0.8644683478956208,0.016578272872221828,-0.340353,-0.491552,-1.704974,-0.082,3.793,0.701,1.103e-05,-4.467e-05,3.415e-05
1776438811.676905,-0.0016076484705347656,0.509677224276158,-0.860360970821104,0.0023542320008434936,-0.778027,-0.947696,-1.823159,-1.376,7.152,-3.864,1.414e-05,-4.496e-05,3.245e-05
1776438811.702282,-0.019841865524597792,0.5153249644250818,-0.8566835372200281,-0.011823640258926835,-0.363594,-0.432619,-1.652694,-2.024,8.193,-6.044,1.713e-05,-4.478e-05,3.02e-05
1776438811.7273042,0.031037650177407106,-0.5178658064569889,0.8544398870399403,0.028002682180305077,-0.224686,0.090753,-1.524949,-1.775,8.572,-6.225,1.9600000000000002e-05,-4.3530000000000005e-05,3.218e-05
1776438811.752435,0.03689735978596285,-0.5232526155484537,0.8502282369385574,0.04424059532691291,-0.925551,0.332923,-1.19566,-1.827,8.259,-6.083,2.137e-05,-4.356e-05,3.0940000000000005e-05
1776438811.7779052,0.03682666296010119,-0.5315145151357885,0.8439378363431591,0.06249036312598692,-0.499848,1.034991,-1.390587,-2.584,6.517,-5.355,2.282e-05,-4.359e-05,3.101e-05
1776438811.8018262,0.03559138910409007,-0.5281716874183641,0.8436335705779299,0.08972357675222488,0.477385,1.317754,-2.050745,-2.785,7.344,-3.15,2.37e-05,-4.3490000000000005e-05,3.319e-05
1776438811.8271806,0.03798417969599631,-0.5191640714494817,0.8453694520370943,0.1199014535830252,0.605636,1.006742,-2.094583,-2.323,9.801,-2.064,2.6190000000000005e-05,-4.117e-05,3.423e-05
1776438811.8522778,0.04330748159175809,-0.5151091667143062,0.8442581438364944,0.1414750683718864,-0.0375,0.292916,-1.413831,-2.578,9.04,-2.588,2.767e-05,-3.942e-05,3.7080000000000004e-05
1776438811.8768263,0.05167704973526028,-0.5205058510963927,0.8380119066868328,0.15536790452399846,-0.852611,-0.241484,-1.454282,-2.99,5.684,-4.269,2.991e-05,-3.7930000000000004e-05,3.691e-05
1776438811.9017541,0.06361918338190405,-0.5266876696388822,0.8292882315955293,0.1755953504320171,-0.444703,0.169463,-2.179029,-3.255,6.75,-6.077,3.215e-05,-3.726e-05,3.529e-05
1776438811.926632,0.07317784740281684,-0.5220792584370779,0.8252704293533843,0.20250177528644456,0.510483,0.70595,-2.334204,-3.942,6.773,-4.71,3.486e-05,-3.4830000000000004e-05,3.6870000000000004e-05
1776438811.9516225,0.0880562630114279,-0.5123337703990142,0.8224955899394364,0.2307838962825851,0.070981,-0.17412,-2.749416,-4.964,7.659,-4.673,3.724e-05,-3.192e-05,3.936e-05
1776438811.9764218,0.10653264985159487,-0.5211214934207715,0.8072110899671407,0.2559168611962936,-1.421551,-0.235774,-2.49161,-6.46,9.886,-10.729,4.072e-05,-2.974e-05,3.778000000000001e-05
1776438812.0019357,0.11022925661022112,-0.5241447242263988,0.7946966339591358,0.2856205157666545,-0.396119,1.542826,-2.184465,-6.863,9.564,-10.251,4.209e-05,-2.7989999999999998e-05,3.956e-05
1776438812.0265424,0.10540689695507621,-0.5133845028170851,0.7893256700393925,0.3198292121717783,0.189881,1.943178,-2.279615,-7.5,7.768,-6.061,4.206e-05,-2.373e-05,4.178e-05
1776438812.051563,0.10476450358800463,-0.5042040194600423,0.7797201139354014,0.3561449837816909,-0.259969,1.651603,-2.760254,-9.605,10.29,-7.175,4.2680000000000005e-05,-2.0200000000000003e-05,4.364e-05
1776438812.0766885,0.1015514726034813,-0.49340683140574004,0.7679720837990149,0.39554503617111736,-0.05626,2.319829,-2.695138,-11.344,13.635,-7.287,4.185e-05,-1.7349999999999998e-05,4.663e-05
1776438812.1018605,0.09415416345859465,-0.475304215732514,0.7596457829837413,0.4337731900490519,0.204531,2.395213,-2.216869,-11.242,15.948,-5.31,3.9710000000000004e-05,-1.329e-05,5.0610000000000005e-05
1776438812.126812,0.08311788267992468,-0.4622460661544896,0.7533596750096007,0.4602925069702247,-0.130314,1.905493,-0.973758,-10.153,15.882,-6.126,3.711e-05,-1.005e-05,5.217000000000001e-05
1776438812.1510184,0.06851875872407082,-0.44692207645587373,0.7526417205716657,0.47864002938973393,0.627523,2.421444,-0.682123,-10.877,13.416,-7.949,3.3910000000000006e-05,-9.28e-06,5.533000000000001e-05
1776438812.1769595,0.05136492140788296,-0.4190181993845501,0.7556290153383215,0.5008095292744841,1.098248,3.079662,-0.787468,-10.731,14.061,-5.38,2.944e-05,-5.53e-06,5.7850000000000003e-05
1776438812.2018821,0.03202135014274607,-0.3946833426946965,0.7582432401943945,0.5179448627352936,0.889557,2.503077,0.004639,-8.984,15.681,-4.986,2.5679999999999998e-05,-4.6300000000000006e-06,5.9119999999999996e-05
1776438812.226754,0.020202147668062914,-0.35133122391686333,0.7735770002286014,0.5270074658370554,3.993288,3.375287,0.490984,-9.873,14.854,-8.847,2.0870000000000002e-05,-1.1100000000000002e-06,5.9760000000000004e-05
1776438812.251819,0.009640353886724184,-0.27601637378498567,0.7962048224782476,0.5383120894443186,4.853221,4.494603,0.356032,-10.313,13.659,-6.353,1.3800000000000002e-05,6.110000000000001e-06,6.385e-05
1776438812.2779117,-0.008163676081322499,-0.21231280738141378,0.8116472547516902,0.5441372621579106,2.575082,3.457481,1.04772,-6.917,13.925,-3.207,7.13e-06,1.1210000000000001e-05,6.224e-05
1776438812.3018696,-0.02874764853738155,-0.1793288758612216,0.8275494512014419,0.531203005264573,1.160984,2.104663,2.316973,-4.973,9.145,-5.512,2.95e-06,1.306e-05,6.36e-05
1776438812.3268685,-0.04553614383181579,-0.1498587609565587,0.8441555001280403,0.5127087896389834,1.668677,2.21611,2.002222,-4.417,5.493,-8.488,1.1e-07,1.5120000000000001e-05,6.21e-05
1776438812.3526633,-0.06452419724424577,-0.11377394758332933,0.8556833997619253,0.5006975496176954,1.569399,2.773477,1.503647,-3.381,5.924,-7.683,-2.6300000000000002e-06,1.683e-05,5.9130000000000005e-05
1776438812.3773108,-0.0891516611761944,-0.08405502571327228,0.8645345779636141,0.4874081425942141,0.777541,2.56231,1.779577,-1.739,5.665,-4.981,-6.6e-06,1.785e-05,5.958e-05
1776438812.4017956,-0.10950315706565025,-0.05821135231335384,0.8739748096798329,0.4698813989717043,1.560358,2.131065,1.863979,-1.209,4.135,-5.786,-9.370000000000002e-06,1.8140000000000003e-05,5.957e-05
1776438812.4270062,-0.12131095667686931,-0.010227919080572669,0.8811666076523041,0.4568637116470888,3.319684,2.814177,1.643103,-0.991,4.765,-7.093,-1.1740000000000001e-05,2.173e-05,5.673000000000001e-05
1776438812.4519594,-0.13742063399123727,0.04436770429786846,0.8860089716674288,0.4406077374418302,2.905563,3.157468,2.105229,0.001,5.053,-5.347,-1.553e-05,2.6410000000000003e-05,5.475e-05
1776438812.4768066,-0.15144842680470902,0.10788270186612285,0.8887240753077069,0.41903963371607844,4.355908,3.360564,2.277171,-0.697,3.855,-4.007,-1.8310000000000003e-05,3.191e-05,5.1200000000000004e-05
1776438812.501865,-0.16166908407039227,0.1732783547004183,0.887235335776779,0.39579183669856394,3.3307,2.902639,2.526114,0.011,4.382,-2.971,-2e-05,3.643e-05,4.746e-05
1776438812.5267158,-0.16989134455074528,0.22078303639851077,0.8904111402832289,0.35994413892285293,2.470406,2.43485,3.541438,1.059,1.971,-4.555,-2.025e-05,4.034e-05,4.2730000000000006e-05
1776438812.5518012,-0.17089752857771218,0.2886878174274459,0.8860816998245724,0.31986340839646554,5.381837,3.131387,3.481434,0.36,-1.778,-6.072,-1.995e-05,4.4590000000000005e-05,3.909000000000001e-05
1776438812.5767348,-0.17917165987163197,0.3692397935333792,0.8658832461933349,0.2860169490291864,5.019176,3.973065,2.351337,0.46,-2.098,-3.09,-1.984e-05,4.991e-05,3.2090000000000006e-05
1776438812.6019704,-0.19546166960372477,0.4257723954400806,0.847775924303934,0.2485730982378228,2.665004,3.572141,2.879708,1.933,-0.562,0.127,-1.9650000000000003e-05,5.405e-05,2.551e-05
1776438812.6270041,-0.20079776799848337,0.4721097760047944,0.8347108167750786,0.20012613054324302,3.247627,2.885894,3.908691,1.803,-5.03,0.531,-1.749e-05,5.661000000000001e-05,2.279e-05
1776438812.651986,-0.19696400966195354,0.5293835524819938,0.8091409931655498,0.16201569812366176,4.20525,2.249218,2.513859,1.616,-8.69,0.24,-1.4449999999999999e-05,5.9040000000000004e-05,1.612e-05
1776438812.6768153,0.1996734328411875,-0.5649071233823694,-0.7892979227341572,-0.1342358049732517,1.638306,2.121357,1.812771,1.947,-6.481,-0.825,-1.286e-05,6.09e-05,1.177e-05
1776438812.7018132,0.20469894787069554,-0.5893493591049859,-0.7747817441949083,-0.10236660844957321,1.890292,2.405656,2.250547,1.2,-5.023,-0.987,-1.11e-05,6.04e-05,1.214e-05
1776438812.726783,0.20894314725302804,-0.6242837843763641,-0.7498793109643096,-0.0655250850317416,2.881445,2.777236,2.565663,0.651,-5.979,1.415,-8.409999999999999e-06,6.165000000000001e-05,5.86e-06
