time,seconds_elapsed,z,y,x
1776442841845856800,0.106856689453125,-41.2183837890625,10.331253051757812,6.40283203125
1776442841870872800,0.131872802734375,-41.608856201171875,9.860855102539062,6.9493255615234375
1776442841895889700,0.1568896484375,-41.431854248046875,9.442153930664062,7.832305908203125
1776442841920905500,0.181905517578125,-41.325164794921875,8.97021484375,8.581024169921875
1776442841945922600,0.206922607421875,-41.2725830078125,8.137557983398438,10.186660766601562
1776442841970938600,0.231938720703125,-41.022491455078125,6.9349212646484375,11.628524780273438
1776442841995955700,0.256955810546875,-40.7652587890625,6.367340087890625,12.257675170898438
1776442842020971800,0.2819716796875,-40.988677978515625,4.85235595703125,13.462020874023438
1776442842045988900,0.30698876953125,-40.568450927734375,4.075531005859375,14.522445678710938
1776442842071004700,0.332004638671875,-40.193115234375,2.988037109375,16.075759887695312
1776442842096021800,0.357021728515625,-40.080657958984375,2.3138580322265625,16.81024169921875
1776442842121037800,0.382037841796875,-39.738922119140625,1.19744873046875,17.848724365234375
1776442842146054700,0.4070546875,-39.212860107421875,0.902130126953125,18.440139770507812
1776442842171070700,0.43207080078125,-38.636810302734375,0.8112945556640625,19.579238891601562
1776442842196087600,0.457087646484375,-38.473480224609375,0.552337646484375,20.146331787109375
1776442842221103600,0.482103515625,-37.917449951171875,0.5345458984375,20.485977172851562
1776442842246120700,0.50712060546875,-38.1966552734375,0.7427520751953125,20.376113891601562
1776442842271136800,0.53213671875,-38.05438232421875,0.9436187744140625,20.156158447265625
1776442842296153900,0.55715380859375,-37.921295166015625,0.925994873046875,19.698974609375
1776442842321169700,0.582169677734375,-38.707855224609375,1.13446044921875,19.398818969726562
1776442842346186800,0.607186767578125,-39.0858154296875,1.0144805908203125,17.9515380859375
1776442842371202800,0.632202880859375,-39.40972900390625,-0.1495361328125,17.473129272460938
1776442842396219000,0.657218994140625,-39.245147705078125,-0.42718505859375,17.6036376953125
1776442842421235700,0.682235595703125,-38.73968505859375,-1.4661407470703125,18.33026123046875
1776442842446251500,0.70725146484375,-38.857574462890625,-2.45806884765625,18.398818969726562
1776442842471268400,0.732268310546875,-38.17156982421875,-3.5015716552734375,19.446701049804688
1776442842496284400,0.757284423828125,-38.179962158203125,-4.606414794921875,19.69451904296875
1776442842521301500,0.782301513671875,-37.661956787109375,-5.60272216796875,20.107208251953125
1776442842546317300,0.8073173828125,-37.71014404296875,-6.3345947265625,19.914260864257812
1776442842571334400,0.83233447265625,-38.049560546875,-6.5089263916015625,19.449020385742188
1776442842596350500,0.8573505859375,-38.0225830078125,-6.6816558837890625,19.28875732421875
1776442842621367600,0.882367431640625,-37.877716064453125,-6.8034515380859375,18.981307983398438
1776442842646383600,0.907383544921875,-38.230133056640625,-6.7418060302734375,18.5445556640625
1776442842671400200,0.932400146484375,-37.934844970703125,-7.1047821044921875,18.502243041992188
1776442842696416300,0.957416259765625,-38.167236328125,-7.4417266845703125,18.279632568359375
1776442842721433300,0.982433349609375,-38.010986328125,-8.408477783203125,17.714462280273438
1776442842746449400,1.007449462890625,-38.653228759765625,-8.581588745117188,17.731948852539062
1776442842771466500,1.032466552734375,-38.438140869140625,-8.8272705078125,17.740798950195312
1776442842796482300,1.057482421875,-38.699676513671875,-8.776519775390625,17.446441650390625
1776442842821499400,1.08249951171875,-38.776947021484375,-8.962081909179688,17.355010986328125
1776442842846515500,1.107515380859375,-38.91070556640625,-9.32342529296875,16.921432495117188
1776442842871532500,1.132532470703125,-38.412750244140625,-9.881729125976562,16.5543212890625
1776442842896548600,1.157548583984375,-38.5213623046875,-10.417770385742188,16.376846313476562
1776442842921565200,1.182565185546875,-38.2769775390625,-10.545303344726562,16.198684692382812
1776442842946581200,1.207581298828125,-38.485076904296875,-10.401336669921875,15.733154296875
1776442842971598300,1.232598388671875,-38.826629638671875,-10.86553955078125,15.087814331054688
1776442842996614400,1.257614501953125,-38.879669189453125,-11.0545654296875,14.19683837890625
1776442843021631500,1.282631591796875,-39.6114501953125,-10.948135375976562,13.294189453125
1776442843046647300,1.307647216796875,-39.895477294921875,-11.313308715820312,12.588546752929688
1776442843071664400,1.332664306640625,-39.51885986328125,-11.946884155273438,12.155685424804688
1776442843096680400,1.357680419921875,-39.69708251953125,-12.251937866210938,11.7760009765625
1776442843121697500,1.382697509765625,-38.7320556640625,-13.633590698242188,11.494338989257812
1776442843146713600,1.407713623046875,-38.13031005859375,-14.234954833984375,11.79876708984375
1776442843171730400,1.43273046875,-38.045684814453125,-14.963943481445312,11.88238525390625
1776442843196746200,1.457746337890625,-38.178070068359375,-15.352859497070312,11.410263061523438
1776442843221763300,1.482763427734375,-37.898590087890625,-15.798568725585938,11.37750244140625
1776442843246779400,1.507779296875,-37.899658203125,-15.811019897460938,10.691177368164062
1776442843271796500,1.53279638671875,-38.064056396484375,-15.634719848632812,10.209503173828125
1776442843296812300,1.557812255859375,-38.40325927734375,-15.519607543945312,9.721511840820312
1776442843321829400,1.582829345703125,-38.38775634765625,-15.689132690429688,9.166839599609375
1776442843346845400,1.607845458984375,-38.58331298828125,-15.941268920898438,8.47491455078125
1776442843371862500,1.632862548828125,-38.861907958984375,-15.737823486328125,7.630523681640625
1776442843396878600,1.657878662109375,-39.20770263671875,-15.41265869140625,6.95684814453125
1776442843421895400,1.6828955078125,-39.45159912109375,-14.982559204101562,6.0511627197265625
1776442843446911200,1.7079111328125,-39.360137939453125,-15.3475341796875,5.5597381591796875
1776442843471928800,1.7329287109375,-39.20611572265625,-15.557846069335938,4.6016845703125
1776442843496945000,1.75794482421875,-39.1544189453125,-15.76129150390625,3.91162109375
1776442843521962000,1.7829619140625,-39.035369873046875,-15.866287231445312,3.94464111328125
1776442843546977800,1.807977783203125,-39.32318115234375,-15.593032836914062,3.6282501220703125
1776442843571993900,1.832993896484375,-40.235321044921875,-15.259994506835938,2.5523223876953125
1776442843597011000,1.858010986328125,-39.76348876953125,-15.128890991210938,2.24224853515625
1776442843622027800,1.88302783203125,-39.7911376953125,-15.514083862304688,2.5144195556640625
1776442843647043600,1.908043701171875,-39.7510986328125,-15.648880004882812,2.070556640625
1776442843672060700,1.933060791015625,-40.199371337890625,-15.751876831054688,1.4014129638671875
1776442843697076700,1.95807666015625,-40.349029541015625,-15.542938232421875,0.7627105712890625
1776442843722093800,1.98309375,-39.864471435546875,-15.81048583984375,0.796539306640625
1776442843747110000,2.00810986328125,-39.450439453125,-15.9801025390625,0.9053955078125
1776442843772127000,2.033126953125,-39.4990234375,-16.33233642578125,0.9635009765625
1776442843797142800,2.058142822265625,-39.33978271484375,-16.397872924804688,0.833282470703125
1776442843822160000,2.083159912109375,-39.255706787109375,-16.713302612304688,0.825408935546875
1776442843847176000,2.108176025390625,-39.41143798828125,-16.303298950195312,1.1061553955078125
1776442843872192800,2.13319287109375,-39.67144775390625,-16.263748168945312,1.294830322265625
1776442843897208800,2.158208740234375,-39.5147705078125,-16.181137084960938,0.8821563720703125
1776442843922225700,2.1832255859375,-39.85888671875,-15.931015014648438,0.7679443359375
1776442843947241700,2.20824169921875,-39.756134033203125,-16.047836303710938,-0.4569854736328125
1776442843972258800,2.2332587890625,-39.80767822265625,-15.74884033203125,-0.795318603515625
1776442843997275000,2.25827490234375,-39.754638671875,-15.815887451171875,-2.494659423828125
1776442844022292000,2.2832919921875,-39.76141357421875,-15.49652099609375,-3.4703826904296875
1776442844047307800,2.308307861328125,-39.62548828125,-15.79522705078125,-4.915283203125
1776442844072324900,2.333324951171875,-39.41851806640625,-16.021759033203125,-4.7609405517578125
1776442844097341000,2.3583408203125,-39.191802978515625,-16.5218505859375,-3.98016357421875
1776442844122357800,2.383357666015625,-39.39666748046875,-16.34442138671875,-3.523529052734375
1776442844147373800,2.408373779296875,-39.5509033203125,-16.084945678710938,-2.8298492431640625
1776442844172391000,2.433390869140625,-39.60943603515625,-15.74456787109375,-2.524505615234375
1776442844197406700,2.45840673828125,-40.029571533203125,-15.2529296875,-2.9154205322265625
1776442844222423800,2.483423828125,-40.098785400390625,-14.891204833984375,-2.823822021484375
1776442844247440000,2.50843994140625,-40.301727294921875,-13.887924194335938,-3.47119140625
1776442844272457000,2.53345703125,-40.02569580078125,-13.55474853515625,-3.8698272705078125
1776442844297472800,2.55847265625,-40.311126708984375,-12.915115356445312,-4.6520233154296875
1776442844322489900,2.58348974609375,-40.359619140625,-13.070755004882812,-5.0298614501953125
1776442844347506000,2.608505859375,-40.64959716796875,-12.2628173828125,-5.7855224609375
1776442844372522800,2.633522705078125,-40.680267333984375,-11.8714599609375,-6.43524169921875
1776442844397538800,2.658538818359375,-40.03009033203125,-11.146530151367188,-8.2210693359375
1776442844422556000,2.683555908203125,-40.045654296875,-10.855056762695312,-9.081787109375
1776442844447571700,2.70857177734375,-40.273193359375,-10.709671020507812,-9.9031982421875
1776442844472588000,2.733588134765625,-39.97991943359375,-10.608963012695312,-9.883026123046875
1776442844497604000,2.75860400390625,-40.128021240234375,-10.739303588867188,-10.272994995117188
1776442844522621000,2.783620849609375,-40.298095703125,-10.707931518554688,-10.215774536132812
1776442844547637000,2.808636962890625,-40.654510498046875,-10.631881713867188,-10.302169799804688
1776442844572654000,2.833654052734375,-40.138671875,-10.070068359375,-10.257659912109375
1776442844597670100,2.858670166015625,-41.13775634765625,-9.89483642578125,-10.726776123046875
1776442844622687000,2.88368701171875,-40.671051025390625,-9.331039428710938,-11.000534057617188
1776442844647703000,2.908703125,-40.65911865234375,-8.9876708984375,-11.84393310546875
1776442844672720000,2.933719970703125,-41.142242431640625,-8.6368408203125,-12.22021484375
1776442844697736000,2.95873583984375,-40.42724609375,-8.11895751953125,-13.502548217773438
1776442844722753000,2.9837529296875,-40.5313720703125,-7.7648162841796875,-14.149978637695312
1776442844747769000,3.00876904296875,-39.972076416015625,-7.075347900390625,-15.194717407226562
1776442844772786200,3.0337861328125,-40.087921142578125,-7.1883392333984375,-15.46246337890625
1776442844797802000,3.058802001953125,-40.139617919921875,-6.6856231689453125,-16.530670166015625
1776442844822819000,3.083819091796875,-39.921661376953125,-6.187103271484375,-16.903167724609375
1776442844847835100,3.108835205078125,-39.6820068359375,-5.9470672607421875,-18.020492553710938
1776442844872852000,3.13385205078125,-39.34527587890625,-5.355438232421875,-18.300567626953125
1776442844897869000,3.158869140625,-39.599761962890625,-4.3167877197265625,-18.795867919921875
1776442844922884900,3.183884765625,-39.307403564453125,-3.6640777587890625,-19.19366455078125
1776442844947902000,3.20890185546875,-39.47320556640625,-2.649505615234375,-19.9849853515625
1776442844972918000,3.23391796875,-39.1907958984375,-2.461334228515625,-19.62579345703125
1776442844997935000,3.25893505859375,-39.2032470703125,-1.659332275390625,-19.730453491210938
1776442845022951200,3.283951171875,-38.340301513671875,-1.917938232421875,-20.56610107421875
1776442845047968300,3.30896826171875,-37.548614501953125,-2.0183563232421875,-22.307174682617188
1776442845072984000,3.333984130859375,-37.33856201171875,-1.7776336669921875,-22.985427856445312
1776442845098001000,3.3590009765625,-37.27899169921875,-0.960235595703125,-22.899017333984375
1776442845123017000,3.384016845703125,-37.18560791015625,-0.48480224609375,-22.676300048828125
1776442845148034000,3.409033935546875,-37.856903076171875,0.4693756103515625,-21.931320190429688
1776442845173049900,3.4340498046875,-37.693450927734375,1.4192352294921875,-21.826156616210938
1776442845198067000,3.45906689453125,-37.869293212890625,2.1182861328125,-21.73736572265625
1776442845223083000,3.4840830078125,-37.94879150390625,2.605255126953125,-22.054656982421875
1776442845248100000,3.50910009765625,-38.32073974609375,3.15460205078125,-21.154495239257812
1776442845273116200,3.5341162109375,-38.3045654296875,3.8346099853515625,-21.040878295898438
1776442845298133200,3.55913330078125,-37.9554443359375,4.9996490478515625,-20.045547485351562
1776442845323149000,3.584149169921875,-37.870574951171875,5.77557373046875,-20.265060424804688
1776442845348166000,3.609165771484375,-37.292266845703125,6.7299041748046875,-21.436447143554688
1776442845373183000,3.634182861328125,-37.02484130859375,7.884033203125,-22.02984619140625
1776442845398199000,3.659198974609375,-36.464691162109375,9.74835205078125,-22
1776442845423216000,3.684216064453125,-36.309234619140625,10.374664306640625,-22.234344482421875
1776442845448232000,3.70923193359375,-36.3594970703125,11.248519897460938,-21.280654907226562
1776442845473249300,3.734249267578125,-36.558349609375,11.292861938476562,-20.971160888671875
1776442845498265300,3.759265380859375,-36.440521240234375,12.569976806640625,-20.7772216796875
1776442845523282200,3.7842822265625,-36.259185791015625,12.736175537109375,-20.739654541015625
1776442845548298200,3.80929833984375,-36.425506591796875,13.43695068359375,-20.281158447265625
1776442845573315000,3.834315185546875,-36.143768310546875,14.132644653320312,-20.055099487304688
1776442845598331100,3.8593310546875,-35.92083740234375,15.090911865234375,-19.299697875976562
1776442845623348200,3.88434814453125,-35.90985107421875,15.234024047851562,-18.760147094726562
1776442845648364300,3.9093642578125,-36.159088134765625,15.616790771484375,-18.320358276367188
1776442845673381000,3.934381103515625,-35.667816162109375,15.9989013671875,-18.200042724609375
1776442845698397200,3.959397216796875,-35.5306396484375,17.078475952148438,-18.062530517578125
1776442845723414300,3.984414306640625,-35.832183837890625,17.5421142578125,-17.425491333007812
1776442845748431000,4.00943115234375,-35.9683837890625,18.090408325195312,-16.430557250976562
1776442845773447200,4.034447265625,-36.298828125,18.161300659179688,-16.226776123046875
1776442845798464300,4.05946435546875,-36.4300537109375,18.499298095703125,-15.017364501953125
1776442845823480000,4.08447998046875,-36.07440185546875,18.287796020507812,-14.531265258789062
1776442845848497200,4.1094970703125,-36.05255126953125,18.552871704101562,-14.368408203125
1776442845873513200,4.13451318359375,-35.57696533203125,19.059005737304688,-14.13720703125
1776442845898530300,4.1595302734375,-35.875946044921875,19.430465698242188,-14.086929321289062
1776442845923546400,4.18454638671875,-36.079620361328125,19.511138916015625,-13.375335693359375
1776442845948563200,4.209563232421875,-36.404449462890625,19.5809326171875,-12.945755004882812
1776442845973579300,4.234579345703125,-36.36279296875,19.407440185546875,-12.284515380859375
1776442845998596000,4.25959619140625,-36.87664794921875,19.615005493164062,-11.892913818359375
1776442846023612200,4.284612060546875,-36.763763427734375,19.363113403320312,-11.189804077148438
1776442846048629200,4.309629150390625,-36.906341552734375,19.26556396484375,-10.332138061523438
1776442846073645000,4.33464501953125,-37.474151611328125,19.0128173828125,-9.248092651367188
1776442846098662100,4.359662109375,-37.216644287109375,18.928634643554688,-8.74676513671875
1776442846123679200,4.38467919921875,-37.134124755859375,19.072967529296875,-8.364776611328125
1776442846148695300,4.4096953125,-37.159271240234375,19.471847534179688,-7.55377197265625
1776442846173712100,4.434712158203125,-37.443023681640625,19.909988403320312,-6.33349609375
1776442846198728200,4.459728271484375,-37.34869384765625,20.230438232421875,-4.9987335205078125
1776442846223745000,4.4847451171875,-37.2791748046875,20.803207397460938,-3.1918487548828125
1776442846248761000,4.509760986328125,-37.119140625,21.241012573242188,-1.8898162841796875
1776442846273778200,4.534778076171875,-36.558135986328125,21.612319946289062,-0.7182769775390625
1776442846298794200,4.559794189453125,-37.0537109375,21.377593994140625,-0.021759033203125
1776442846323811300,4.584811279296875,-37.295989990234375,21.326126098632812,1.1308746337890625
1776442846348827100,4.6098271484375,-37.20208740234375,21.175384521484375,1.7033233642578125
1776442846373844200,4.63484423828125,-37.421600341796875,20.45428466796875,2.9617919921875
1776442846398860300,4.6598603515625,-37.907501220703125,19.95733642578125,4.051910400390625
1776442846423877000,4.684877197265625,-37.88299560546875,18.6287841796875,5.5377044677734375
1776442846448894200,4.709894287109375,-38.604461669921875,17.82696533203125,6.98114013671875
1776442846473910800,4.734910888671875,-38.236785888671875,17.291900634765625,8.689224243164062
1776442846498927900,4.759927978515625,-38.25909423828125,16.745285034179688,9.736221313476562
1776442846523943700,4.784943603515625,-38.271697998046875,16.09234619140625,11.377731323242188
1776442846548960800,4.809960693359375,-38.0245361328125,15.275863647460938,12.450119018554688
1776442846573976800,4.834976806640625,-38.114959716796875,14.369705200195312,13.5601806640625
1776442846598993700,4.85999365234375,-38.289794921875,13.83355712890625,14.143402099609375
1776442846624009700,4.885009765625,-37.97894287109375,12.900588989257812,15.455886840820312
1776442846649026800,4.91002685546875,-37.79046630859375,11.881683349609375,16.121978759765625
1776442846674042600,4.935042724609375,-37.4971923828125,10.620712280273438,17.40753173828125
1776442846699059700,4.960059814453125,-37.82489013671875,10.016494750976562,17.77294921875
1776442846724075800,4.98507568359375,-37.81890869140625,8.58343505859375,18.029678344726562
1776442846749092900,5.0100927734375,-38.2103271484375,7.5576629638671875,18.555709838867188
1776442846774110000,5.03510986328125,-38.564422607421875,6.222015380859375,18.375930786132812
1776442846799125800,5.060125732421875,-38.528900146484375,5.2425537109375,18.499801635742188
1776442846824142600,5.085142578125,-38.847015380859375,3.6329498291015625,18.614059448242188
1776442846849158700,5.11015869140625,-39.267669677734375,2.2139129638671875,18.450454711914062
1776442846874175700,5.13517578125,-39.651824951171875,0.5872650146484375,18.21673583984375
1776442846899191800,5.16019189453125,-39.451568603515625,-0.582763671875,18.081649780273438
1776442846924209000,5.185208984375,-39.266754150390625,-2.0396881103515625,18.127365112304688
1776442846949224700,5.210224609375,-39.808349609375,-2.9862213134765625,17.683135986328125
1776442846974241800,5.23524169921875,-39.276092529296875,-4.15789794921875,18.19244384765625
1776442846999257900,5.2602578125,-39.416473388671875,-4.809906005859375,17.698486328125
1776442847024275000,5.28527490234375,-39.20208740234375,-5.6790008544921875,17.411834716796875
1776442847049291000,5.310291015625,-39.5133056640625,-6.1335906982421875,16.979095458984375
1776442847074307600,5.3353076171875,-39.7557373046875,-6.655914306640625,16.018539428710938
1776442847099323600,5.36032373046875,-40.0714111328125,-6.7594757080078125,15.561004638671875
1776442847124340700,5.3853408203125,-40.074920654296875,-6.64508056640625,14.9976806640625
1776442847149357800,5.41035791015625,-40.122589111328125,-6.966461181640625,14.480697631835938
1776442847174374000,5.435373779296875,-40.143310546875,-7.5085296630859375,13.983184814453125
1776442847199391000,5.460390869140625,-40.878448486328125,-7.76617431640625,13.347747802734375
1776442847224406800,5.48540673828125,-40.626861572265625,-8.010452270507812,12.955154418945312
1776442847249423600,5.510423583984375,-40.649932861328125,-8.539947509765625,12.546279907226562
1776442847274440000,5.53543994140625,-40.98248291015625,-9.504486083984375,10.764907836914062
1776442847299456800,5.560456787109375,-41.12103271484375,-10.754837036132812,9.543319702148438
1776442847324472600,5.58547265625,-40.78753662109375,-12.95880126953125,8.371322631835938
1776442847349489700,5.61048974609375,-40.8333740234375,-13.762222290039062,7.821624755859375
1776442847374505700,5.635505615234375,-40.5159912109375,-14.736297607421875,7.067535400390625
1776442847399522800,5.660522705078125,-40.3577880859375,-15.4825439453125,7.07891845703125
1776442847424539000,5.685538818359375,-39.180816650390625,-17.286178588867188,7.574310302734375
1776442847449556000,5.710555908203125,-38.80072021484375,-18.165756225585938,7.6094512939453125
1776442847474572800,5.73557275390625,-37.98834228515625,-19.218887329101562,6.95361328125
1776442847499588600,5.760588623046875,-37.954681396484375,-19.43585205078125,5.97076416015625
1776442847524605700,5.785605712890625,-37.97430419921875,-19.751815795898438,4.696044921875
1776442847549621800,5.810621826171875,-38.098297119140625,-19.578079223632812,3.7275238037109375
1776442847574638800,5.835638916015625,-38.1414794921875,-19.885345458984375,2.4021148681640625
1776442847599655000,5.860655029296875,-38.2752685546875,-19.789993286132812,1.3423919677734375
1776442847624672000,5.885672119140625,-38.48126220703125,-19.722946166992188,0.3992156982421875
1776442847649687800,5.910687744140625,-38.92669677734375,-19.658294677734375,0.1695404052734375
1776442847674705000,5.935704833984375,-38.64501953125,-19.418350219726562,-0.24212646484375
1776442847699721000,5.960720947265625,-38.59271240234375,-19.165191650390625,-0.8264312744140625
1776442847724737800,5.98573779296875,-39.0572509765625,-18.724609375,-1.0749053955078125
1776442847749753600,6.010753662109375,-39.6834716796875,-18.785171508789062,-0.966522216796875
1776442847774770700,6.035770751953125,-39.249603271484375,-18.509429931640625,-1.1192626953125
1776442847799787800,6.060787841796875,-39.675262451171875,-18.542922973632812,-1.4313812255859375
1776442847824803800,6.085803955078125,-39.554901123046875,-18.715286254882812,-1.714385986328125
1776442847849821000,6.110821044921875,-39.4029541015625,-19.106735229492188,-1.3274383544921875
1776442847874837000,6.1358369140625,-38.698211669921875,-19.2257080078125,-0.8027496337890625
1776442847899853800,6.160853759765625,-38.74578857421875,-19.049148559570312,-0.6477813720703125
1776442847924870000,6.185869873046875,-38.582366943359375,-18.993301391601562,-0.630889892578125
1776442847949886700,6.21088671875,-38.9718017578125,-18.50897216796875,-1.17999267578125
1776442847974902800,6.23590283203125,-39.465179443359375,-18.407440185546875,-1.292816162109375
1776442847999919900,6.260919921875,-39.998626708984375,-17.382354736328125,-2.560546875
1776442848024935700,6.285935791015625,-39.5396728515625,-16.390090942382812,-3.3206634521484375
1776442848049952800,6.310952880859375,-39.75848388671875,-15.906494140625,-5.038238525390625
1776442848074968800,6.33596875,-39.800689697265625,-15.835968017578125,-5.505584716796875
1776442848099986000,6.36098583984375,-39.631500244140625,-16.415878295898438,-6.4662322998046875
1776442848125002800,6.386002685546875,-39.34814453125,-16.683364868164062,-6.9155120849609375
1776442848150018800,6.411018798828125,-39.076629638671875,-17.025909423828125,-8.291488647460938
1776442848175035600,6.43603564453125,-38.85247802734375,-17.2149658203125,-8.916717529296875
1776442848200051700,6.4610517578125,-39.00640869140625,-17.129241943359375,-9.85638427734375
1776442848225068800,6.48606884765625,-38.737030029296875,-17.2642822265625,-10.085662841796875
1776442848250084900,6.5110849609375,-38.94061279296875,-17.133041381835938,-10.520095825195312
1776442848275102000,6.53610205078125,-38.8421630859375,-16.807296752929688,-10.766616821289062
1776442848300117800,6.56111767578125,-38.699981689453125,-16.033462524414062,-11.53900146484375
1776442848325134800,6.586134765625,-38.89825439453125,-15.78326416015625,-12.249801635742188
1776442848350151000,6.61115087890625,-39.196044921875,-15.043136596679688,-13.296844482421875
1776442848375167700,6.636167724609375,-38.717254638671875,-14.389617919921875,-14.530120849609375
1776442848400184800,6.661184814453125,-38.685546875,-13.46636962890625,-15.809310913085938
1776442848425201000,6.686200927734375,-38.411346435546875,-12.833419799804688,-16.884185791015625
1776442848450217700,6.7112177734375,-37.837982177734375,-12.113998413085938,-18.670867919921875
1776442848475233000,6.73623291015625,-37.541168212890625,-11.423080444335938,-20.055068969726562
1776442848500250000,6.76125,-37.021697998046875,-10.424468994140625,-21.42266845703125
1776442848525266000,6.786265869140625,-36.887847900390625,-9.874359130859375,-21.976898193359375
1776442848550283000,6.811282958984375,-36.977691650390625,-8.335983276367188,-22.071624755859375
1776442848575299000,6.836299072265625,-36.875701904296875,-7.57830810546875,-22.700485229492188
1776442848600316200,6.861316162109375,-36.493011474609375,-5.47845458984375,-23.70745849609375
1776442848625332200,6.886332275390625,-36.192535400390625,-4.6700897216796875,-24.191940307617188
1776442848650349000,6.91134912109375,-35.942718505859375,-3.585540771484375,-24.721466064453125
1776442848675364900,6.93636474609375,-35.562347412109375,-3.429931640625,-25.0908203125
1776442848700382000,6.9613818359375,-35.664581298828125,-2.3792877197265625,-25.524185180664062
1776442848725399000,6.98639892578125,-35.949249267578125,-1.7362213134765625,-25.115371704101562
1776442848750415000,7.0114150390625,-35.8443603515625,-0.00250244140625,-24.579269409179688
1776442848775432200,7.03643212890625,-36.008819580078125,0.84637451171875,-24.823486328125
1776442848800448000,7.061447998046875,-35.737457275390625,2.424591064453125,-25.330673217773438
1776442848825465000,7.086465087890625,-35.0799560546875,2.931610107421875,-25.974044799804688
1776442848850481200,7.111481201171875,-34.012725830078125,4.0688018798828125,-26.4588623046875
1776442848875498000,7.136498046875,-33.85931396484375,5.0530853271484375,-26.802093505859375
1776442848900514000,7.16151416015625,-33.680755615234375,7.121612548828125,-26.309097290039062
1776442848925531100,7.18653125,-33.801239013671875,8.36883544921875,-26.212158203125
1776442848950547000,7.211546875,-33.491302490234375,9.798690795898438,-26.042266845703125
1776442848975564000,7.23656396484375,-33.303619384765625,10.859786987304688,-25.901870727539062
1776442849000581000,7.2615810546875,-33.082611083984375,12.389297485351562,-25.839126586914062
1776442849025597200,7.28659716796875,-32.54266357421875,13.575027465820312,-25.452194213867188
1776442849050614000,7.311614013671875,-32.48431396484375,14.5501708984375,-25.643295288085938
1776442849075629800,7.3366298828125,-33.107177734375,14.951751708984375,-24.336700439453125
1776442849100647000,7.36164697265625,-34.409423828125,15.378631591796875,-21.6497802734375
1776442849125663000,7.3866630859375,-35.505218505859375,15.130111694335938,-20.162322998046875
1776442849150680000,7.41168017578125,-36.915130615234375,14.72088623046875,-18.36053466796875
1776442849175696100,7.436696044921875,-37.402618408203125,13.876480102539062,-17.994659423828125
1776442849200713000,7.461712890625,-37.351104736328125,13.623092651367188,-17.747467041015625
1776442849225729000,7.48672900390625,-37.2197265625,14.072296142578125,-17.706817626953125
1776442849250746000,7.51174609375,-37.4898681640625,13.978073120117188,-16.834548950195312
1776442849275763000,7.536762939453125,-37.70538330078125,13.6163330078125,-16.297210693359375
1776442849300779000,7.561779052734375,-38.14276123046875,13.42620849609375,-16.164459228515625
1776442849325796000,7.586796142578125,-37.74139404296875,13.533966064453125,-16.00689697265625
1776442849350812000,7.61181201171875,-38.495391845703125,13.831268310546875,-16.174026489257812
1776442849375829000,7.6368291015625,-38.276275634765625,13.901214599609375,-15.7398681640625
1776442849400845000,7.661844970703125,-38.1583251953125,14.48284912109375,-15.317672729492188
1776442849425862100,7.686862060546875,-38.20428466796875,15.00604248046875,-15.088638305664062
1776442849450878200,7.711878173828125,-37.72161865234375,15.679443359375,-14.731475830078125
1776442849475895600,7.7368955078125,-37.474700927734375,16.2772216796875,-14.508773803710938
1776442849500911400,7.761911376953125,-37.13214111328125,17.277969360351562,-13.800064086914062
1776442849525928400,7.786928466796875,-36.9429931640625,18.003662109375,-13.461807250976562
1776442849550945500,7.811945556640625,-36.554595947265625,18.74554443359375,-12.588729858398438
1776442849575961600,7.836961669921875,-36.838165283203125,19.078079223632812,-11.6702880859375
1776442849600978700,7.861978759765625,-36.93109130859375,19.397003173828125,-10.817642211914062
1776442849625994500,7.886994384765625,-37.08502197265625,19.353042602539062,-10.34698486328125
1776442849651011600,7.912011474609375,-37.43280029296875,19.1536865234375,-9.996780395507812
1776442849676027600,7.937027587890625,-37.361297607421875,18.849441528320312,-9.587677001953125
1776442849701044500,7.96204443359375,-37.86627197265625,18.747879028320312,-9.75732421875
1776442849726060500,7.987060546875,-37.812774658203125,18.395767211914062,-9.29998779296875
1776442849751077400,8.012077392578124,-38.68707275390625,17.113372802734375,-8.81060791015625
1776442849776093400,8.037093505859374,-38.94189453125,16.53448486328125,-8.47442626953125
1776442849801110500,8.062110595703125,-39.157470703125,16.447677612304688,-8.215179443359375
1776442849826127600,8.087127685546875,-39.2347412109375,16.715484619140625,-7.66900634765625
1776442849851143700,8.112143798828125,-39.3929443359375,16.704254150390625,-7.1083221435546875
1776442849876160500,8.137160400390625,-39.294403076171875,17.453231811523438,-6.9735565185546875
1776442849901176600,8.162176513671875,-39.635772705078125,17.71142578125,-7.2492218017578125
1776442849926193400,8.187193359375,-39.251953125,17.441162109375,-7.0540771484375
1776442849951209500,8.21220947265625,-39.063720703125,17.26910400390625,-7.312103271484375
1776442849976226600,8.2372265625,-39.115692138671875,17.201019287109375,-7.5520172119140625
1776442850001242600,8.26224267578125,-39.267913818359375,16.915817260742188,-7.2861175537109375
1776442850026259500,8.287259521484375,-39.178253173828125,17.036911010742188,-6.7628021240234375
1776442850051275500,8.312275634765625,-39.149444580078125,17.05908203125,-5.6363983154296875
1776442850076292600,8.337292724609375,-39.255462646484375,16.837921142578125,-3.876739501953125
1776442850101309400,8.362309326171875,-39.8504638671875,16.454116821289062,-3.2097930908203125
1776442850126325500,8.387325439453125,-39.53021240234375,16.731613159179688,-2.821258544921875
1776442850151342600,8.412342529296875,-39.486419677734375,17.091537475585938,-3.2442626953125
1776442850176358400,8.4373583984375,-39.008056640625,17.449371337890625,-3.459747314453125
1776442850201375500,8.46237548828125,-38.52557373046875,17.864852905273438,-3.455535888671875
1776442850226391600,8.4873916015625,-39.13385009765625,17.924179077148438,-2.29852294921875
1776442850251408600,8.51240869140625,-38.8079833984375,18.080215454101562,-1.5355377197265625
1776442850276424700,8.5374248046875,-39.251922607421875,18.06304931640625,-0.326629638671875
1776442850301441500,8.562441650390625,-38.904937744140625,18.447921752929688,0.4587554931640625
1776442850326458400,8.587458251953125,-38.502593994140625,18.861495971679688,1.3045654296875
1776442850351474400,8.612474365234375,-38.808990478515625,19.01617431640625,2.208526611328125
1776442850376491500,8.637491455078125,-38.455322265625,18.855636596679688,3.6908111572265625
1776442850401507600,8.662507568359375,-38.70758056640625,18.383071899414062,5.3150177001953125
1776442850426524700,8.687524658203126,-38.19805908203125,17.470794677734375,8.098678588867188
1776442850451540500,8.71254052734375,-38.286102294921875,16.358612060546875,9.897994995117188
1776442850476557300,8.737557373046876,-38.332611083984375,15.34564208984375,12.28265380859375
1776442850501573400,8.762573486328124,-38.247650146484375,14.358352661132812,13.567459106445312
1776442850526590500,8.787590576171874,-38.346893310546875,13.1446533203125,14.966766357421875
1776442850551606300,8.812606201171874,-38.2684326171875,13.07513427734375,15.57080078125
1776442850576623000,8.837623046875,-37.74761962890625,12.593978881835938,16.122772216796875
1776442850601640200,8.86264013671875,-37.701324462890625,12.548660278320312,16.608978271484375
1776442850626656300,8.88765625,-37.33868408203125,11.43695068359375,16.949462890625
1776442850651673300,8.91267333984375,-37.866546630859375,10.735565185546875,17.384902954101562
1776442850676689400,8.937689453125,-37.724761962890625,9.843185424804688,18.660812377929688
1776442850701706200,8.962706298828126,-37.602813720703125,9.004791259765625,19.485137939453125
1776442850726722300,8.987722412109376,-37.29766845703125,7.535552978515625,20.246337890625
1776442850751739100,9.0127392578125,-37.13909912109375,6.6710357666015625,20.421401977539062
1776442850776755500,9.03775537109375,-36.8072509765625,5.3639984130859375,21.0162353515625
1776442850801772300,9.062772216796875,-37.0994873046875,4.501068115234375,21.284255981445312
1776442850826789400,9.087789306640625,-37.160369873046875,3.352264404296875,21.3487548828125
1776442850851805200,9.11280517578125,-36.959136962890625,3.0105743408203125,21.770858764648438
1776442850876822300,9.137822265625,-36.57574462890625,2.100067138671875,22.109710693359375
1776442850901838300,9.16283837890625,-36.621429443359375,1.8342132568359375,22.381637573242188
1776442850926855400,9.18785546875,-37.022003173828125,0.7008209228515625,22.247802734375
1776442850951871500,9.21287158203125,-37.2852783203125,-0.3182220458984375,22.18536376953125
1776442850976888000,9.23788818359375,-37.071075439453125,-1.998870849609375,21.647720336914062
1776442851001904000,9.262904052734376,-37.073272705078125,-3.055938720703125,21.299789428710938
1776442851026921200,9.287921142578124,-37.80157470703125,-4.6400146484375,20.539093017578125
1776442851051938300,9.312938232421875,-37.830322265625,-5.4854888916015625,20.244415283203125
1776442851076954400,9.337954345703125,-38.38763427734375,-6.4653778076171875,19.30718994140625
1776442851101971500,9.362971435546875,-38.65142822265625,-6.8153076171875,18.44586181640625
1776442851126987300,9.3879873046875,-38.4915771484375,-7.0454864501953125,18.649948120117188
1776442851152004400,9.41300439453125,-38.7158203125,-7.3944549560546875,18.300933837890625
1776442851177020400,9.4380205078125,-38.757659912109375,-7.8724517822265625,17.891571044921875
1776442851202037200,9.463037353515626,-38.8011474609375,-7.7635955810546875,17.90521240234375
1776442851227053000,9.488052978515626,-39.12713623046875,-8.769912719726562,17.363739013671875
1776442851252070100,9.513070068359376,-38.75,-8.952102661132812,17.165008544921875
1776442851277086200,9.538086181640624,-39.11627197265625,-10.209320068359375,16.798019409179688
1776442851302103300,9.563103271484374,-38.904541015625,-11.03619384765625,16.57647705078125
1776442851327120400,9.588120361328125,-38.309417724609375,-11.842529296875,16.341293334960938
1776442851352136400,9.613136474609375,-38.457122802734375,-12.940902709960938,16.34552001953125
1776442851377153300,9.6381533203125,-38.02490234375,-14.101913452148438,16.040069580078125
1776442851402169300,9.66316943359375,-37.6258544921875,-14.5504150390625,15.951141357421875
1776442851427186200,9.688186279296875,-38.0101318359375,-14.803009033203125,15.56097412109375
1776442851452202200,9.7132021484375,-38.010589599609375,-15.055801391601562,15.108184814453125
1776442851477219800,9.7382197265625,-38.255706787109375,-15.383407592773438,14.215225219726562
1776442851502237000,9.76323681640625,-38.69024658203125,-15.169540405273438,13.9921875
1776442851527253000,9.7882529296875,-38.662261962890625,-15.17266845703125,14.0450439453125
1776442851552269800,9.813269775390625,-38.573455810546875,-14.923370361328125,14.095855712890625
1776442851577286000,9.838285888671875,-38.603240966796875,-14.504150390625,14.559066772460938
1776442851602302700,9.863302734375,-38.46270751953125,-14.318283081054688,14.91229248046875
1776442851627318800,9.88831884765625,-38.62933349609375,-14.497421264648438,14.546356201171875
1776442851652335900,9.9133359375,-38.465850830078125,-14.437362670898438,15.033905029296875
1776442851677351700,9.9383515625,-38.4970703125,-14.070358276367188,15.210647583007812
1776442851702368800,9.96336865234375,-38.193634033203125,-14.116851806640625,15.122817993164062
1776442851727385900,9.9883857421875,-38.601318359375,-13.960906982421875,15.282669067382812
1776442851752402000,10.01340185546875,-38.84375,-13.717239379882812,15.216567993164062
1776442851777418800,10.038418701171874,-38.36669921875,-13.578826904296875,15.316848754882812
1776442851802434800,10.063434814453124,-38.361907958984375,-13.384674072265625,15.657546997070312
1776442851827451600,10.08845166015625,-38.447296142578125,-13.060928344726562,15.629348754882812
1776442851852467700,10.1134677734375,-38.12225341796875,-13.729660034179688,15.591476440429688
1776442851877484800,10.13848486328125,-37.77593994140625,-14.334732055664062,15.578460693359375
1776442851902500900,10.1635009765625,-38.47100830078125,-14.639480590820312,15.373672485351562
1776442851927518000,10.18851806640625,-38.246917724609375,-15.10296630859375,15.075927734375
1776442851952535000,10.21353515625,-37.70770263671875,-15.420318603515625,14.95843505859375
1776442851977550800,10.23855078125,-37.801544189453125,-15.938369750976562,14.918426513671875
1776442852002567700,10.263567626953124,-37.962921142578125,-15.5323486328125,14.586639404296875
1776442852027583700,10.288583740234374,-38.124359130859375,-15.87774658203125,14.3212890625
1776442852052600800,10.313600830078125,-37.76025390625,-16.585205078125,13.743972778320312
1776442852077617000,10.338616943359375,-37.987579345703125,-17.156448364257812,12.650527954101562
1776442852102633700,10.3636337890625,-37.332855224609375,-18.47039794921875,11.536605834960938
1776442852127649800,10.38864990234375,-37.379364013671875,-19.299331665039062,11.298660278320312
1776442852152667000,10.4136669921875,-37.094146728515625,-20.354888916015625,10.133193969726562
1776442852177683700,10.43868359375,-36.776824951171875,-20.60247802734375,9.082046508789062
1776442852202699800,10.46369970703125,-36.497589111328125,-20.818084716796875,8.309616088867188
1776442852227716900,10.488716796875,-36.576751708984375,-20.70458984375,7.83721923828125
1776442852252732700,10.513732666015626,-37.048583984375,-20.899246215820312,6.5049285888671875
1776442852277749800,10.538749755859374,-37.84527587890625,-20.492294311523438,5.3134918212890625
1776442852302765800,10.563765869140624,-38.215789794921875,-20.619705200195312,4.0605010986328125
1776442852327783000,10.588782958984375,-38.004364013671875,-20.671585083007812,3.8026123046875
1776442852352800000,10.613800048828125,-37.834869384765625,-20.560134887695312,3.40338134765625
1776442852377815800,10.63881591796875,-37.6629638671875,-21.13214111328125,3.5800323486328125
1776442852402832600,10.66383251953125,-37.51434326171875,-21.25091552734375,4.0009002685546875
1776442852427848700,10.6888486328125,-37.280975341796875,-21.12823486328125,3.68341064453125
1776442852452865800,10.71386572265625,-37.0386962890625,-21.593521118164062,2.91314697265625
1776442852477881600,10.738881591796876,-37.50531005859375,-21.3487548828125,2.2931365966796875
1776442852502898400,10.7638984375,-38.036590576171875,-20.97821044921875,1.753204345703125
1776442852527914500,10.78891455078125,-37.728668212890625,-20.516754150390625,1.559326171875
1776442852552931600,10.813931640625,-37.632049560546875,-20.259719848632812,0.61297607421875
1776442852577948700,10.83894873046875,-38.10845947265625,-20.084014892578125,0.0747222900390625
1776442852602964700,10.86396484375,-38.040252685546875,-19.678146362304688,0.13946533203125
1776442852627981600,10.888981689453125,-38.30963134765625,-19.267547607421875,0.1509857177734375
1776442852652997400,10.913997314453125,-38.439178466796875,-19.787139892578125,0.0129241943359375
1776442852678014500,10.939014404296875,-38.369659423828125,-19.106643676757812,-0.3202362060546875
1776442852703030500,10.964030517578125,-38.920867919921875,-19.091049194335938,-0.798553466796875
1776442852728047600,10.989047607421876,-39.079071044921875,-18.770217895507812,-0.5400238037109375
1776442852753064700,11.014064697265624,-38.381866455078125,-18.753555297851562,-0.2217254638671875
1776442852778080500,11.03908056640625,-38.2423095703125,-18.463104248046875,-0.1568603515625
1776442852803097600,11.06409765625,-39.08477783203125,-18.377960205078125,-0.002716064453125
1776442852828113700,11.08911376953125,-38.8785400390625,-18.17578125,0.10369873046875
1776442852853130500,11.114130615234375,-38.86236572265625,-18.327560424804688,-0.2590484619140625
1776442852878146600,11.139146484375,-38.6751708984375,-18.405593872070312,-0.7563018798828125
1776442852903163600,11.16416357421875,-38.85235595703125,-18.578048706054688,-1.5142822265625
1776442852928180500,11.189180419921875,-38.68988037109375,-18.649520874023438,-2.4389801025390625
1776442852953196500,11.214196533203125,-39.02728271484375,-18.858062744140625,-2.8930816650390625
1776442852978213600,11.239213623046876,-38.829498291015625,-18.67059326171875,-3.13214111328125
1776442853003229700,11.264229736328126,-38.6180419921875,-19.088592529296875,-3.6763153076171875
1776442853028246500,11.28924658203125,-38.66656494140625,-18.703933715820312,-3.733062744140625
1776442853053262600,11.3142626953125,-38.621673583984375,-18.7635498046875,-3.372406005859375
1776442853078279400,11.339279541015625,-38.569427490234375,-18.526351928710938,-3.567352294921875
1776442853103296500,11.364296630859375,-38.83160400390625,-18.370697021484375,-3.91961669921875
1776442853128312600,11.3893125,-39.088134765625,-17.838119506835938,-4.1298828125
1776442853153329700,11.41432958984375,-38.908050537109375,-17.915328979492188,-4.439239501953125
1776442853178345700,11.439345703125,-39.09771728515625,-17.626556396484375,-4.6787872314453125
1776442853203362600,11.464362548828126,-39.047332763671875,-17.482330322265625,-4.8606414794921875
1776442853228378600,11.489378662109376,-39.1536865234375,-17.104385375976562,-5.2481231689453125
1776442853253395500,11.5143955078125,-39.33544921875,-16.824935913085938,-5.6284637451171875
1776442853278412500,11.53941259765625,-39.622528076171875,-16.733551025390625,-5.701416015625
1776442853303428600,11.5644287109375,-39.31158447265625,-16.471954345703125,-5.6328277587890625
1776442853328445700,11.58944580078125,-39.57415771484375,-16.553085327148438,-5.535125732421875
1776442853353461500,11.61446142578125,-39.786346435546875,-16.186813354492188,-5.7407379150390625
1776442853378478600,11.639478515625,-39.772064208984375,-16.153152465820312,-5.7453765869140625
1776442853403494700,11.66449462890625,-39.5633544921875,-15.520614624023438,-5.8935699462890625
1776442853428511700,11.68951171875,-39.96820068359375,-15.549072265625,-5.618560791015625
1776442853453528600,11.714528564453126,-39.699432373046875,-15.842483520507812,-5.5091552734375
1776442853478545000,11.739544921875,-40.05224609375,-15.78411865234375,-5.46014404296875
1776442853503562000,11.76456201171875,-39.81243896484375,-15.900711059570312,-5.671661376953125
1776442853528577800,11.789577880859374,-40.062530517578125,-16.058685302734375,-5.7066802978515625
1776442853553595000,11.814594970703125,-39.918060302734375,-16.28961181640625,-5.5861053466796875
1776442853578611000,11.83961083984375,-39.82275390625,-15.9632568359375,-5.3309173583984375
1776442853603628000,11.8646279296875,-40.109954833984375,-16.0594482421875,-5.519927978515625
1776442853628644900,11.889644775390625,-40.063507080078125,-15.896102905273438,-5.9279632568359375
1776442853653661000,11.914660888671875,-39.754425048828125,-15.73291015625,-5.7663726806640625
1776442853678677800,11.939677734375,-39.79351806640625,-15.465621948242188,-6.14593505859375
1776442853703693800,11.96469384765625,-40.12298583984375,-15.200210571289062,-6.0180816650390625
1776442853728711000,11.9897109375,-40.052001953125,-14.555038452148438,-6.49249267578125
1776442853753727000,12.01472705078125,-40.30999755859375,-14.89990234375,-6.8001251220703125
1776442853778744000,12.039744140625,-40.04541015625,-15.008148193359375,-7.3218231201171875
1776442853803761000,12.064760986328125,-39.855560302734375,-15.031692504882812,-7.7530059814453125
1776442853828777000,12.08977685546875,-39.63702392578125,-15.215347290039062,-8.54840087890625
1776442853853793800,12.114793701171875,-39.48358154296875,-15.732925415039062,-8.715744018554688
1776442853878809900,12.139809814453125,-39.263946533203125,-16.111160278320312,-8.937362670898438
1776442853903827000,12.164826904296875,-39.372039794921875,-16.204742431640625,-9.23876953125
1776442853928844000,12.189843994140626,-38.800628662109375,-16.2679443359375,-9.44091796875
1776442853953859800,12.21485986328125,-39.033416748046875,-16.7064208984375,-9.818283081054688
1776442853978877000,12.239876953125,-38.634307861328125,-16.494766235351562,-10.075607299804688
1776442854003893000,12.26489306640625,-39.01422119140625,-16.428329467773438,-9.876113891601562
1776442854028909800,12.289909912109374,-39.088592529296875,-16.086288452148438,-10.651947021484375
1776442854053926000,12.31492578125,-39.28424072265625,-15.984329223632812,-10.789093017578125
1776442854078943000,12.33994287109375,-39.159210205078125,-16.290740966796875,-11.249862670898438
1776442854103959800,12.364959716796875,-38.569549560546875,-16.72381591796875,-11.433761596679688
1776442854128976000,12.389975830078125,-38.39703369140625,-15.854537963867188,-12.85516357421875
1776442854153993000,12.414992919921875,-38.04681396484375,-15.214263916015625,-14.903717041015625
1776442854179009000,12.440009033203125,-36.671600341796875,-13.964767456054688,-18.0355224609375
1776442854204025900,12.46502587890625,-36.35205078125,-13.176773071289062,-19.61724853515625
1776442854229043000,12.49004296875,-36.060546875,-12.09881591796875,-21.26568603515625
1776442854254058800,12.515058837890624,-35.611328125,-11.70440673828125,-21.876434326171875
1776442854279075800,12.540075927734375,-35.9158935546875,-11.629409790039062,-22.445281982421875
1776442854304092000,12.565091796875,-35.70806884765625,-11.232406616210938,-22.877151489257812
1776442854329109000,12.59010888671875,-35.1846923828125,-10.956649780273438,-23.47332763671875
1776442854354125000,12.615125,-35.156585693359375,-10.573074340820312,-23.990921020507812
1776442854379142000,12.640141845703125,-35.478759765625,-9.376815795898438,-24.532241821289062
1776442854404158700,12.66515869140625,-35.2633056640625,-8.610031127929688,-25.148422241210938
1776442854429174800,12.6901748046875,-35.04632568359375,-7.1650238037109375,-25.759918212890625
1776442854454191900,12.71519189453125,-34.572998046875,-6.3579559326171875,-26.571746826171875
1776442854479207000,12.74020703125,-34.269805908203125,-5.374755859375,-27.576736450195312
1776442854504224000,12.76522412109375,-33.776641845703125,-4.758819580078125,-27.928253173828125
1776442854529240800,12.79024072265625,-34.276763916015625,-3.6858978271484375,-28.070648193359375
1776442854554257000,12.8152568359375,-33.674468994140625,-3.167236328125,-28.390670776367188
1776442854579274000,12.84027392578125,-33.6781005859375,-2.1217498779296875,-28.745559692382812
1776442854604290000,12.8652900390625,-33.15582275390625,-2.03009033203125,-29.081649780273438
1776442854629307100,12.89030712890625,-32.629241943359375,-2.07635498046875,-29.599136352539062
1776442854654323000,12.915322998046875,-32.65924072265625,-1.980133056640625,-29.882781982421875
1776442854679339800,12.94033984375,-32.6209716796875,-1.99169921875,-29.957565307617188
1776442854704356900,12.96535693359375,-32.3387451171875,-2.1848907470703125,-29.9388427734375
1776442854729373000,12.990373046875,-32.26983642578125,-2.3503875732421875,-30.71649169921875
1776442854754390000,13.01539013671875,-31.162139892578125,-2.4732208251953125,-30.905014038085938
1776442854779405800,13.04040576171875,-31.737091064453125,-2.2389984130859375,-30.534408569335938
1776442854804423000,13.0654228515625,-31.863861083984375,-1.602294921875,-30.27374267578125
1776442854829440000,13.09043994140625,-32.246734619140625,-1.279693603515625,-30.208938598632812
1776442854854456000,13.1154560546875,-32.69378662109375,-0.655487060546875,-29.411544799804688
1776442854879473000,13.140472900390625,-33.05462646484375,0.7427520751953125,-29.23822021484375
1776442854904489000,13.165489013671875,-33.3587646484375,1.8214263916015625,-28.867935180664062
1776442854929506000,13.190506103515625,-33.812469482421875,2.907562255859375,-28.560150146484375
1776442854954523000,13.21552294921875,-33.625030517578125,3.2742156982421875,-28.282150268554688
1776442854979539000,13.2405390625,-33.613861083984375,3.57177734375,-28.015396118164062
1776442855004556000,13.26555615234375,-33.872650146484375,3.9726104736328125,-28.058746337890625
1776442855029572000,13.290572021484374,-33.599884033203125,4.348663330078125,-28.197525024414062
1776442855054589000,13.3155888671875,-33.077484130859375,4.8248748779296875,-28.096908569335938
1776442855079605000,13.34060498046875,-32.818878173828125,5.54962158203125,-28.468597412109375
1776442855104621800,13.365621826171875,-32.75860595703125,6.52020263671875,-28.472900390625
1776442855129639000,13.390638916015625,-32.784423828125,7.10113525390625,-28.425689697265625
1776442855154655000,13.415655029296875,-32.726776123046875,7.5970458984375,-28.137222290039062
1776442855179672000,13.440672119140626,-32.814788818359375,8.4969482421875,-27.905181884765625
1776442855204688000,13.46568798828125,-32.6767578125,8.849960327148438,-28.252670288085938
1776442855229705000,13.490705078125,-32.240692138671875,9.824996948242188,-28.315292358398438
1776442855254721800,13.5157216796875,-31.3658447265625,10.566238403320312,-28.194610595703125
1776442855279737900,13.54073779296875,-32.154541015625,11.774612426757812,-27.534164428710938
1776442855304755000,13.5657548828125,-32.235931396484375,12.582351684570312,-27.296920776367188
1776442855329771000,13.59077099609375,-31.821990966796875,13.487503051757812,-27.458709716796875
1776442855354788000,13.6157880859375,-31.84722900390625,13.659271240234375,-27.311813354492188
1776442855379805000,13.640804931640625,-32.224090576171875,14.173309326171875,-26.681488037109375
1776442855404821000,13.665821044921875,-32.6019287109375,14.6239013671875,-26.3331298828125
1776442855429837800,13.690837890625,-32.741790771484375,14.98675537109375,-25.815261840820312
1776442855454854000,13.71585400390625,-32.238494873046875,15.549453735351562,-25.648468017578125
1776442855479871500,13.74087158203125,-32.43035888671875,15.443069458007812,-25.514007568359375
1776442855504888300,13.765888427734374,-32.370208740234375,15.963302612304688,-24.5546875
1776442855529904400,13.790904296875,-32.705413818359375,16.063629150390625,-24.18310546875
1776442855554921500,13.81592138671875,-32.83837890625,16.9136962890625,-24.07147216796875
1776442855579937500,13.8409375,-32.636749267578125,17.45965576171875,-23.736663818359375
1776442855604954400,13.865954345703125,-32.416473388671875,17.804473876953125,-23.613845825195312
1776442855629971500,13.890971435546875,-32.59503173828125,17.730743408203125,-23.113433837890625
1776442855654987300,13.9159873046875,-32.7362060546875,18.831649780273438,-22.410690307617188
1776442855680004400,13.94100439453125,-32.644775390625,18.923614501953125,-21.623336791992188
1776442855705020400,13.9660205078125,-33.040496826171875,19.51580810546875,-21.097091674804688
1776442855730037500,13.99103759765625,-33.33270263671875,19.575225830078125,-20.677291870117188
1776442855755054600,14.0160546875,-32.967620849609375,19.743148803710938,-20.044876098632812
1776442855780070400,14.0410703125,-33.544708251953125,20.008956909179688,-19.825546264648438
1776442855805087200,14.066087158203125,-33.063140869140625,20.222213745117188,-19.37493896484375
1776442855830103300,14.091103271484375,-32.721832275390625,20.676986694335938,-19.015518188476562
1776442855855120400,14.116120361328125,-33.19683837890625,21.35675048828125,-18.376052856445312
1776442855880137500,14.141137451171875,-33.259857177734375,21.67425537109375,-18.014968872070312
1776442855905153500,14.166153564453126,-32.569671630859375,21.973358154296875,-17.646865844726562
1776442855930170400,14.19117041015625,-32.96337890625,22.21337890625,-17.352020263671875
1776442855955186400,14.2161865234375,-32.94842529296875,22.511642456054688,-16.422821044921875
1776442855980203300,14.241203369140624,-33.18743896484375,22.566787719726562,-16.1641845703125
1776442856005220400,14.266220458984375,-33.49957275390625,23.106414794921875,-15.335601806640625
1776442856030236400,14.291236328125,-33.56390380859375,23.27227783203125,-14.830032348632812
1776442856055253500,14.31625341796875,-33.804656982421875,23.710479736328125,-13.801803588867188
1776442856080269300,14.341269287109375,-33.83782958984375,24.222015380859375,-12.614486694335938
1776442856105286400,14.366286376953125,-33.803192138671875,24.67578125,-10.7711181640625
1776442856130303500,14.391303466796876,-34.055572509765625,24.719772338867188,-9.564956665039062
1776442856155319600,14.416319580078126,-34.572998046875,24.471511840820312,-9.029861450195312
1776442856180336400,14.44133642578125,-34.851715087890625,24.194229125976562,-9.174819946289062
1776442856205352200,14.466352294921874,-34.729736328125,23.589813232421875,-8.746017456054688
1776442856230369300,14.491369384765624,-34.968353271484375,24.137863159179688,-8.439422607421875
1776442856255386400,14.516386474609375,-34.6751708984375,23.988388061523438,-7.753021240234375
1776442856280402400,14.54140234375,-34.774261474609375,24.200607299804688,-7.5234832763671875
1776442856305419500,14.56641943359375,-35.035125732421875,24.292251586914062,-7.0456085205078125
1776442856330435600,14.591435546875,-34.871002197265625,23.94097900390625,-6.875091552734375
1776442856355452400,14.616452392578125,-35.10284423828125,24.350479125976562,-7.0196685791015625
1776442856380469200,14.64146923828125,-35.08013916015625,24.403106689453125,-7.2492218017578125
1776442856405485300,14.6664853515625,-34.19805908203125,25.131027221679688,-7.2136688232421875
1776442856430502400,14.69150244140625,-34.50390625,25.40789794921875,-6.9538421630859375
1776442856455518500,14.7165185546875,-34.332183837890625,26.037185668945312,-5.27703857421875
1776442856480535000,14.74153515625,-34.390625,26.351211547851562,-3.382598876953125
1776442856505552100,14.76655224609375,-34.045684814453125,26.535354614257812,-1.8275299072265625
1776442856530568200,14.791568115234375,-34.282745361328125,26.790512084960938,-1.0329742431640625
1776442856555585000,14.8165849609375,-34.095550537109375,26.527435302734375,-0.1082916259765625
1776442856580601000,14.84160107421875,-34.4757080078125,26.333847045898438,0.5421905517578125
1776442856605618000,14.866617919921875,-34.521514892578125,26.00048828125,0.789794921875
1776442856630635000,14.891635009765626,-34.871368408203125,25.577835083007812,0.8260345458984375
1776442856655651000,14.916651123046876,-35.99212646484375,24.42633056640625,1.783538818359375
1776442856680668200,14.941668212890624,-36.730804443359375,23.64178466796875,2.8213348388671875
1776442856705685200,14.966685302734374,-36.81915283203125,22.635009765625,5.2495269775390625
1776442856730701000,14.991701171875,-36.955535888671875,21.650115966796875,7.1412200927734375
1776442856755718000,15.0167177734375,-36.05096435546875,21.218917846679688,9.788162231445312
1776442856780734000,15.04173388671875,-35.741668701171875,20.711196899414062,11.852005004882812
1776442856805751000,15.0667509765625,-35.180572509765625,19.88934326171875,13.893386840820312
1776442856830768000,15.09176806640625,-35.267974853515625,19.351165771484375,14.476211547851562
1776442856855784000,15.116783935546875,-36.319244384765625,18.060638427734375,15.095535278320312
1776442856880801000,15.141801025390626,-36.44940185546875,17.556625366210938,14.969406127929688
1776442856905817000,15.166817138671876,-37.151763916015625,17.273040771484375,13.936813354492188
1776442856930834200,15.191834228515624,-37.3067626953125,16.637893676757812,13.891632080078125
1776442856955851000,15.21685107421875,-37.803558349609375,16.433013916015625,14.019927978515625
1776442856980867000,15.2418671875,-37.5321044921875,15.900482177734375,13.677093505859375
1776442857005884000,15.2668837890625,-38.621002197265625,14.584182739257812,13.819229125976562
1776442857030900000,15.29189990234375,-39.080657958984375,13.731491088867188,13.579803466796875
1776442857055917000,15.3169169921875,-39.067169189453125,13.139236450195312,13.597625732421875
1776442857080934100,15.34193408203125,-39.453216552734375,12.087448120117188,14.107284545898438
1776442857105950200,15.3669501953125,-39.41552734375,11.496170043945312,14.513153076171875
1776442857130967000,15.391967041015626,-39.23236083984375,11.065963745117188,14.954666137695312
1776442857155982800,15.41698291015625,-39.82891845703125,10.574935913085938,15.011993408203125
1776442857181000000,15.442,-39.80743408203125,10.244552612304688,15.367721557617188
1776442857206017000,15.46701708984375,-39.8262939453125,9.355056762695312,16.057586669921875
1776442857231033000,15.492033203125,-39.9547119140625,8.780654907226562,15.954315185546875
1776442857256050200,15.51705029296875,-40.071014404296875,7.887115478515625,15.736785888671875
1776442857281067000,15.54206689453125,-40.208404541015625,7.276031494140625,15.738327026367188
1776442857306083000,15.5670830078125,-40.47802734375,6.0563201904296875,15.590835571289062
1776442857331100000,15.592099853515625,-40.909515380859375,4.8338623046875,14.968734741210938
1776442857356116000,15.617115966796876,-41.585845947265625,4.5406951904296875,14.236968994140625
1776442857381133000,15.642133056640626,-41.79541015625,4.102020263671875,12.58758544921875
1776442857406150100,15.667150146484374,-42.0621337890625,4.1651153564453125,11.9122314453125
1776442857431166000,15.692166015625,-42.579010009765625,3.989593505859375,10.345916748046875
1776442857456183000,15.71718310546875,-42.736083984375,3.85858154296875,9.638839721679688
1776442857481200000,15.7422001953125,-42.854644775390625,3.3824005126953125,9.953475952148438
1776442857506217200,15.76721728515625,-42.5855712890625,3.0457611083984375,10.69415283203125
1776442857531234300,15.792234375,-42.465789794921875,1.754486083984375,12.321014404296875
1776442857556250000,15.81725,-41.9556884765625,1.340240478515625,13.30718994140625
1776442857581267200,15.84226708984375,-41.696563720703125,0.0657196044921875,13.9013671875
1776442857606283300,15.867283203125,-41.868988037109375,0.0352020263671875,13.524826049804688
1776442857631300000,15.892300048828124,-42.558441162109375,-0.8904571533203125,12.711639404296875
1776442857656317200,15.917317138671875,-42.16064453125,-1.144805908203125,12.81573486328125
1776442857681333200,15.942333251953125,-42.00030517578125,-1.9891357421875,13.41204833984375
1776442857706350000,15.96735009765625,-41.510162353515625,-2.871612548828125,14.413894653320312
1776442857731367200,15.9923671875,-41.514190673828125,-4.3682098388671875,15.100234985351562
1776442857756383200,16.01738330078125,-40.830169677734375,-5.6113433837890625,15.500625610351562
1776442857781400300,16.042400390625,-40.61273193359375,-7.2187347412109375,15.831436157226562
1776442857806416400,16.06741650390625,-39.851470947265625,-8.263031005859375,16.352066040039062
1776442857831433200,16.09243310546875,-39.67718505859375,-9.595932006835938,16.602203369140625
1776442857856450000,16.117449951171874,-39.89373779296875,-10.677459716796875,16.049041748046875
1776442857881466000,16.142466064453124,-39.703582763671875,-11.922576904296875,15.50018310546875
1776442857906483200,16.167483154296875,-39.025360107421875,-13.23748779296875,15.533111572265625
1776442857931499300,16.192499267578125,-38.669158935546875,-14.475509643554688,15.866073608398438
1776442857956516400,16.217516357421875,-38.224334716796875,-15.104568481445312,15.750640869140625
1776442857981533200,16.242533203125,-37.993072509765625,-16.534454345703125,14.92193603515625
1776442858006549000,16.267549072265624,-37.9981689453125,-17.7166748046875,14.459243774414062
1776442858031566000,16.292566162109374,-37.38299560546875,-18.449386596679688,14.445648193359375
1776442858056583200,16.317583251953124,-36.855499267578125,-19.063705444335938,13.864364624023438
1776442858081599200,16.34259912109375,-37.214263916015625,-19.82220458984375,12.72320556640625
1776442858106616300,16.3676162109375,-37.193115234375,-20.275390625,12.053665161132812
1776442858131632000,16.392632080078126,-37.741912841796875,-20.494461059570312,10.232009887695312
1776442858156649200,16.417649169921877,-37.62884521484375,-20.523452758789062,9.06744384765625
1776442858181666000,16.442666015625,-37.72198486328125,-20.716079711914062,7.6383819580078125
1776442858206682000,16.46768212890625,-38.088531494140625,-20.768341064453125,7.3104400634765625
1776442858231699200,16.49269921875,-37.76397705078125,-20.899444580078125,6.861236572265625
1776442858256715300,16.51771533203125,-37.744781494140625,-20.808685302734375,6.3696746826171875
1776442858281732000,16.542732177734376,-38.579925537109375,-20.400619506835938,5.1282806396484375
1776442858306749200,16.567749267578126,-39.038330078125,-19.592742919921875,4.6762542724609375
1776442858331765200,16.59276513671875,-39.699676513671875,-18.412353515625,3.5259246826171875
1776442858356782000,16.617781982421874,-39.97357177734375,-18.067550659179688,2.93182373046875
1776442858381799200,16.642799072265625,-40.464599609375,-17.88897705078125,1.5474090576171875
1776442858406815200,16.667815185546875,-40.182830810546875,-17.537460327148438,0.932708740234375
1776442858431832300,16.692832275390625,-40.150787353515625,-17.436004638671875,-0.9470977783203125
1776442858456848100,16.71784814453125,-39.653045654296875,-18.156768798828125,-2.168701171875
1776442858481865200,16.742865234375,-39.60296630859375,-18.402145385742188,-3.686431884765625
1776442858506882300,16.76788232421875,-39.263885498046875,-17.94610595703125,-4.8386688232421875
1776442858531898400,16.7928984375,-39.44317626953125,-17.423110961914062,-6.7122650146484375
1776442858556915200,16.817915283203124,-39.352294921875,-17.446624755859375,-7.5360260009765625
1776442858581932300,16.842932373046875,-39.30731201171875,-17.153823852539062,-9.017562866210938
1776442858606948000,16.867947998046876,-39.198028564453125,-17.257354736328125,-10.195236206054688
1776442858631965200,16.892965087890627,-38.709381103515625,-16.725814819335938,-11.703994750976562
1776442858656981200,16.917981201171877,-38.7393798828125,-16.531341552734375,-13.078826904296875
1776442858681998300,16.942998291015623,-37.910247802734375,-15.477706909179688,-15.4808349609375
1776442858707015200,16.96801513671875,-37.541229248046875,-14.905532836914062,-17.317794799804688
1776442858732031200,16.99303125,-36.378509521484375,-14.250686645507812,-19.74505615234375
1776442858757048000,17.018048095703126,-35.779327392578125,-13.397979736328125,-21.280059814453125
1776442858782064000,17.043064208984376,-35.4508056640625,-12.454940795898438,-23.389175415039062
1776442858807081200,17.068081298828126,-34.398681640625,-11.833389282226562,-24.753631591796875
1776442858832098300,17.093098388671876,-33.28289794921875,-10.345001220703125,-26.640518188476562
1776442858857114400,17.1181142578125,-33.24310302734375,-9.4443359375,-27.955123901367188
1776442858882131200,17.143131103515625,-32.388214111328125,-7.845611572265625,-28.81365966796875
1776442858907148000,17.16814794921875,-32.52105712890625,-6.926727294921875,-28.543289184570312
1776442858932164000,17.1931640625,-32.679718017578125,-6.4436492919921875,-28.816131591796875
1776442858957181200,17.21818115234375,-33.1160888671875,-6.344573974609375,-28.762786865234375
1776442858982197200,17.243197265625,-32.964508056640625,-5.6072845458984375,-28.805099487304688
1776442859007214300,17.26821435546875,-32.880767822265625,-4.989776611328125,-29.001983642578125
1776442859032231200,17.293231201171874,-32.6934814453125,-4.7408447265625,-28.944076538085938
1776442859057247200,17.318247314453124,-33.0950927734375,-4.5405731201171875,-29.13812255859375
1776442859082264000,17.34326416015625,-33.53814697265625,-4.8598175048828125,-28.15948486328125
1776442859107281200,17.36828125,-33.691253662109375,-4.544189453125,-27.883056640625
1776442859132297200,17.393297119140627,-33.97894287109375,-3.697021484375,-27.863418579101562
1776442859157314300,17.418314208984373,-33.89337158203125,-3.061065673828125,-27.637054443359375
1776442859182330000,17.443330078125,-34.69537353515625,-2.1480560302734375,-27.037551879882812
1776442859207347200,17.46834716796875,-35.16156005859375,-1.3035125732421875,-26.701568603515625
1776442859232364300,17.4933642578125,-35.952423095703125,-1.031585693359375,-26.030532836914062
1776442859257380400,17.51838037109375,-36.009185791015625,-0.3389892578125,-26.073577880859375
1776442859282397200,17.543397216796876,-36.360626220703125,0.313507080078125,-25.821853637695312
1776442859307414300,17.568414306640626,-36.2545166015625,0.709503173828125,-25.388763427734375
1776442859332430000,17.59343017578125,-36.397613525390625,1.5676422119140625,-24.83685302734375
1776442859357447200,17.618447265625,-36.800384521484375,1.7281646728515625,-24.380020141601562
1776442859382463200,17.643463134765625,-37.477874755859375,1.9762115478515625,-23.617431640625
1776442859407480300,17.668480224609375,-37.80987548828125,2.4731597900390625,-22.421142578125
1776442859432497200,17.6934970703125,-38.45489501953125,3.1783447265625,-22.263076782226562
1776442859457513200,17.71851318359375,-37.820770263671875,3.9782257080078125,-21.903793334960938
1776442859482529000,17.743529052734374,-37.99017333984375,4.9220428466796875,-22.043792724609375
1776442859507545900,17.7685458984375,-36.8170166015625,6.2801971435546875,-23.43988037109375
1776442859532562000,17.79356201171875,-36.8719482421875,6.4032440185546875,-24.106826782226562
1776442859557579000,17.8185791015625,-36.447265625,6.2941436767578125,-24.517898559570312
1776442859582595000,17.843594970703126,-36.65228271484375,6.58984375,-24.212448120117188
1776442859607612200,17.868612060546877,-36.565673828125,6.876007080078125,-23.924957275390625
1776442859632629000,17.89362890625,-36.809295654296875,7.1889801025390625,-23.314971923828125
1776442859657645000,17.91864501953125,-37.298309326171875,8.040634155273438,-22.13250732421875
1776442859682662000,17.943661865234375,-37.117279052734375,8.438095092773438,-21.302871704101562
1776442859707679000,17.968678955078126,-37.1387939453125,10.19097900390625,-20.68896484375
1776442859732695000,17.993695068359376,-36.67950439453125,11.013214111328125,-21.213699340820312
1776442859757712100,18.018712158203126,-35.89935302734375,12.53961181640625,-22.638076782226562
1776442859782728000,18.04372802734375,-35.44781494140625,12.980850219726562,-22.962539672851562
1776442859807745000,18.0687451171875,-35.83013916015625,13.73785400390625,-21.869110107421875
1776442859832762000,18.09376220703125,-36.056915283203125,14.32427978515625,-20.610366821289062
1776442859857778200,18.118778076171875,-36.639068603515625,14.182174682617188,-19.051910400390625
1776442859882795000,18.143794921875,-37.69970703125,13.90679931640625,-18.031753540039062
1776442859907812000,18.16881201171875,-37.7908935546875,14.32073974609375,-17.2525634765625
1776442859932828000,18.193827880859374,-37.89813232421875,14.717910766601562,-16.5257568359375
1776442859957845000,18.218844970703124,-38.282867431640625,15.441070556640625,-15.75567626953125
1776442859982861000,18.243861083984374,-38.180755615234375,15.191177368164062,-14.907913208007812
1776442860007878100,18.268878173828124,-38.406524658203125,15.42449951171875,-13.966690063476562
1776442860032895000,18.29389501953125,-38.19635009765625,15.532989501953125,-13.992034912109375
1776442860057911000,18.3189111328125,-38.24871826171875,15.8018798828125,-13.534866333007812
1776442860082927900,18.343927978515627,-38.298675537109375,15.7398681640625,-12.777725219726562
1776442860107945000,18.368945068359373,-38.47784423828125,15.971954345703125,-12.145065307617188
1776442860132961000,18.3939609375,-38.461029052734375,16.38677978515625,-12.209518432617188
1776442860157978000,18.41897802734375,-38.220123291015625,16.703170776367188,-11.899276733398438
1776442860182994200,18.443994140625,-38.162689208984375,17.0926513671875,-11.40374755859375
1776442860208011000,18.469010986328126,-38.26300048828125,17.219955444335938,-10.7301025390625
1776442860233027800,18.49402783203125,-38.529266357421875,17.154922485351562,-10.22650146484375
1776442860258044000,18.5190439453125,-38.773712158203125,17.005889892578125,-8.984893798828125
1776442860283061000,18.54406103515625,-39.191192626953125,16.550933837890625,-8.276092529296875
1776442860308078000,18.569078125,-39.667327880859375,16.295455932617188,-7.2360687255859375
1776442860333094100,18.59409423828125,-40.165374755859375,16.162307739257812,-6.8514862060546875
1776442860358111200,18.619111328125,-39.30029296875,16.793121337890625,-6.68255615234375
1776442860383127000,18.644126953125,-39.2364501953125,17.197357177734375,-7.167022705078125
1776442860408144000,18.669143798828124,-39.181243896484375,17.484359741210938,-7.8547821044921875
1776442860433161000,18.694160888671874,-38.7330322265625,18.11224365234375,-7.3819122314453125
1776442860458177000,18.719177001953124,-38.8533935546875,18.671905517578125,-6.3308868408203125
1776442860483194000,18.744194091796874,-38.69873046875,18.613250732421875,-5.2064971923828125
1776442860508211500,18.76921142578125,-38.87908935546875,18.759307861328125,-2.7072601318359375
1776442860533227300,18.794227294921875,-39.08929443359375,18.597503662109375,-1.4899444580078125
1776442860558244400,18.819244384765625,-39.2198486328125,18.513763427734375,0.4510955810546875
1776442860583260400,18.844260498046875,-38.85675048828125,18.383438110351562,1.2989959716796875
1776442860608277200,18.86927734375,-38.8043212890625,18.911514282226562,2.1002197265625
1776442860633294300,18.89429443359375,-38.70660400390625,19.084457397460938,2.4017486572265625
1776442860658310400,18.919310302734374,-38.454803466796875,19.006179809570312,3.2519378662109375
1776442860683327500,18.944327392578124,-38.738067626953125,18.413116455078125,3.633087158203125
1776442860708344300,18.96934423828125,-39.817474365234375,17.2723388671875,4.612335205078125
1776442860733360400,18.9943603515625,-39.886474609375,16.94659423828125,5.0816650390625
1776442860758377200,19.019377197265626,-39.9547119140625,16.091903686523438,6.1694488525390625
1776442860783394300,19.044394287109377,-39.878662109375,15.94927978515625,6.9547882080078125
1776442860808410400,19.069410400390623,-39.58282470703125,15.298492431640625,7.2964324951171875
1776442860833427500,19.094427490234374,-39.400726318359375,15.062103271484375,7.6636810302734375
1776442860858443300,19.119443359375,-40.026153564453125,14.48309326171875,8.47808837890625
1776442860883460400,19.14446044921875,-40.0609130859375,14.290145874023438,9.112350463867188
1776442860908477200,19.169477294921876,-40.034881591796875,13.623672485351562,10.249893188476562
1776442860933493200,19.1944931640625,-39.507232666015625,12.980087280273438,11.092193603515625
1776442860958510300,19.21951025390625,-39.933746337890625,12.145217895507812,11.526031494140625
1776442860983526100,19.244526123046874,-40.019989013671875,11.614089965820312,11.72601318359375
1776442861008543200,19.269543212890625,-40.119964599609375,10.246078491210938,12.279067993164062
1776442861033560300,19.294560302734375,-40.4842529296875,9.644821166992188,12.468505859375
1776442861058576400,19.319576416015625,-40.500732421875,8.194061279296875,12.989852905273438
1776442861083593500,19.344593505859375,-40.5570068359375,7.7076873779296875,13.414031982421875
1776442861108610300,19.3696103515625,-40.322052001953125,6.3323822021484375,13.985107421875
1776442861133626000,19.394626220703124,-40.233184814453125,6.0114898681640625,14.459747314453125
1776442861158643200,19.419643310546874,-40.81768798828125,5.207733154296875,14.394378662109375
1776442861183660300,19.444660400390624,-40.515655517578125,4.539031982421875,14.16058349609375
1776442861208676400,19.46967626953125,-40.431793212890625,4.610687255859375,14.276336669921875
1776442861233693400,19.494693359375,-40.881439208984375,3.8214874267578125,14.080612182617188
1776442861258709500,19.51970947265625,-40.8153076171875,3.9683074951171875,14.078399658203125
1776442861283726300,19.544726318359373,-41.03668212890625,3.4371795654296875,14.259445190429688
1776442861308743200,19.5697431640625,-40.384979248046875,2.95965576171875,14.67999267578125
1776442861333759200,19.59475927734375,-40.598419189453125,2.4818878173828125,14.913162231445312
1776442861358776300,19.6197763671875,-40.487548828125,1.9817047119140625,15.346389770507812
1776442861383793400,19.64479345703125,-40.7947998046875,1.491455078125,15.198959350585938
1776442861408809500,19.6698095703125,-40.716278076171875,1.277679443359375,15.301528930664062
1776442861433826300,19.694826416015626,-40.605987548828125,0.2966766357421875,15.44561767578125
1776442861458842400,19.71984228515625,-40.527008056640625,-0.67987060546875,15.579193115234375
1776442861483859200,19.744859130859375,-40.7667236328125,-2.220855712890625,15.939163208007812
1776442861508876500,19.76987646484375,-40.333404541015625,-2.436065673828125,15.806015014648438
1776442861533892600,19.794892578125,-40.56341552734375,-3.6299285888671875,15.9505615234375
1776442861558909400,19.819909423828125,-40.761505126953125,-3.44635009765625,14.885086059570312
1776442861583926500,19.844926513671876,-41.59722900390625,-3.2227020263671875,13.426132202148438
1776442861608942600,19.869942626953126,-41.309234619140625,-3.018707275390625,13.143569946289062
1776442861633959400,19.89495947265625,-41.455169677734375,-2.549468994140625,12.86944580078125
1776442861658976500,19.9199765625,-41.61334228515625,-2.3838958740234375,13.023208618164062
1776442861683992600,19.94499267578125,-41.45916748046875,-2.5467376708984375,12.60858154296875
1776442861709009700,19.970009765625,-41.508758544921875,-2.76068115234375,12.197540283203125
1776442861734025500,19.995025390625,-42.067535400390625,-3.30377197265625,11.390731811523438
1776442861759042600,20.02004248046875,-41.88714599609375,-3.9683990478515625,11.260360717773438
1776442861784059600,20.0450595703125,-42.11181640625,-4.233917236328125,10.47491455078125
1776442861809075700,20.07007568359375,-42.0325927734375,-4.961212158203125,10.001266479492188
1776442861834092500,20.095092529296874,-42.00164794921875,-6.4087982177734375,9.493133544921875
1776442861859109600,20.120109619140624,-41.73675537109375,-7.2601318359375,9.906036376953125
1776442861884125400,20.14512548828125,-40.985748291015625,-8.982925415039062,10.644851684570312
1776442861909142500,20.170142578125,-40.545501708984375,-9.681716918945312,11.330657958984375
1776442861934158600,20.19515869140625,-39.97283935546875,-10.2080078125,12.1531982421875
1776442861959175700,20.22017578125,-39.787567138671875,-10.313919067382812,12.5908203125
1776442861984192500,20.245192626953123,-39.7362060546875,-10.4097900390625,13.047515869140625
1776442862009208300,20.270208251953125,-39.769287109375,-10.511398315429688,13.15643310546875
1776442862034225400,20.295225341796876,-39.5128173828125,-11.128189086914062,12.694000244140625
1776442862059242500,20.320242431640626,-39.815277099609375,-11.206008911132812,12.097457885742188
1776442862084258600,20.345258544921876,-39.78509521484375,-11.840286254882812,11.152297973632812
1776442862109275600,20.370275634765626,-39.62493896484375,-12.385528564453125,11.197479248046875
1776442862134291700,20.395291748046876,-39.823516845703125,-13.029541015625,11.135848999023438
1776442862159308500,20.42030859375,-39.887054443359375,-13.314971923828125,11.155960083007812
1776442862184325400,20.445325439453125,-38.98870849609375,-13.94281005859375,10.624771118164062
1776442862209341400,20.470341552734375,-39.02642822265625,-14.472000122070312,10.548797607421875
1776442862234358500,20.495358642578125,-38.8037109375,-14.890350341796875,9.688079833984375
1776442862259375600,20.520375732421876,-39.09637451171875,-15.500045776367188,9.0714111328125
1776442862284391700,20.5453916015625,-38.999908447265625,-16.234146118164062,8.193572998046875
1776442862309408500,20.570408447265624,-39.39031982421875,-16.363861083984375,7.59521484375
1776442862334425300,20.59542529296875,-39.125152587890625,-16.514144897460938,6.649932861328125
1776442862359441400,20.62044140625,-39.31201171875,-16.38671875,5.93560791015625
1776442862384458500,20.64545849609375,-39.726776123046875,-16.554718017578125,4.70208740234375
1776442862409474600,20.670474609375,-39.630462646484375,-16.332046508789062,3.4601898193359375
1776442862434491600,20.69549169921875,-39.644927978515625,-16.062820434570312,1.81280517578125
1776442862459508500,20.720508544921874,-40.06793212890625,-15.790878295898438,0.0050048828125
1776442862484524500,20.745524658203124,-40.40997314453125,-15.434249877929688,-1.7916412353515625
1776442862509541400,20.770541259765626,-40.404052734375,-15.428482055664062,-2.9942626953125
1776442862534558000,20.795557861328124,-40.77301025390625,-15.431182861328125,-3.09136962890625
1776442862559574000,20.820573974609374,-40.6224365234375,-15.499313354492188,-2.97509765625
1776442862584591000,20.845591064453124,-40.03485107421875,-15.100723266601562,-2.6301422119140625
1776442862609608200,20.870608154296875,-39.778594970703125,-15.241546630859375,-2.659271240234375
1776442862634624300,20.895624267578125,-40.00897216796875,-15.000564575195312,-3.2144012451171875
1776442862659641300,20.920641357421875,-39.905670166015625,-14.980865478515625,-3.9307403564453125
1776442862684657200,20.9456572265625,-40.424285888671875,-14.287078857421875,-4.96832275390625
1776442862709674200,20.97067431640625,-40.7637939453125,-14.0413818359375,-5.5640869140625
1776442862734691000,20.995691162109374,-40.615081787109375,-13.644149780273438,-6.474212646484375
1776442862759707100,21.02070703125,-40.84173583984375,-13.484054565429688,-7.4987335205078125
1776442862784724200,21.04572412109375,-40.923614501953125,-12.584426879882812,-8.48040771484375
1776442862809741300,21.0707412109375,-40.88958740234375,-12.559677124023438,-8.920516967773438
1776442862834757000,21.095757080078126,-40.859832763671875,-11.583969116210938,-9.009475708007812
1776442862859774200,21.120774169921877,-40.837615966796875,-11.267654418945312,-9.443771362304688
1776442862884790300,21.145790283203127,-40.897308349609375,-10.861282348632812,-9.979629516601562
1776442862909807000,21.17080712890625,-41.37457275390625,-10.65814208984375,-10.641387939453125
1776442862934824200,21.19582421875,-40.96502685546875,-10.628860473632812,-11.249526977539062
1776442862959840000,21.220840087890625,-41.205108642578125,-10.597305297851562,-11.827484130859375
1776442862984857000,21.245857177734376,-40.68408203125,-10.236312866210938,-12.38177490234375
1776442863009874200,21.270874267578126,-40.508544921875,-10.579299926757812,-12.502365112304688
1776442863034890200,21.29589013671875,-40.402740478515625,-10.835052490234375,-12.305999755859375
1776442863059907000,21.320906982421874,-40.79315185546875,-10.57122802734375,-12.117996215820312
1776442863084924200,21.345924072265625,-40.790679931640625,-10.750320434570312,-12.44549560546875
1776442863109940000,21.37093994140625,-40.771240234375,-10.076919555664062,-12.640411376953125
1776442863134957000,21.39595703125,-40.7119140625,-9.937911987304688,-12.79876708984375
1776442863159973000,21.42097314453125,-40.78759765625,-9.361434936523438,-13.390487670898438
1776442863184990200,21.445990234375,-40.605255126953125,-9.037979125976562,-13.937744140625
1776442863210007300,21.47100732421875,-40.681427001953125,-8.809341430664062,-14.402923583984375
1776442863235023400,21.4960234375,-40.4949951171875,-8.31842041015625,-15.081695556640625
1776442863260040000,21.5210400390625,-40.2225341796875,-7.556549072265625,-16.333419799804688
1776442863285057000,21.54605712890625,-39.916168212890625,-6.805145263671875,-17.217010498046875
1776442863310073000,21.571072998046876,-39.5479736328125,-6.2864532470703125,-18.497695922851562
1776442863335090200,21.596090087890627,-39.4945068359375,-5.9921722412109375,-19.055419921875
1776442863360106200,21.621106201171877,-39.33349609375,-5.5794525146484375,-19.133529663085938
1776442863385123300,21.646123291015623,-39.11175537109375,-5.410369873046875,-19.451095581054688
1776442863410140200,21.67114013671875,-39.0467529296875,-4.7087860107421875,-19.974258422851562
1776442863435156200,21.69615625,-38.3690185546875,-4.339813232421875,-20.769515991210938
1776442863460173000,21.721173095703126,-37.943084716796875,-3.7045745849609375,-21.802093505859375
1776442863485190100,21.746190185546876,-37.309356689453125,-2.738983154296875,-22.345733642578125
1776442863510207700,21.771207763671875,-36.79193115234375,-1.9244842529296875,-23.157577514648438
1776442863535224600,21.796224609375,-37.087188720703125,-1.8251800537109375,-23.31524658203125
1776442863560241700,21.82124169921875,-36.93609619140625,-2.3627166748046875,-23.792373657226562
1776442863585257700,21.8462578125,-36.7451171875,-2.0576934814453125,-23.998382568359375
1776442863610274600,21.871274658203124,-36.03875732421875,-1.7305908203125,-25.150497436523438
1776442863635290600,21.89629052734375,-35.50689697265625,-1.09765625,-25.246856689453125
1776442863660307700,21.9213076171875,-35.53973388671875,0.51507568359375,-25.355911254882812
1776442863685324500,21.946324462890626,-34.694732666015625,1.3257598876953125,-25.463607788085938
1776442863710340900,21.9713408203125,-34.473419189453125,3.184814453125,-25.690277099609375
1776442863735357700,21.996357666015626,-33.98345947265625,4.109466552734375,-25.993560791015625
1776442863760374500,22.02137451171875,-33.9522705078125,5.7482147216796875,-25.438507080078125
1776442863785390600,22.046390625,-34.43707275390625,7.075653076171875,-25.376495361328125
1776442863810407700,22.07140771484375,-34.686004638671875,9.17755126953125,-24.00787353515625
1776442863835424800,22.0964248046875,-35.16888427734375,10.69110107421875,-23.28778076171875
1776442863860440800,22.12144091796875,-34.79632568359375,12.2886962890625,-22.717910766601562
1776442863885457700,22.146457763671876,-34.684112548828125,13.238143920898438,-21.874435424804688
1776442863910473500,22.171473388671874,-33.96807861328125,14.7247314453125,-21.3675537109375
1776442863935490600,22.196490478515624,-33.950927734375,15.290374755859375,-21.288589477539062
1776442863960507600,22.221507568359375,-33.340057373046875,15.8782958984375,-20.834548950195312
1776442863985523700,22.246523681640625,-32.997406005859375,16.526138305664062,-20.75823974609375
1776442864010540800,22.271540771484375,-32.271331787109375,17.077102661132812,-20.840194702148438
1776442864035557600,22.2965576171875,-32.423736572265625,17.407424926757812,-20.800155639648438
1776442864060573700,22.32157373046875,-33.2464599609375,17.332565307617188,-20.2745361328125
1776442864085590500,22.346590576171874,-33.0589599609375,17.184677124023438,-20.02099609375
1776442864110607600,22.371607666015624,-32.799774169921875,17.33837890625,-20.998428344726562
1776442864135623700,22.396623779296874,-32.60003662109375,16.946502685546875,-21.408294677734375
1776442864160640800,22.421640869140624,-31.983917236328125,16.778518676757812,-22.735092163085938
1776442864185656600,22.446656494140626,-31.827667236328125,16.767242431640625,-23.116790771484375
1776442864210673700,22.471673583984376,-31.4482421875,17.183502197265625,-23.519119262695312
1776442864235690500,22.4966904296875,-31.27886962890625,17.412948608398438,-23.603042602539062
1776442864260706600,22.52170654296875,-31.223388671875,17.62835693359375,-24.152267456054688
1776442864285723600,22.5467236328125,-30.44854736328125,17.7391357421875,-24.053466796875
1776442864310740700,22.57174072265625,-30.08502197265625,17.840560913085938,-24.65203857421875
1776442864335756500,22.596756591796876,-29.666656494140625,18.10888671875,-24.965911865234375
1776442864360773600,22.621773681640626,-28.665924072265625,18.509109497070312,-25.760894775390625
1776442864385790500,22.64679052734375,-27.99468994140625,18.809967041015625,-25.968490600585938
1776442864410806500,22.671806640625,-28.516448974609375,18.58551025390625,-26.521987915039062
1776442864435823600,22.69682373046875,-28.139129638671875,18.554611206054688,-26.977615356445312
1776442864460839700,22.721839599609375,-27.0321044921875,18.178390502929688,-27.922805786132812
1776442864485856800,22.746856689453125,-26.787322998046875,18.082244873046875,-28.548568725585938
1776442864510872300,22.771872314453127,-26.030853271484375,17.320037841796875,-29.5684814453125
1776442864535888400,22.796888427734373,-25.766357421875,17.074005126953125,-30.23712158203125
1776442864560905500,22.821905517578124,-25.68408203125,16.358535766601562,-30.877304077148438
1776442864585922600,22.846922607421874,-25.16558837890625,16.041702270507812,-31.405410766601562
1776442864610938600,22.871938720703124,-24.194091796875,15.464767456054688,-32.359710693359375
1776442864635955500,22.89695556640625,-23.561492919921875,15.074966430664062,-33.115447998046875
1776442864660972300,22.92197216796875,-23.319915771484375,14.263534545898438,-34.09796142578125
1776442864685988400,22.94698828125,-22.830047607421875,13.933853149414062,-34.095672607421875
1776442864711005400,22.97200537109375,-22.63287353515625,13.085128784179688,-34.39604187011719
1776442864736021500,22.997021484375,-22.292694091796875,12.99761962890625,-34.60499572753906
1776442864761038600,23.02203857421875,-21.976776123046875,12.146697998046875,-35.22320556640625
1776442864786055700,23.0470556640625,-21.8153076171875,11.84375,-35.687347412109375
1776442864811071500,23.072071533203125,-21.098236083984375,10.694992065429688,-36.381195068359375
1776442864836088300,23.09708837890625,-20.459136962890625,9.990280151367188,-36.594482421875
1776442864861105400,23.12210546875,-20.45379638671875,9.165496826171875,-37.03025817871094
1776442864886121500,23.14712158203125,-19.875457763671875,8.038314819335938,-38.04731750488281
1776442864911138600,23.172138671875,-19.24664306640625,7.253173828125,-38.33146667480469
1776442864936155600,23.19715576171875,-17.875,7.5373687744140625,-38.57032775878906
1776442864961171500,23.22217138671875,-17.20355224609375,7.3750762939453125,-38.9205322265625
1776442864986188300,23.247188232421873,-16.224151611328125,7.1447906494140625,-39.65863037109375
1776442865011204600,23.27220458984375,-15.470428466796875,6.9806365966796875,-39.798248291015625
1776442865036221400,23.297221435546874,-14.652130126953125,6.9451446533203125,-40.12718200683594
1776442865061238500,23.322238525390624,-13.7860107421875,6.3135833740234375,-40.343719482421875
1776442865086254300,23.34725439453125,-13.51605224609375,5.537017822265625,-40.59535217285156
1776442865111271400,23.372271484375,-13.557464599609375,5.0618896484375,-40.9046630859375
1776442865136288500,23.39728857421875,-12.711883544921875,4.3326873779296875,-41.03184509277344
1776442865161304600,23.4223046875,-12.682708740234375,3.9598388671875,-41.19659423828125
1776442865186321400,23.4473212890625,-11.7205810546875,3.9101104736328125,-41.558990478515625
1776442865211338500,23.47233837890625,-11.15313720703125,3.9681549072265625,-41.34782409667969
1776442865236354300,23.497354248046875,-11.0262451171875,4.699462890625,-41.41819763183594
1776442865261371400,23.522371337890625,-10.579345703125,4.91705322265625,-41.76048278808594
1776442865286388500,23.547388427734376,-10.547149658203125,5.1472930908203125,-41.755157470703125
1776442865311404500,23.572404541015626,-10.815216064453125,4.7167816162109375,-41.54083251953125
1776442865336421400,23.59742138671875,-11.527099609375,3.62603759765625,-41.290740966796875
1776442865361437400,23.6224375,-11.724517822265625,3.173248291015625,-41.212158203125
1776442865386454300,23.647454345703125,-12.277435302734375,2.3160552978515625,-41.258819580078125
1776442865411471400,23.672471435546875,-12.2701416015625,2.15167236328125,-41.22175598144531
1776442865436487400,23.6974873046875,-12.276336669921875,1.638031005859375,-41.024017333984375
1776442865461504500,23.72250439453125,-12.328643798828125,0.9573211669921875,-40.86865234375
1776442865486521600,23.747521484375,-12.919677734375,0.5031585693359375,-40.617767333984375
1776442865511537700,23.77253759765625,-13.381866455078125,0.248321533203125,-40.70965576171875
1776442865536554800,23.7975546875,-13.573394775390625,0.0834503173828125,-40.38389587402344
1776442865561571800,23.82257177734375,-13.40679931640625,0.0240631103515625,-40.8768310546875
1776442865586588000,23.847587890625,-13.326019287109375,0.6656341552734375,-40.75459289550781
1776442865611605000,23.87260498046875,-13.118927001953125,1.2372283935546875,-40.84223937988281
1776442865636620800,23.897620849609375,-13.5465087890625,1.3056182861328125,-40.56718444824219
1776442865661638000,23.922637939453125,-13.511932373046875,1.2426300048828125,-40.88597106933594
1776442865686654700,23.94765478515625,-13.74517822265625,0.6956787109375,-40.2607421875
1776442865711670800,23.9726708984375,-13.6416015625,0.255218505859375,-40.57843017578125
1776442865736687900,23.99768798828125,-13.308135986328125,-0.131744384765625,-40.58497619628906
1776442865761705000,24.022705078125,-13.412109375,-0.528076171875,-40.84025573730469
1776442865786720800,24.047720703125,-13.108123779296875,-0.519378662109375,-40.521087646484375
1776442865811737900,24.07273779296875,-12.44354248046875,0.038909912109375,-40.475738525390625
1776442865836754700,24.097754638671876,-11.279296875,0.781707763671875,-40.86811828613281
1776442865861770800,24.122770751953126,-10.2891845703125,1.3620147705078125,-40.81044006347656
1776442865886787800,24.147787841796877,-9.7225341796875,2.1024322509765625,-40.95497131347656
1776442865911805000,24.172804931640623,-9.192901611328125,2.1634674072265625,-41.175537109375
1776442865936820700,24.19782080078125,-9.68670654296875,2.237060546875,-40.77311706542969
1776442865961837800,24.222837890625,-9.313446044921875,2.6446533203125,-40.77973937988281
1776442865986854000,24.24785400390625,-8.15618896484375,3.0091552734375,-40.68302917480469
1776442866011871000,24.27287109375,-7.946502685546875,2.4664764404296875,-40.766143798828125
1776442866036887800,24.2978876953125,-9.26068115234375,1.725921630859375,-40.78584289550781
1776442866061903600,24.322903564453124,-9.143310546875,0.81597900390625,-40.75262451171875
1776442866086920700,24.347920654296875,-10.39996337890625,0.2420806884765625,-40.495208740234375
1776442866111937800,24.372937744140625,-10.873046875,-0.112335205078125,-40.19136047363281
1776442866136953900,24.397953857421875,-11.42724609375,-0.3196563720703125,-40.19862365722656
1776442866161971000,24.422970947265625,-11.253631591796875,-1.062957763671875,-40.328582763671875
1776442866186987800,24.44798779296875,-12.16412353515625,-1.7867431640625,-39.79766845703125
1776442866212003600,24.473003662109374,-11.71160888671875,-2.6481781005859375,-39.86834716796875
1776442866237020700,24.498020751953124,-10.726409912109375,-3.93206787109375,-40.294952392578125
1776442866262036700,24.52303662109375,-9.902618408203125,-4.37689208984375,-40.12550354003906
1776442866287053800,24.5480537109375,-10.3634033203125,-5.8421630859375,-39.890106201171875
1776442866312071000,24.57307080078125,-10.950408935546875,-6.82012939453125,-39.85459899902344
1776442866337087000,24.5980869140625,-11.974700927734375,-7.598785400390625,-39.203857421875
1776442866362104000,24.62310400390625,-12.3319091796875,-7.515350341796875,-39.00834655761719
1776442866387119900,24.648119873046873,-12.738739013671875,-7.80224609375,-38.83515930175781
1776442866412136700,24.67313671875,-12.132354736328125,-7.9344940185546875,-39.04023742675781
1776442866437152800,24.69815283203125,-12.310394287109375,-8.222869873046875,-38.89494323730469
1776442866462169900,24.723169921875,-11.688140869140625,-8.606475830078125,-39.01661682128906
1776442866487186400,24.7481865234375,-9.968109130859375,-8.894149780273438,-39.240966796875
1776442866512202500,24.773202392578124,-9.25384521484375,-9.177749633789062,-39.316650390625
1776442866537219600,24.798219482421874,-8.50762939453125,-9.861068725585938,-39.45848083496094
1776442866562236400,24.823236328125,-8.0521240234375,-10.338211059570312,-39.268585205078125
1776442866587252500,24.84825244140625,-7.997039794921875,-10.460830688476562,-38.81068420410156
1776442866612269300,24.873269287109373,-7.78240966796875,-10.622711181640625,-38.9376220703125
1776442866637286400,24.898286376953124,-7.564788818359375,-10.4979248046875,-38.931427001953125
1776442866662302500,24.923302490234374,-7.033416748046875,-10.954147338867188,-39.022125244140625
1776442866687319600,24.948319580078124,-5.257843017578125,-11.337203979492188,-39.3935546875
1776442866712336400,24.97333642578125,-4.011871337890625,-11.221115112304688,-39.285491943359375
1776442866737352400,24.9983525390625,-2.389892578125,-11.3697509765625,-39.028564453125
1776442866762369300,25.023369384765626,-1.73529052734375,-11.851837158203125,-39.10762023925781
1776442866787385300,25.04838525390625,-1.084503173828125,-12.188018798828125,-38.74078369140625
1776442866812402400,25.07340234375,-1.027740478515625,-12.400970458984375,-39.02491760253906
1776442866837419500,25.09841943359375,-0.563720703125,-12.19866943359375,-39.00273132324219
1776442866862435300,25.123435302734375,-0.195404052734375,-12.287261962890625,-38.85308837890625
1776442866887452400,25.148452392578125,0.364990234375,-12.4224853515625,-39.089141845703125
1776442866912469500,25.173469482421876,1.075836181640625,-12.582061767578125,-39.0750732421875
1776442866937485600,25.198485595703126,2.6483154296875,-12.855926513671875,-38.59959411621094
1776442866962502400,25.22350244140625,3.467559814453125,-12.922622680664062,-38.59393310546875
1776442866987519500,25.24851953125,4.291534423828125,-12.64801025390625,-38.600250244140625
1776442867012535300,25.273535400390625,4.31524658203125,-12.568206787109375,-38.66850280761719
1776442867037552400,25.298552490234375,4.64990234375,-12.765243530273438,-38.386444091796875
1776442867062568400,25.323568359375,5.74444580078125,-12.929916381835938,-38.518096923828125
1776442867087585500,25.34858544921875,6.367462158203125,-12.245697021484375,-38.17124938964844
1776442867112602400,25.373602294921874,6.811370849609375,-11.951309204101562,-38.12042236328125
1776442867137618200,25.3986181640625,6.750762939453125,-11.946212768554688,-37.6904296875
1776442867162635300,25.42363525390625,7.315032958984375,-11.382537841796875,-37.90904235839844
1776442867187652400,25.44865234375,7.72491455078125,-10.80084228515625,-37.85392761230469
1776442867212668400,25.47366845703125,8.30413818359375,-10.505767822265625,-38.173431396484375
1776442867237685500,25.498685546875,8.135284423828125,-10.31964111328125,-38.57122802734375
1776442867262702600,25.52370263671875,8.100799560546875,-9.999130249023438,-38.127166748046875
1776442867287718400,25.548718505859377,8.0875244140625,-9.81842041015625,-38.54510498046875
1776442867312735200,25.5737353515625,8.152374267578125,-10.216964721679688,-38.5855712890625
1776442867337752300,25.59875244140625,8.252838134765625,-10.368545532226562,-38.256805419921875
1776442867362768400,25.623768310546875,8.68475341796875,-10.847213745117188,-37.84761047363281
1776442867387785500,25.648785400390626,9.337738037109375,-11.263504028320312,-37.51664733886719
1776442867412801500,25.673801513671876,9.639373779296875,-11.788543701171875,-37.44697570800781
1776442867437818400,25.698818359375,9.5357666015625,-11.995208740234375,-37.54777526855469
1776442867462835200,25.723835205078124,9.579071044921875,-12.009918212890625,-37.150909423828125
1776442867487852500,25.7488525390625,10.6683349609375,-12.17138671875,-36.99522399902344
1776442867512869600,25.77386962890625,11.247650146484375,-12.404098510742188,-36.814056396484375
1776442867537886700,25.79888671875,11.25677490234375,-12.37237548828125,-36.56988525390625
1776442867562902800,25.82390283203125,11.1317138671875,-12.256439208984375,-36.81201171875
1776442867587919600,25.848919677734376,11.21832275390625,-11.552871704101562,-36.48829650878906
1776442867612936700,25.873936767578126,11.806427001953125,-12.017242431640625,-36.37255859375
1776442867637952500,25.898952392578124,12.6009521484375,-12.383316040039062,-36.00775146484375
1776442867662969600,25.923969482421874,12.437896728515625,-12.59130859375,-35.772674560546875
1776442867687986700,25.948986572265625,13.628753662109375,-12.59228515625,-35.4522705078125
1776442867713002800,25.974002685546875,12.94061279296875,-12.601638793945312,-35.70501708984375
1776442867738019600,25.99901953125,13.0750732421875,-11.609405517578125,-36.12803649902344
1776442867763035600,26.02403564453125,12.147186279296875,-11.202560424804688,-36.367889404296875
1776442867788052500,26.049052490234374,12.47845458984375,-10.377609252929688,-37.00202941894531
1776442867813069600,26.074069580078124,12.346099853515625,-10.533294677734375,-36.802978515625
1776442867838085600,26.099085693359374,12.8529052734375,-10.616409301757812,-36.609375
1776442867863102700,26.124102783203124,12.80767822265625,-10.49578857421875,-36.36241149902344
1776442867888119800,26.149119873046875,12.905303955078125,-10.19317626953125,-36.43170166015625
1776442867913135900,26.174135986328125,12.53314208984375,-10.128082275390625,-36.685394287109375
1776442867938152400,26.19915234375,12.253509521484375,-9.370742797851562,-36.91688537597656
1776442867963169500,26.22416943359375,12.018524169921875,-9.058685302734375,-37.05986022949219
1776442867988185600,26.249185546875,11.422332763671875,-8.711639404296875,-37.73406982421875
1776442868013202700,26.27420263671875,11.344879150390625,-8.328903198242188,-37.238128662109375
1776442868038219800,26.2992197265625,12.4739990234375,-8.039031982421875,-37.340667724609375
1776442868063235800,26.32423583984375,12.880950927734375,-7.9638824462890625,-37.17236328125
1776442868088252700,26.349252685546876,12.607757568359375,-7.3347320556640625,-37.402618408203125
1776442868113268700,26.374268798828126,12.5703125,-7.0809326171875,-37.51225280761719
1776442868138285600,26.39928564453125,13.04345703125,-6.5632476806640625,-37.12443542480469
1776442868163302700,26.424302734375,13.524017333984375,-6.1697845458984375,-36.97718811035156
1776442868188318700,26.449318603515625,13.758941650390625,-5.5787811279296875,-37.3177490234375
1776442868213335800,26.474335693359375,13.84442138671875,-5.1153564453125,-37.30497741699219
1776442868238352600,26.4993525390625,13.18524169921875,-4.535614013671875,-37.56639099121094
1776442868263368700,26.52436865234375,12.42047119140625,-3.655364990234375,-37.82044982910156
1776442868288385500,26.549385498046874,12.08917236328125,-3.520050048828125,-37.964874267578125
1776442868313402600,26.574402587890624,12.78497314453125,-3.3905792236328125,-37.99737548828125
1776442868338418700,26.599418701171874,12.76580810546875,-3.2405853271484375,-38.04112243652344
1776442868363435800,26.624435791015625,13.234100341796875,-2.7985076904296875,-37.951629638671875
1776442868388452900,26.649452880859375,13.373077392578125,-2.393463134765625,-38.19598388671875
1776442868413468700,26.67446875,12.89422607421875,-2.105926513671875,-38.233367919921875
1776442868438485500,26.699485595703123,12.96661376953125,-1.8924407958984375,-38.285797119140625
1776442868463501600,26.72450146484375,12.73236083984375,-1.0468597412109375,-37.94584655761719
1776442868488517600,26.749517578125,13.137908935546875,-0.308685302734375,-37.86241149902344
1776442868513534200,26.7745341796875,13.84954833984375,0.1573486328125,-38.012664794921875
1776442868538550300,26.79955029296875,14.283599853515625,0.1295623779296875,-37.815582275390625
1776442868563567400,26.8245673828125,14.824737548828125,0.6304779052734375,-37.79664611816406
1776442868588584400,26.84958447265625,15.0047607421875,1.100250244140625,-37.75990295410156
1776442868613600500,26.8746005859375,15.13665771484375,1.609619140625,-37.459686279296875
1776442868638617600,26.89961767578125,15.067138671875,1.736083984375,-37.687408447265625
1776442868663634200,26.92463427734375,15.949676513671875,2.135101318359375,-37.49415588378906
1776442868688650500,26.949650390625,15.97686767578125,2.52520751953125,-37.55271911621094
1776442868713667300,26.974667236328123,15.33355712890625,3.5694427490234375,-37.62896728515625
1776442868738684400,26.999684326171874,15.393463134765625,4.0930633544921875,-37.80743408203125
1776442868763700500,27.024700439453124,15.309814453125,4.501983642578125,-37.71125793457031
1776442868788717600,27.049717529296874,15.202239990234375,4.525238037109375,-37.7574462890625
1776442868813733400,27.0747333984375,15.06640625,5.1900482177734375,-37.909576416015625
1776442868838750500,27.09975048828125,15.195159912109375,5.796722412109375,-37.675872802734375
1776442868863767300,27.124767333984376,15.84442138671875,5.749786376953125,-37.28886413574219
1776442868888783400,27.149783447265627,15.81243896484375,5.3846588134765625,-37.24114990234375
1776442868913800400,27.174800537109373,15.624359130859375,6.324554443359375,-37.403228759765625
1776442868938817500,27.199817626953124,15.29345703125,6.8014984130859375,-37.483184814453125
1776442868963833300,27.224833251953125,14.353851318359375,7.1124267578125,-37.397979736328125
1776442868988850400,27.249850341796876,14.458770751953125,6.7565460205078125,-37.308685302734375
1776442869013867300,27.2748671875,14.59649658203125,6.986724853515625,-37.64459228515625
1776442869038883300,27.29988330078125,13.854034423828125,7.5901031494140625,-37.56126403808594
1776442869063900400,27.324900390625,12.6025390625,8.62103271484375,-37.75946044921875
1776442869088916200,27.349916259765624,12.19976806640625,8.268203735351562,-37.885589599609375
1776442869113933300,27.374933349609375,11.236083984375,7.801422119140625,-38.375823974609375
1776442869138950400,27.399950439453125,10.567535400390625,7.7018890380859375,-38.436981201171875
1776442869163966500,27.424966552734375,10.23089599609375,8.113845825195312,-38.3773193359375
1776442869188983600,27.449983642578125,8.96392822265625,9.04058837890625,-38.56529235839844
1776442869214000400,27.47500048828125,7.3021240234375,9.539154052734375,-38.98606872558594
1776442869239016200,27.50001611328125,6.647735595703125,9.683731079101562,-39.363739013671875
1776442869264033300,27.525033203125,6.1956787109375,10.111297607421875,-39.20762634277344
1776442869289050400,27.55005029296875,6.054443359375,10.239395141601562,-39.3201904296875
1776442869314066400,27.57506640625,5.7578125,10.616729736328125,-39.01237487792969
1776442869339083500,27.60008349609375,5.799346923828125,10.764846801757812,-38.921722412109375
1776442869364100400,27.625100341796873,5.342620849609375,10.872421264648438,-38.891143798828125
1776442869389116200,27.6501162109375,5.202606201171875,11.1531982421875,-39.13771057128906
1776442869414133200,27.67513330078125,4.8238525390625,11.31878662109375,-39.0986328125
1776442869439149300,27.7001494140625,4.639190673828125,10.87274169921875,-39.26759338378906
1776442869464166400,27.72516650390625,3.6500244140625,10.511322021484375,-39.27757263183594
1776442869489184300,27.750184326171876,3.314849853515625,9.876266479492188,-39.58551025390625
1776442869514200300,27.775200439453126,3.332489013671875,9.402542114257812,-39.61322021484375
1776442869539217200,27.800217041015625,2.973388671875,9.239425659179688,-39.51420593261719
1776442869564234200,27.825234130859375,3.0755615234375,8.77630615234375,-39.49955749511719
1776442869589250000,27.85025,3.191436767578125,8.5384521484375,-39.49705505371094
1776442869614267100,27.87526708984375,3.025970458984375,8.213211059570312,-39.68841552734375
1776442869639284200,27.9002841796875,2.386932373046875,7.879547119140625,-39.91007995605469
1776442869664300300,27.92530029296875,1.3641357421875,7.4305419921875,-39.887359619140625
1776442869689317000,27.950317138671874,0.585601806640625,7.6528472900390625,-40.12507629394531
1776442869714334200,27.975334228515624,-0.1566162109375,7.3379058837890625,-40.14140319824219
1776442869739350000,28.00035009765625,-0.2294921875,7.0462799072265625,-40.35234069824219
1776442869764367000,28.0253671875,-0.285003662109375,7.1134033203125,-39.9246826171875
1776442869789383200,28.050383056640626,0.04705810546875,7.1895294189453125,-40.228179931640625
1776442869814400300,28.075400146484377,-0.49517822265625,7.520599365234375,-40.15238952636719
1776442869839417300,28.100417236328123,-1.85369873046875,7.3036651611328125,-40.20903015136719
1776442869864433200,28.12543310546875,-3.6539306640625,7.290008544921875,-40.39739990234375
1776442869889450000,28.150449951171876,-4.58782958984375,7.2062225341796875,-40.16326904296875
1776442869914467000,28.175467041015626,-5.5721435546875,7.4003143310546875,-40.05426025390625
1776442869939483100,28.200483154296876,-5.6990966796875,7.6948089599609375,-40.33746337890625
1776442869964500200,28.225500244140626,-5.538543701171875,7.442901611328125,-40.18904113769531
1776442869989517300,28.250517333984376,-5.853973388671875,6.830902099609375,-39.98655700683594
1776442870014533000,28.275533203125,-6.824249267578125,6.7581634521484375,-40.32579040527344
1776442870039550000,28.300550048828125,-7.0933837890625,6.2761383056640625,-40.000946044921875
1776442870064566000,28.32556591796875,-6.238555908203125,6.5438995361328125,-40.145660400390625
1776442870089583000,28.3505830078125,-6.2171630859375,6.4412841796875,-40.31575012207031
1776442870114600200,28.37560009765625,-5.93084716796875,6.1649169921875,-40.388092041015625
1776442870139616300,28.4006162109375,-6.297576904296875,6.1480560302734375,-40.403778076171875
1776442870164633300,28.42563330078125,-6.2840576171875,5.8386688232421875,-40.2723388671875
1776442870189650200,28.450650146484374,-6.5643310546875,6.2324371337890625,-40.40177917480469
1776442870214666200,28.475666259765624,-6.697113037109375,6.319732666015625,-40.38734436035156
1776442870239683000,28.50068310546875,-7.544525146484375,6.5519561767578125,-40.55094909667969
1776442870264700200,28.5257001953125,-7.277252197265625,7.094390869140625,-40.214752197265625
1776442870289716200,28.55071630859375,-7.30352783203125,7.0706329345703125,-40.14892578125
1776442870314733300,28.5757333984375,-7.987640380859375,7.7548370361328125,-40.19438171386719
1776442870339749000,28.6007490234375,-8.169158935546875,7.9565582275390625,-39.935943603515625
1776442870364766200,28.62576611328125,-7.99871826171875,8.106109619140625,-39.932403564453125
1776442870389783000,28.650782958984376,-8.47784423828125,8.000701904296875,-40.208343505859375
1776442870414799000,28.675799072265626,-8.92669677734375,8.104110717773438,-40.10829162597656
1776442870439816200,28.700816162109376,-10.624420166015625,8.05218505859375,-39.91279602050781
1776442870464833300,28.725833251953127,-11.09613037109375,8.175994873046875,-39.77256774902344
1776442870489848800,28.750848876953125,-12.27459716796875,8.15032958984375,-39.53263854980469
1776442870514866000,28.775865966796875,-13.219696044921875,8.345550537109375,-39.36195373535156
1776442870539883000,28.800883056640625,-13.96844482421875,8.5865478515625,-38.92181396484375
1776442870564898800,28.82589892578125,-14.456024169921875,8.701461791992188,-39.09080505371094
1776442870589915600,28.85091552734375,-15.397125244140625,8.854217529296875,-38.486846923828125
1776442870614931700,28.875931640625,-16.300537109375,9.095474243164062,-38.17388916015625
1776442870639948800,28.90094873046875,-17.552764892578125,9.567764282226562,-37.38185119628906
1776442870664966000,28.9259658203125,-18.708953857421875,10.260910034179688,-36.768829345703125
1776442870689981700,28.950981689453126,-19.952056884765625,10.152725219726562,-36.1868896484375
1776442870714998800,28.975998779296877,-19.99017333984375,10.319183349609375,-35.8260498046875
1776442870740015900,29.001015869140623,-20.878326416015625,9.897262573242188,-35.44287109375
1776442870765032000,29.026031982421873,-20.85040283203125,9.551300048828125,-35.50166320800781
1776442870790048800,29.051048828125,-21.880645751953125,9.040420532226562,-34.75675964355469
1776442870815065900,29.07606591796875,-22.346160888671875,8.651504516601562,-34.9095458984375
1776442870840081700,29.10108154296875,-23.011810302734375,8.630096435546875,-34.79902648925781
1776442870865098800,29.1260986328125,-23.361419677734375,8.530746459960938,-34.81672668457031
1776442870890114800,29.15111474609375,-23.799224853515625,7.9610443115234375,-34.3173828125
1776442870915132000,29.1761318359375,-23.951904296875,7.9029388427734375,-33.95442199707031
1776442870940148700,29.201148681640625,-23.880889892578125,8.248779296875,-34.07420349121094
1776442870965164800,29.226164794921875,-23.759429931640625,8.031539916992188,-34.20066833496094
1776442870990181600,29.251181640625,-23.455535888671875,8.253585815429688,-34.36207580566406
1776442871015198700,29.27619873046875,-23.795928955078125,8.5054931640625,-34.158172607421875
1776442871040214800,29.30121484375,-24.12725830078125,8.712936401367188,-34.03675842285156
1776442871065232000,29.32623193359375,-23.499542236328125,8.962997436523438,-33.98158264160156
1776442871090248700,29.351248779296874,-23.468292236328125,9.07159423828125,-33.827178955078125
1776442871115264800,29.3762646484375,-24.25225830078125,8.7825927734375,-33.89869689941406
1776442871140281600,29.401281494140626,-25.07391357421875,7.722412109375,-33.99589538574219
1776442871165297700,29.426297607421876,-24.846954345703125,6.997711181640625,-33.83570861816406
1776442871190314800,29.451314697265627,-24.590240478515625,5.679443359375,-34.197509765625
1776442871215331800,29.476331787109373,-24.83807373046875,4.9529266357421875,-34.296051025390625
1776442871240348000,29.501347900390623,-24.485870361328125,3.8090667724609375,-34.54777526855469
1776442871265365000,29.526364990234374,-24.454315185546875,3.4898529052734375,-34.54901123046875
1776442871290381600,29.551381591796876,-24.283416748046875,3.1674346923828125,-34.715972900390625
1776442871315397600,29.576397705078126,-24.382843017578125,3.053375244140625,-34.78511047363281
1776442871340414700,29.601414794921876,-23.786834716796875,3.2661285400390625,-35.22541809082031
1776442871365431800,29.626431884765626,-23.100555419921875,3.3156890869140625,-35.27793884277344
1776442871390447900,29.65144775390625,-23.58917236328125,3.3222503662109375,-35.40679931640625
1776442871415465000,29.67646484375,-23.26287841796875,3.493133544921875,-35.342864990234375
1776442871440480800,29.701480712890625,-23.692291259765625,3.4417877197265625,-35.4940185546875
1776442871465497900,29.726497802734375,-23.18341064453125,3.3249359130859375,-35.50921630859375
1776442871490518000,29.75151806640625,-22.59356689453125,2.4990081787109375,-35.76258850097656
1776442871515534000,29.7765341796875,-22.082427978515625,2.15478515625,-36.23448181152344
1776442871540551200,29.80155126953125,-21.155609130859375,1.1340484619140625,-36.741912841796875
1776442871565568300,29.826568359375,-19.9544677734375,1.0128631591796875,-37.179229736328125
1776442871590584000,29.851583984375,-19.220001220703125,0.9466705322265625,-37.72601318359375
1776442871615601200,29.87660107421875,-18.883209228515625,1.0928955078125,-37.940521240234375
1776442871640618000,29.901617919921875,-19.23382568359375,1.0470428466796875,-37.53370666503906
1776442871665634000,29.926634033203126,-19.5694580078125,1.233306884765625,-37.53700256347656
1776442871690651100,29.951651123046876,-20.102783203125,1.96142578125,-37.209320068359375
1776442871715667200,29.976667236328126,-20.1390380859375,1.905181884765625,-37.299713134765625
1776442871740684300,30.001684326171876,-19.7799072265625,1.9153594970703125,-37.36653137207031
1776442871765701000,30.026701171875,-20.175811767578125,2.1734161376953125,-37.18086242675781
1776442871790717200,30.05171728515625,-19.976165771484375,1.8094329833984375,-37.05010986328125
1776442871815734300,30.076734375,-19.7711181640625,1.596221923828125,-36.96038818359375
1776442871840751000,30.101751220703125,-19.132781982421875,1.6075897216796875,-37.90708923339844
1776442871865767200,30.12676708984375,-17.58929443359375,2.0099029541015625,-38.083648681640625
1776442871890784300,30.1517841796875,-15.893035888671875,2.9456787109375,-38.7275390625
1776442871915801000,30.176801025390624,-15.738616943359375,3.757476806640625,-39.01408386230469
1776442871940817200,30.201817138671874,-14.564117431640625,4.2063446044921875,-39.46528625488281
1776442871965834200,30.226834228515624,-14.70947265625,3.5997772216796875,-39.29408264160156
1776442871990850300,30.251850341796874,-14.947845458984375,2.618072509765625,-39.334442138671875
1776442872015867100,30.2768671875,-15.688018798828125,2.2289581298828125,-39.00872802734375
1776442872040884200,30.30188427734375,-16.351226806640625,1.4123687744140625,-38.62553405761719
1776442872065900000,30.326900146484373,-16.904327392578125,1.0213623046875,-38.6649169921875
1776442872090917000,30.351917236328124,-17.398651123046875,0.7182464599609375,-38.42857360839844
1776442872115934200,30.376934326171874,-18.63775634765625,0.2722625732421875,-38.098358154296875
1776442872140950300,30.4019501953125,-19.704833984375,-0.222747802734375,-37.85789489746094
1776442872165967000,30.426967041015626,-20.681427001953125,-1.04364013671875,-36.872467041015625
1776442872190984200,30.451984130859376,-21.585906982421875,-1.139862060546875,-36.69380187988281
1776442872216000000,30.477,-22.217864990234375,-1.358856201171875,-36.539886474609375
1776442872241017000,30.50201708984375,-22.22265625,-1.2641143798828125,-36.62434387207031
1776442872266033200,30.527033203125,-21.75579833984375,-1.6751251220703125,-36.768768310546875
1776442872291050200,30.55205029296875,-21.69384765625,-1.8626251220703125,-37.16569519042969
1776442872316067300,30.5770673828125,-21.782501220703125,-2.158660888671875,-37.42572021484375
1776442872341083100,30.602083251953125,-21.101898193359375,-2.851776123046875,-37.066131591796875
1776442872366100000,30.627099853515624,-20.503173828125,-4.4502716064453125,-37.40202331542969
1776442872391117000,30.652116943359374,-20.4835205078125,-5.7760162353515625,-36.90521240234375
1776442872416133000,30.677133056640624,-19.79803466796875,-6.5321197509765625,-37.43699645996094
1776442872441150200,30.702150146484374,-19.980804443359375,-6.6500701904296875,-37.57521057128906
1776442872466167300,30.727167236328125,-19.3665771484375,-6.0052642822265625,-37.80714416503906
1776442872491183000,30.75218310546875,-19.19873046875,-5.7235260009765625,-37.84596252441406
1776442872516196600,30.777196533203124,-19.29840087890625,-5.803863525390625,-37.95881652832031
1776442872541212700,30.802212646484374,-19.7371826171875,-5.7141876220703125,-37.73460388183594
1776442872566229500,30.8272294921875,-19.851470947265625,-5.7989349365234375,-37.57814025878906
1776442872591246600,30.85224658203125,-19.629486083984375,-6.178009033203125,-37.710113525390625
1776442872616262400,30.877262451171877,-18.963226318359375,-6.957611083984375,-37.98585510253906
1776442872641279500,30.902279541015623,-18.064117431640625,-7.3349761962890625,-38.34538269042969
1776442872666296600,30.927296630859374,-17.05364990234375,-7.7447509765625,-38.57252502441406
1776442872691312600,30.952312744140624,-16.299591064453125,-7.77923583984375,-38.72566223144531
1776442872716329500,30.97732958984375,-15.63616943359375,-8.538070678710938,-38.78730773925781
1776442872741345500,31.002345458984376,-15.348785400390625,-8.758193969726562,-39.024383544921875
1776442872766362400,31.0273623046875,-14.648651123046875,-8.7347412109375,-38.91473388671875
1776442872791379500,31.05237939453125,-14.638336181640625,-9.125076293945312,-38.8114013671875
1776442872816395500,31.0773955078125,-14.680908203125,-9.250946044921875,-38.72981262207031
1776442872841412600,31.10241259765625,-14.762237548828125,-9.409683227539062,-38.7025146484375
1776442872866429400,31.127429443359375,-14.768829345703125,-9.449234008789062,-38.464752197265625
1776442872891445800,31.15244580078125,-15.26702880859375,-9.912582397460938,-38.54838562011719
1776442872916462300,31.17746240234375,-17.16015625,-9.97552490234375,-37.39820861816406
1776442872941479400,31.2024794921875,-18.896453857421875,-10.506561279296875,-36.719085693359375
1776442872966495500,31.22749560546875,-16.7645263671875,-12.235763549804688,-37.005126953125
1776442872991512600,31.2525126953125,-16.66546630859375,-12.639755249023438,-37.157318115234375
1776442873016528600,31.277528564453124,-16.07763671875,-12.58734130859375,-37.13969421386719
1776442873041545700,31.302545654296875,-16.19281005859375,-12.43023681640625,-37.36488342285156
1776442873066562300,31.327562255859377,-16.99212646484375,-11.551422119140625,-36.92213439941406
1776442873091578400,31.352578369140623,-17.803131103515625,-10.921722412109375,-36.91998291015625
1776442873116595500,31.377595458984374,-18.417938232421875,-9.879669189453125,-36.74383544921875
1776442873141612500,31.402612548828124,-18.32586669921875,-9.3072509765625,-37.18476867675781
1776442873166628600,31.427628662109374,-19.298431396484375,-8.996353149414062,-37.36260986328125
1776442873191645700,31.452645751953124,-19.31451416015625,-8.649368286132812,-37.04325866699219
1776442873216662500,31.47766259765625,-20.225830078125,-8.37969970703125,-36.873260498046875
1776442873241678600,31.5026787109375,-20.795166015625,-8.719558715820312,-36.73341369628906
1776442873266695400,31.5276953125,-21.753173828125,-8.591888427734375,-36.490631103515625
1776442873291711500,31.55271142578125,-22.389617919921875,-8.356674194335938,-36.25559997558594
1776442873316728600,31.577728515625,-22.902313232421875,-7.437835693359375,-35.92628479003906
1776442873341745700,31.60274560546875,-23.2220458984375,-7.2365264892578125,-35.72552490234375
1776442873366761500,31.627761474609375,-23.307037353515625,-7.490936279296875,-35.39750671386719
1776442873391778600,31.652778564453126,-23.352874755859375,-8.117416381835938,-35.642303466796875
1776442873416795400,31.67779541015625,-23.48016357421875,-8.734619140625,-35.250946044921875
1776442873441811500,31.7028115234375,-23.04351806640625,-9.285430908203125,-35.1895751953125
1776442873466828500,31.72782861328125,-22.554229736328125,-9.842498779296875,-35.406158447265625
1776442873491845600,31.752845703125,-21.880126953125,-10.234939575195312,-35.57548522949219
1776442873516861200,31.777861083984376,-21.672515869140625,-10.308242797851562,-35.6689453125
1776442873541878300,31.802878173828127,-21.189849853515625,-10.03094482421875,-36.1021728515625
1776442873566894300,31.827894287109373,-20.33660888671875,-9.409454345703125,-36.44490051269531
1776442873591911400,31.852911376953124,-19.811279296875,-8.998321533203125,-36.80511474609375
1776442873616928300,31.87792822265625,-18.64337158203125,-9.25543212890625,-37.38426208496094
1776442873641944000,31.902944091796876,-18.00396728515625,-8.967422485351562,-37.43438720703125
1776442873666961200,31.927961181640626,-17.565521240234375,-8.746383666992188,-38.1005859375
1776442873691978200,31.952978271484376,-17.44769287109375,-8.083114624023438,-38.27220153808594
