time,seconds_elapsed,z,y,x
1776442841817086700,0.078086669921875,0.9799689650535583,-0.49389520287513733,-0.2839882969856262
1776442841842103800,0.103103759765625,1.0936585664749146,-0.37697604298591614,-0.28529778122901917
1776442841867119900,0.128119873046875,1.2247675657272339,0.495190292596817,-0.046190131455659866
1776442841892136700,0.15313671875,1.7462406158447266,0.5453775525093079,0.09946507215499878
1776442841917152800,0.17815283203125,2.372091770172119,0.4124608039855957,0.15247689187526703
1776442841942169600,0.203169677734375,2.66103196144104,0.9968395829200745,0.22813676297664642
1776442841967185700,0.228185546875,2.719808340072632,0.8312628269195557,0.25956764817237854
1776442841992202800,0.25320263671875,2.520801305770874,0.7042902708053589,0.2619386613368988
1776442842017218600,0.278218505859375,2.2579548358917236,0.8386802673339844,0.1833629012107849
1776442842042235600,0.303235595703125,2.0571329593658447,0.8933826684951782,0.024645159021019936
1776442842067251700,0.328251708984375,1.8716219663619995,0.7925223708152771,0.12664343416690826
1776442842092268800,0.353268798828125,1.7081434726715088,0.9069741368293762,0.07998590916395187
1776442842117284900,0.378284912109375,1.6080989837646484,0.8622047901153564,-0.048403218388557434
1776442842142301700,0.4033017578125,1.4242843389511108,0.7334449291229248,-0.389201819896698
1776442842167317500,0.4283173828125,1.1853410005569458,0.5733607411384583,-0.5076666474342346
1776442842192334600,0.45333447265625,0.8595914244651794,0.529155433177948,-0.6099557876586914
1776442842217350700,0.4783505859375,0.9767593145370483,0.2713313698768616,-0.7662881016731262
1776442842242367700,0.50336767578125,1.0072765350341797,-0.13915789127349854,-0.7090959548950195
1776442842267383800,0.5283837890625,0.6172586679458618,-0.23083427548408508,-0.472250372171402
1776442842292400600,0.553400634765625,-0.08503100275993347,-0.3886316418647766,-0.19639508426189423
1776442842317416700,0.578416748046875,-0.018856778740882874,-1.5489442348480225,0.09241835027933121
1776442842342433800,0.603433837890625,1.0323634147644043,-0.7617847323417664,0.14511911571025848
1776442842367449900,0.628449951171875,1.3291264772415161,-0.11874742060899734,0.1719677597284317
1776442842392465700,0.653465576171875,0.9169836044311523,0.5366016626358032,0.42543306946754456
1776442842417482500,0.678482421875,0.6373759508132935,0.5791698694229126,0.6931332349777222
1776442842442498600,0.70349853515625,0.9663487672805786,0.8505332469940186,0.4922808110713959
1776442842467515400,0.728515380859375,1.3393851518630981,0.696740984916687,0.4559318423271179
1776442842492531200,0.75353125,1.2748749256134033,0.44791707396507263,0.5272611379623413
1776442842517548300,0.77854833984375,0.8585479855537415,0.09385112673044205,0.2822761535644531
1776442842542564400,0.803564453125,0.5595735311508179,-0.08834477514028549,0.16324670612812042
1776442842567581400,0.82858154296875,0.6185460686683655,-0.13522440195083618,-0.08785662055015564
1776442842592597500,0.853597412109375,0.8832709193229675,-0.16523022949695587,-0.28937429189682007
1776442842617614600,0.878614501953125,1.1458103656768799,-0.1237403154373169,-0.31308814883232117
1776442842642630400,0.90363037109375,0.8497281670570374,0.05511944368481636,-0.3556041717529297
1776442842667647500,0.9286474609375,0.7322518229484558,0.009680057875812054,-0.25351375341415405
1776442842692663600,0.95366357421875,1.2162976264953613,-0.10074525326490402,-0.07850279659032822
1776442842717680400,0.978680419921875,1.4452836513519287,0.028487034142017365,-0.0984988734126091
1776442842742696400,1.003696533203125,1.1404169797897339,0.3183683753013611,-0.2983797788619995
1776442842767713300,1.02871337890625,1.0256565809249878,0.08474471420049667,-0.44623979926109314
1776442842792729300,1.053729248046875,1.274086594581604,-0.18638291954994202,-0.4851115643978119
1776442842817746400,1.078746337890625,1.4526220560073853,0.09994657337665558,-0.3063998818397522
1776442842842762500,1.103762451171875,1.5320696830749512,0.14248444139957428,-0.22324933111667633
1776442842867779600,1.128779541015625,1.6593437194824219,0.10151437669992447,-0.2639315128326416
1776442842892795400,1.15379541015625,1.5722296237945557,0.11460034549236298,-0.41760364174842834
1776442842917812200,1.178812255859375,1.4707762002944946,0.10517728328704834,-0.5316375494003296
1776442842942828500,1.20382861328125,1.5217597484588623,0.047021303325891495,-0.5658005475997925
1776442842967845400,1.228845458984375,1.6068872213363647,-0.21676214039325714,-0.6029311418533325
1776442842992861400,1.253861328125,1.6948093175888062,-0.37004703283309937,-0.5135496258735657
1776442843017878300,1.278878173828125,1.6990314722061157,-0.3283262252807617,-0.22295717895030975
1776442843042894300,1.303894287109375,1.6545391082763672,-0.03523867949843407,-0.07244943082332611
1776442843067911400,1.328911376953125,1.9230457544326782,0.07427050173282623,-0.0011318434262648225
1776442843092927500,1.353927490234375,1.9829564094543457,0.3941017687320709,0.25363627076148987
1776442843117944600,1.378944580078125,1.742018699645996,0.9348222613334656,0.3470088243484497
1776442843142960400,1.40396044921875,1.7314802408218384,0.8793976306915283,0.17453718185424805
1776442843167977200,1.428977294921875,1.7665094137191772,0.689190149307251,0.0175052247941494
1776442843192993300,1.4539931640625,1.7410165071487427,0.5352988243103027,-0.12172830104827881
1776442843218010400,1.47901025390625,1.66947340965271,0.2894214391708374,-0.4321868419647217
1776442843243026400,1.5040263671875,1.5005098581314087,0.1667431741952896,-0.7062053084373474
1776442843268043500,1.52904345703125,1.1668400764465332,0.0665968731045723,-0.6696904897689819
1776442843293059300,1.554059326171875,1.1944698095321655,-0.07559063285589218,-0.2016497552394867
1776442843318076400,1.579076416015625,1.3180594444274902,-0.04825328290462494,-0.00140987744089216
1776442843343092500,1.604092529296875,1.1388323307037354,-0.20029154419898987,-0.20178212225437164
1776442843368109600,1.629109619140625,0.38009247183799744,-0.6819641590118408,-0.5848738551139832
1776442843393125400,1.65412548828125,0.3378105163574219,-0.7689829468727112,-0.37320101261138916
1776442843418142200,1.67914208984375,0.2784324288368225,-0.4021354615688324,-0.1374713033437729
1776442843443158300,1.704158203125,0.4041261672973633,-0.626954197883606,-0.026125876232981682
1776442843468176000,1.72917578125,0.7102203369140625,-0.6325247287750244,0.24922527372837067
1776442843493191700,1.754191650390625,0.5787498950958252,0.10598262399435043,0.2654638886451721
1776442843518208800,1.779208740234375,0.488390177488327,0.08221018314361572,-0.11844035983085632
1776442843543224800,1.804224853515625,0.7562599778175354,-0.4148762822151184,-0.5437530279159546
1776442843568241000,1.829240966796875,0.5714920163154602,-0.42679205536842346,-0.30480143427848816
1776442843593258000,1.854258056640625,0.5866938233375549,0.07160227745771408,0.13310585916042328
1776442843618274800,1.87927490234375,0.36085620522499084,0.2941693067550659,0.2920078933238983
1776442843643291000,1.904290771484375,0.22597800195217133,-0.3665875792503357,0.1243981197476387
1776442843668307700,1.9293076171875,0.38699352741241455,-0.7453338503837585,-0.07754432410001755
1776442843693323800,1.95432373046875,0.4377616345882416,-0.09220343083143234,-0.0034384073223918676
1776442843718340900,1.9793408203125,0.49393194913864136,0.30671146512031555,0.2728930413722992
1776442843743356700,2.004356689453125,0.43922024965286255,0.3775073289871216,0.40408143401145935
1776442843768373800,2.029373779296875,0.3078877925872803,0.10601139068603516,0.3464791178703308
1776442843793389800,2.054389892578125,0.37139537930488586,-0.04268141835927963,0.1899624764919281
1776442843818407000,2.079406982421875,0.7382117509841919,0.6751792430877686,-0.12856942415237427
1776442843843423000,2.104423095703125,1.0149085521697998,0.6547088623046875,-0.41496869921684265
1776442843868439800,2.129439697265625,1.040310025215149,0.48891136050224304,-0.3773142695426941
1776442843893455600,2.15445556640625,0.8381274342536926,-0.17510630190372467,-0.07735657691955566
1776442843918472700,2.17947265625,0.8018857836723328,-0.524285078048706,0.11679346114397049
1776442843943488800,2.20448876953125,1.0160726308822632,-0.3818315267562866,0.1239834651350975
1776442843968505900,2.229505859375,1.3125306367874146,-0.4983370900154114,-0.04386519268155098
1776442843993522000,2.25452197265625,1.2538431882858276,-1.0773980617523193,-0.19961510598659515
1776442844018538800,2.279538818359375,0.8504719734191895,-0.9905129671096802,0.03506850451231003
1776442844043554800,2.304554931640625,0.5332165360450745,-0.14233849942684174,0.514800488948822
1776442844068572000,2.329572021484375,0.6949058175086975,0.9350252151489258,0.5491201281547546
1776442844093588000,2.354587890625,0.9243227243423462,0.9321471452713013,0.0751967504620552
1776442844118604800,2.379604736328125,1.1060004234313965,1.1984443664550781,-0.3485638499259949
1776442844143620600,2.40462060546875,1.1921560764312744,0.9639077186584473,-0.3846438229084015
1776442844168637700,2.4296376953125,1.0843760967254639,0.24790887534618378,-0.2774454653263092
1776442844193653800,2.45465380859375,1.2764555215835571,0.2881931662559509,-0.48765701055526733
1776442844218670800,2.4796708984375,1.6412489414215088,0.6618897914886475,-0.6657655239105225
1776442844243687000,2.50468701171875,2.0647940635681152,0.2008710503578186,-0.6086809039115906
1776442844268704000,2.5297041015625,2.093611478805542,-0.21438659727573395,-0.37685248255729675
1776442844293719800,2.5547197265625,2.129730701446533,-0.00040533312130719423,-0.061818093061447144
1776442844318737000,2.57973681640625,2.066077709197998,0.3285272717475891,0.05957730859518051
1776442844343753000,2.6047529296875,1.9439607858657837,0.02022111602127552,-0.30553939938545227
1776442844368769800,2.629769775390625,2.010498285293579,-0.9251808524131775,-0.29029229283332825
1776442844393785600,2.65478564453125,1.8288675546646118,-1.0654714107513428,-0.05553915724158287
1776442844418802700,2.679802734375,1.6023513078689575,-0.27575328946113586,0.060433514416217804
1776442844443818800,2.70481884765625,1.5882234573364258,0.24271251261234283,0.2574557662010193
1776442844468835000,2.7298349609375,1.0143601894378662,0.04280232638120651,0.38609203696250916
1776442844493851000,2.754850830078125,0.9373637437820435,0.17417339980602264,0.2891646921634674
1776442844518868000,2.779867919921875,1.3449482917785645,0.5666674375534058,0.07262866199016571
1776442844543884000,2.804884033203125,1.8564558029174805,0.5434007048606873,0.03205274045467377
1776442844568901000,2.829901123046875,1.6803054809570312,0.20881472527980804,-0.01840111054480076
1776442844593917200,2.854917236328125,1.6506950855255127,0.008609999902546406,0.10021022707223892
1776442844618934000,2.87993408203125,1.8642412424087524,-0.10842820256948471,0.024938106536865234
1776442844643950000,2.9049501953125,1.7441356182098389,-0.3091259002685547,-0.11189883947372437
1776442844668967000,2.929966796875,1.6144524812698364,-0.5470156669616699,-0.1934240609407425
1776442844693983000,2.95498291015625,1.6240603923797607,-0.6451444029808044,-0.027723506093025208
1776442844719000000,2.98,1.2640630006790161,-0.7182521224021912,0.27271994948387146
1776442844744016000,3.005015869140625,1.0281341075897217,-0.4427342712879181,0.3500054180622101
1776442844769033000,3.030032958984375,1.2880284786224365,-0.33506107330322266,0.20089368522167206
1776442844794049000,3.055049072265625,1.6939477920532227,-0.13106320798397064,-0.1918639838695526
1776442844819066000,3.080066162109375,1.2488057613372803,-0.46498045325279236,0.02912379615008831
1776442844844082200,3.105082275390625,0.7468094825744629,-0.47027936577796936,-0.14437821507453918
1776442844869099300,3.130099365234375,1.023169755935669,-0.28861555457115173,-0.5996458530426025
1776442844894115800,3.15511572265625,0.7973211407661438,-0.4455287456512451,-0.6247386932373047
1776442844919132000,3.1801318359375,0.7607969641685486,-0.6330584287643433,-0.36070066690444946
1776442844944149000,3.20514892578125,0.8784034848213196,-0.02767583541572094,-0.1883523315191269
1776442844969165000,3.2301650390625,1.5954526662826538,0.5113554000854492,0.23628443479537964
1776442844994182100,3.25518212890625,1.974421501159668,-0.86103755235672,0.9316185116767883
1776442845019198000,3.280197998046875,1.5828518867492676,-1.7417739629745483,1.016000747680664
1776442845044215000,3.305215087890625,1.1115946769714355,-1.0363520383834839,0.40911588072776794
1776442845069231000,3.330231201171875,1.3227545022964478,-0.22929710149765015,0.00920361839234829
1776442845094248000,3.355248046875,1.366199016571045,0.6080697178840637,0.1531754434108734
1776442845119264000,3.380263916015625,1.6225407123565674,0.6199916005134583,0.15043477714061737
1776442845144281000,3.405281005859375,1.8067952394485474,0.3888489603996277,0.14152756333351135
1776442845169297000,3.430296875,1.7008233070373535,0.08336865901947021,0.0740894079208374
1776442845194314000,3.45531396484375,1.3259124755859375,-0.15607349574565887,0.05118995159864426
1776442845219330000,3.480330078125,1.455492615699768,0.30427733063697815,0.09595023095607758
1776442845244347100,3.50534716796875,1.7817893028259277,0.6277899146080017,0.12947037816047668
1776442845269363000,3.530363037109375,1.809422492980957,0.576899528503418,-0.1598847359418869
1776442845294380000,3.555380126953125,2.013153314590454,-0.12696167826652527,0.11662381887435913
1776442845319396000,3.58039599609375,2.297332286834717,-1.2245619297027588,0.23528628051280975
1776442845344413000,3.605412841796875,2.4060912132263184,-1.303013563156128,0.10560605674982071
1776442845369430000,3.630429931640625,2.5849990844726562,-0.660419762134552,-0.15598347783088684
1776442845394446000,3.655446044921875,2.132568597793579,-0.4366915822029114,-0.17834922671318054
1776442845419463000,3.680462890625,1.7982827425003052,-0.19310101866722107,0.08868592977523804
1776442845444479000,3.70547900390625,1.7254277467727661,0.10525025427341461,0.44424909353256226
1776442845469496300,3.730496337890625,1.751071810722351,-0.2457921952009201,0.25247859954833984
1776442845494512000,3.75551220703125,1.988369107246399,-0.5472950339317322,0.3530949354171753
1776442845519529200,3.780529296875,2.1227917671203613,-0.2946324348449707,0.6113004088401794
1776442845544545300,3.805545166015625,1.9776029586791992,-0.22126367688179016,0.4026108384132385
1776442845569562000,3.83056201171875,1.910058856010437,-0.4697619080543518,0.24075135588645935
1776442845594578200,3.855578125,1.8931434154510498,-0.3026088774204254,0.6266069412231445
1776442845619595300,3.88059521484375,1.8367283344268799,-0.02503131702542305,0.6778919100761414
1776442845644611000,3.905611083984375,1.7054364681243896,-0.5333121418952942,0.023088540881872177
1776442845669628200,3.930628173828125,1.781503438949585,-0.7507211565971375,-0.06563999503850937
1776442845694644200,3.955644287109375,1.8307392597198486,-0.2515145242214203,0.15713396668434143
1776442845719661300,3.980661376953125,1.5459625720977783,0.3683290183544159,0.3762974739074707
1776442845744678100,4.00567822265625,1.3825920820236206,0.2705609202384949,0.24748623371124268
1776442845769694200,4.030694091796875,1.5209009647369385,0.0673806369304657,0.2058034986257553
1776442845794711000,4.0557109375,1.3965094089508057,-0.06851886957883835,0.5530027151107788
1776442845819727000,4.08072705078125,1.2989327907562256,-0.5624942183494568,0.5083292722702026
1776442845844744200,4.105744140625,1.3018503189086914,-0.45751455426216125,0.2429596483707428
1776442845869760300,4.13076025390625,1.5269618034362793,-0.847143292427063,-0.17769356071949005
1776442845894777300,4.15577734375,1.5661996603012085,-0.160716712474823,0.19996584951877594
1776442845919793200,4.180793212890625,1.0198642015457153,0.37812092900276184,0.44530609250068665
1776442845944810200,4.205810302734375,0.9075483083724976,0.16656874120235443,0.4045112729072571
1776442845969826300,4.230826416015625,0.8507814407348633,0.03309137374162674,0.2293013632297516
1776442845994843100,4.255843017578125,0.8162724375724792,0.31937000155448914,0.09376776963472366
1776442846019859200,4.280859130859375,1.0007435083389282,0.4333522319793701,0.288225919008255
1776442846044876000,4.3058759765625,1.6632360219955444,0.22770985960960388,0.740080714225769
1776442846069892000,4.33089208984375,2.0643177032470703,-0.4304019808769226,0.7490952610969543
1776442846094909200,4.3559091796875,1.8703745603561401,-0.5042067170143127,0.10932596027851105
1776442846119926300,4.38092626953125,1.4889461994171143,0.11558464914560318,-0.11780519783496857
1776442846144942300,4.4059423828125,1.4311870336532593,0.47801584005355835,-0.1905859261751175
1776442846169959400,4.43095947265625,1.6545934677124023,0.5090661644935608,-0.2675344944000244
1776442846194975200,4.455975341796875,1.8580718040466309,0.9935519099235535,-0.5216178894042969
1776442846219992000,4.480991943359375,2.219109535217285,0.47435665130615234,-0.3384542167186737
1776442846245008100,4.506008056640625,2.24499773979187,-0.15117166936397552,-0.09926160424947739
1776442846270025200,4.531025146484375,2.2096054553985596,-0.33349406719207764,-0.05812668427824974
1776442846295041000,4.556041015625,1.9893975257873535,-0.2513235807418823,0.1637047827243805
1776442846320058000,4.58105810546875,1.6942007541656494,-0.054246194660663605,0.23614275455474854
1776442846345074200,4.60607421875,1.9531564712524414,-0.025306155905127525,0.2944420278072357
1776442846370091300,4.63109130859375,2.4761781692504883,-0.2786625325679779,0.5056019425392151
1776442846395107300,4.656107421875,2.7023427486419678,-0.1111622080206871,0.6379876732826233
1776442846420124400,4.68112451171875,2.3884286880493164,0.40355411171913147,0.5694720149040222
1776442846445141200,4.706141357421875,1.8418166637420654,0.9037495851516724,0.35341957211494446
1776442846470157800,4.73115771484375,1.7565501928329468,0.7747977375984192,0.1860622763633728
1776442846495175000,4.7561748046875,1.9235647916793823,0.39132195711135864,0.11546800285577774
1776442846520190700,4.781190673828125,2.050971269607544,0.48816782236099243,0.18639224767684937
1776442846545207800,4.806207763671875,2.09494686126709,0.24744760990142822,0.1665482372045517
1776442846570223900,4.831223876953125,1.783888339996338,0.11881373822689056,0.0451887845993042
1776442846595240700,4.85624072265625,1.8536006212234497,0.3772426247596741,0.045124601572752
1776442846620256800,4.8812568359375,2.2984371185302734,0.40311843156814575,0.1377328336238861
1776442846645273600,4.906273681640625,2.4990344047546387,0.1803884208202362,0.07987672090530396
1776442846670289700,4.93128955078125,2.452671527862549,0.017468739300966263,-0.02785373479127884
1776442846695306800,4.956306640625,2.0902628898620605,-0.09055466949939728,-0.0012868394842371345
1776442846720322800,4.98132275390625,1.6101669073104858,0.17955511808395386,0.11177260428667068
1776442846745340000,5.00633984375,1.5446664094924927,-0.1830180287361145,0.3607792258262634
1776442846770357000,5.03135693359375,1.5862929821014404,-0.3575509488582611,0.6739637851715088
1776442846795372800,5.056372802734375,1.647156834602356,0.034571293741464615,0.8045393824577332
1776442846820389600,5.0813896484375,1.8662711381912231,-0.3779259920120239,0.6861163377761841
1776442846845405700,5.10640576171875,1.7945306301116943,-0.4112812876701355,0.7009586691856384
1776442846870422800,5.1314228515625,1.5170300006866455,-0.16745343804359436,0.7160430550575256
1776442846895438600,5.1564384765625,1.3613823652267456,0.17667463421821594,0.6175891757011414
1776442846920455700,5.18145556640625,1.3552550077438354,-0.14096218347549438,0.45284605026245117
1776442846945471700,5.2064716796875,1.576233983039856,0.18382789194583893,0.0628838911652565
1776442846970488800,5.23148876953125,1.8077387809753418,0.3211572468280792,-0.04258501157164574
1776442846995505000,5.2565048828125,1.765346884727478,-0.08516149967908859,0.21877042949199677
1776442847020522000,5.28152197265625,1.627941370010376,-0.4393201172351837,0.144969180226326
1776442847045537800,5.306537841796875,1.2568490505218506,-0.4136373698711395,-0.22753116488456726
1776442847070554600,5.3315546875,1.0573787689208984,-0.6027321815490723,-0.44259846210479736
1776442847095570700,5.35657080078125,1.2199972867965698,-0.5987648963928223,-0.44306957721710205
1776442847120587800,5.381587890625,1.1535378694534302,-0.04139351099729538,-0.15209445357322693
1776442847145604900,5.40660498046875,1.4404569864273071,-0.043473441153764725,-0.16765211522579193
1776442847170620700,5.43162060546875,2.0979552268981934,-0.2499893307685852,-0.3763944208621979
1776442847195637800,5.4566376953125,2.227372646331787,-0.01173548586666584,-0.4506334960460663
1776442847220653800,5.48165380859375,2.0501136779785156,0.1835772842168808,-0.43455439805984497
1776442847245671000,5.5066708984375,2.1101622581481934,-0.683365523815155,-0.021469073370099068
1776442847270687000,5.53168701171875,2.2350869178771973,-1.0388431549072266,0.6290908455848694
1776442847295703800,5.556703857421875,2.355523109436035,-0.47452735900878906,1.1450045108795166
1776442847320719600,5.5817197265625,2.450106382369995,-0.06978094577789307,0.9711318016052246
1776442847345736700,5.60673681640625,2.425614356994629,0.3283805549144745,0.2158910185098648
1776442847370752800,5.631752685546875,2.645009756088257,0.5656506419181824,0.33788883686065674
1776442847395769900,5.656769775390625,2.945399522781372,1.488677740097046,0.8723738193511963
1776442847420785700,5.68178564453125,3.06302809715271,2.070685386657715,0.8375375270843506
1776442847445802800,5.706802734375,3.052150011062622,1.5103495121002197,0.1744900494813919
1776442847470819600,5.731819580078125,3.417950391769409,0.6083357334136963,0.0028514466248452663
1776442847495836000,5.7568359375,3.1471517086029053,0.3903278112411499,0.014946192502975464
1776442847520852700,5.781852783203125,2.152759075164795,0.21769557893276215,-0.30915170907974243
1776442847545868800,5.806868896484375,1.625713586807251,-0.2577063739299774,-0.3101120591163635
1776442847570886000,5.831885986328125,1.8033357858657837,-0.403175950050354,-0.0538397952914238
1776442847595901700,5.856901611328125,1.7752338647842407,-0.16214123368263245,-0.1274261325597763
1776442847620918800,5.881918701171875,1.2777553796768188,0.36027055978775024,-0.3782402575016022
1776442847645934800,5.906934814453125,1.2869113683700562,0.4841429889202118,-0.21883301436901093
1776442847670952000,5.931951904296875,1.3187975883483887,0.3733150064945221,-0.21761754155158997
1776442847695968000,5.956968017578125,1.0580790042877197,-0.03989069163799286,-0.4166422188282013
1776442847720984800,5.98198486328125,0.5959994792938232,0.13734640181064606,-0.22623233497142792
1776442847746000600,6.007000732421875,0.505013644695282,0.3134511411190033,0.12138981372117996
1776442847771017700,6.032017822265625,1.0385318994522095,0.17752498388290405,0.06042100116610527
1776442847796034800,6.057034912109375,1.1502307653427124,-0.21185685694217682,0.1933601349592209
1776442847821051000,6.08205078125,0.7676106095314026,0.7281540632247925,0.23110166192054749
1776442847846068000,6.10706787109375,0.4567803144454956,0.9883288741111755,0.22883397340774536
1776442847871083800,6.132083740234375,0.39544612169265747,0.5586206912994385,0.07554855197668076
1776442847896100900,6.157100830078125,0.41624167561531067,0.2797858417034149,-0.24783191084861755
1776442847921117000,6.182116943359375,0.40699413418769836,-0.08606883883476257,-0.3734220564365387
1776442847946133800,6.2071337890625,0.4103214740753174,-0.21185871958732605,-0.3609803020954132
1776442847971149800,6.23214990234375,0.7275974154472351,-0.4062974452972412,-0.6995729804039001
1776442847996166700,6.257166748046875,0.7711774110794067,-0.9124623537063599,-0.9018169045448303
1776442848021182700,6.2821826171875,0.5799257159233093,-1.1166969537734985,-0.6247000694274902
1776442848046199800,6.30719970703125,0.5638918876647949,-0.7545108199119568,-0.19687098264694214
1776442848071215900,6.3322158203125,0.6992334723472595,-0.4518020749092102,0.47418567538261414
1776442848096233000,6.35723291015625,0.8973835706710815,-0.3089495897293091,0.6878595948219299
1776442848121249800,6.382249755859375,1.2921005487442017,-0.3958916664123535,0.5334966778755188
1776442848146265900,6.407265869140625,1.7051516771316528,-0.08664647489786148,0.4727933704853058
1776442848171282700,6.43228271484375,2.0007641315460205,0.053711432963609695,0.4174345135688782
1776442848196298800,6.457298828125,2.412686586380005,0.4315260946750641,0.6348848342895508
1776442848221315800,6.48231591796875,2.433332920074463,0.7258266806602478,0.4971106946468353
1776442848246332000,6.507331787109375,2.2052135467529297,0.6397578716278076,0.0983598604798317
1776442848271348700,6.5323486328125,2.47969126701355,0.5799469947814941,0.09396377950906754
1776442848296364800,6.55736474609375,2.833493709564209,0.7150587439537048,0.1560860127210617
1776442848321382000,6.5823818359375,3.0710337162017822,0.10828626155853271,0.09859741479158401
1776442848346398000,6.60739794921875,2.84429931640625,-0.1932205855846405,0.18399938941001892
1776442848371414800,6.632414794921875,2.208226203918457,-0.33894023299217224,0.142989382147789
1776442848396432000,6.657431884765625,2.0732996463775635,-0.632931649684906,0.059418052434921265
1776442848421447700,6.68244775390625,2.5350637435913086,-0.7337208390235901,0.2775573134422302
1776442848446464800,6.70746484375,2.799415111541748,-0.7389483451843262,0.37179434299468994
1776442848471480000,6.73247998046875,2.3218910694122314,-0.6657460331916809,0.17454464733600616
1776442848496497000,6.757496826171875,1.5072306394577026,-0.5679515600204468,-0.11247088760137558
1776442848521513000,6.782512939453125,1.2429497241973877,0.1045844629406929,-0.1474728137254715
1776442848546530000,6.807530029296875,1.7828131914138794,-0.04861760139465332,-0.21145392954349518
1776442848571546000,6.832546142578125,2.4040629863739014,-0.572479784488678,-0.2930915355682373
1776442848596563200,6.857563232421875,2.0398471355438232,-0.2700493335723877,-0.3068201243877411
1776442848621579000,6.8825791015625,1.1979618072509766,-0.5556243658065796,-0.37953081727027893
1776442848646595800,6.907595947265625,0.9261720776557922,-0.4908895492553711,-0.16956746578216553
1776442848671612000,6.93261181640625,1.0737793445587158,-0.21206405758857727,0.07162092626094818
1776442848696629000,6.95762890625,1.6760848760604858,0.43099746108055115,0.1957165002822876
1776442848721646000,6.98264599609375,2.1010873317718506,0.3209135830402374,0.08137261867523193
1776442848746662100,7.007662109375,2.0022363662719727,0.17711299657821655,-0.2867071330547333
1776442848771679000,7.032678955078125,1.8939472436904907,-0.20220662653446198,-0.3769797682762146
1776442848796695000,7.057695068359375,1.4344640970230103,-1.1679798364639282,-0.059655074030160904
1776442848821712100,7.082712158203125,1.657232642173767,-0.9454903602600098,0.2716522812843323
1776442848846728200,7.107728271484375,2.1737732887268066,-0.45305031538009644,0.3442114293575287
1776442848871745000,7.1327451171875,2.786292314529419,-0.11096087098121643,0.35202115774154663
1776442848896760800,7.1577607421875,2.933414936065674,0.021096229553222656,0.23584102094173431
1776442848921778000,7.18277783203125,2.573390483856201,-0.3605768382549286,0.19927848875522614
1776442848946794000,7.2077939453125,2.307434320449829,-0.5634790658950806,0.22978845238685608
1776442848971811000,7.23281103515625,2.0468451976776123,-0.44195690751075745,-0.06817479431629181
1776442848996828200,7.257828125,1.8440800905227661,-0.40559276938438416,-0.331445574760437
1776442849021844200,7.28284423828125,1.7397453784942627,-0.668801486492157,-0.21401295065879822
1776442849046861000,7.307861083984375,1.1855748891830444,0.16638818383216858,0.2495136857032776
1776442849071877000,7.332877197265625,1.516965627670288,1.8762856721878052,0.4315575361251831
1776442849096894000,7.35789404296875,1.7602258920669556,2.247408151626587,0.748524010181427
1776442849121910000,7.382909912109375,1.4784445762634277,1.4124796390533447,1.350725769996643
1776442849146927000,7.407927001953125,1.5112453699111938,0.3218206465244293,1.6605485677719116
1776442849171943000,7.43294287109375,1.7975109815597534,-0.3685482144355774,0.8493347764015198
1776442849196960000,7.4579599609375,1.1120880842208862,-0.5376458764076233,0.258823037147522
1776442849221976000,7.48297607421875,0.825472354888916,0.13233140110969543,0.584511399269104
1776442849246993200,7.5079931640625,1.2677682638168335,0.3680243492126465,0.9805833697319031
1776442849272010000,7.533010009765625,1.2790364027023315,-0.07319698482751846,0.8924697637557983
1776442849297025800,7.55802587890625,1.2026790380477905,-0.3663191497325897,0.5703766345977783
1776442849322043000,7.58304296875,1.331382155418396,-0.46927934885025024,0.38050180673599243
1776442849347059000,7.608058837890625,1.57280695438385,-0.35679301619529724,0.2687699496746063
1776442849372076000,7.633075927734375,1.6651023626327515,-0.09859181940555573,0.19050629436969757
1776442849397092000,7.658092041015625,1.783650279045105,-0.23800671100616455,0.04410620778799057
1776442849422109200,7.683109130859375,2.0771682262420654,-0.3892771899700165,-0.10682764649391174
1776442849447125000,7.708125,2.08940052986145,-0.43695521354675293,0.07424920052289963
1776442849472142300,7.733142333984375,1.9574148654937744,-0.4036119282245636,0.015341672115027905
1776442849497158400,7.758158447265625,2.0577211380004883,-0.4557552635669708,-0.28715693950653076
1776442849522175500,7.783175537109375,2.1720542907714844,-0.31482264399528503,-0.3539239764213562
1776442849547192600,7.808192626953125,1.6892379522323608,-0.00469568558037281,0.060390371829271317
1776442849572208600,7.833208740234375,1.4673748016357422,0.10028772056102753,0.0400555394589901
1776442849597225500,7.8582255859375,1.6631128787994385,-0.06073551997542381,0.09590921550989151
1776442849622241500,7.883241455078125,1.3031654357910156,-0.09590309113264084,0.6715278029441833
1776442849647258600,7.908258544921875,0.8780806660652161,-0.25323599576950073,0.6289188265800476
1776442849672274700,7.933274658203125,1.0013179779052734,-0.5586254596710205,0.3521125018596649
1776442849697291500,7.95829150390625,1.0198434591293335,-0.2680559456348419,0.6049197316169739
1776442849722307300,7.983307373046875,0.6204004287719727,0.4110450744628906,1.1608023643493652
1776442849747324400,8.008324462890625,0.2858181595802307,0.09067157655954361,1.1329635381698608
1776442849772340500,8.033340576171875,0.3944793939590454,0.05379532277584076,0.32670462131500244
1776442849797357600,8.058357666015626,0.31988054513931274,0.6690624952316284,-0.26088857650756836
1776442849822374700,8.083374755859374,0.20862510800361633,0.44628533720970154,0.033542778342962265
1776442849847390500,8.108390380859374,0.44753968715667725,0.0001400822657160461,-0.19792772829532623
1776442849872407600,8.133407470703125,0.5773575901985168,-0.23210567235946655,-0.23838673532009125
1776442849897423600,8.158423583984375,0.2978479266166687,-0.3482242822647095,0.016805078834295273
1776442849922440400,8.1834404296875,0.1035037562251091,-0.2727399170398712,0.08283602446317673
1776442849947456500,8.20845654296875,0.3217546045780182,-0.20494861900806427,0.03641659766435623
1776442849972473600,8.2334736328125,0.43550726771354675,-0.1892346441745758,0.14211559295654297
1776442849997489400,8.258489501953125,1.3283650875091553,-0.2946595847606659,0.45776277780532837
1776442850022506500,8.283506591796876,2.3843696117401123,0.09340265393257141,0.5674964785575867
1776442850047522600,8.3085224609375,2.223093032836914,0.7938811182975769,0.320572167634964
1776442850072539600,8.33353955078125,1.6858108043670654,0.5764124393463135,0.1538795828819275
1776442850097556500,8.358556396484374,0.9268143773078918,-0.04825461283326149,-0.0209452286362648
1776442850122572500,8.383572509765624,0.2690248191356659,-0.2881103456020355,-0.32700130343437195
1776442850147589400,8.40858935546875,0.3264007568359375,-0.6803889274597168,-0.42159971594810486
1776442850172605400,8.43360546875,0.8629084229469299,-0.3757363259792328,-0.3043351173400879
1776442850197622500,8.45862255859375,1.4936389923095703,0.061351507902145386,-0.0057473680935800076
1776442850222638600,8.483638671875,1.9096300601959229,0.21682925522327423,0.13698528707027435
1776442850247655700,8.50865576171875,1.7289230823516846,0.32651206851005554,0.019220832735300064
1776442850272671500,8.53367138671875,1.3956290483474731,0.2737806737422943,-0.18950122594833374
1776442850297688600,8.5586884765625,1.427322506904602,0.1529432088136673,-0.3846515417098999
1776442850322705400,8.583705322265626,1.6426929235458374,0.07639303803443909,-0.5316327214241028
1776442850347721500,8.608721435546874,1.955717921257019,0.3264646530151367,-0.3339007496833801
1776442850372738600,8.633738525390624,2.486713409423828,0.6095643043518066,0.10472827404737473
1776442850397754400,8.65875439453125,2.9616458415985107,0.699798583984375,0.3022908866405487
1776442850422771500,8.683771484375,2.9806747436523438,1.0353997945785522,0.32429951429367065
1776442850447787500,8.70878759765625,2.888401985168457,1.0144212245941162,0.27512478828430176
1776442850472804400,8.733804443359375,2.7379844188690186,0.8486295938491821,0.2830926775932312
1776442850497820400,8.7588203125,2.335320234298706,0.6869285702705383,0.20224231481552124
1776442850522837200,8.783837158203125,1.9024139642715454,0.3196834623813629,-0.18828947842121124
1776442850547853300,8.808853271484375,1.5050956010818481,-0.19940951466560364,-0.4853757619857788
1776442850572870100,8.8338701171875,1.1768311262130737,0.051188353449106216,-0.21343664824962616
1776442850597887200,8.85888720703125,1.1976776123046875,0.006160690449178219,0.12399385124444962
1776442850622903300,8.8839033203125,1.369494915008545,0.13256976008415222,0.2888728082180023
1776442850647920400,8.90892041015625,1.309573769569397,0.48788338899612427,0.2761729955673218
1776442850672936200,8.933936279296875,1.35350501537323,0.5794034600257874,0.373065710067749
1776442850697953300,8.958953369140625,1.5637059211730957,0.42229798436164856,0.4710055887699127
1776442850722969300,8.98396923828125,1.583618402481079,0.34787115454673767,0.5758273601531982
1776442850747986400,9.008986328125,1.3515007495880127,0.35011085867881775,0.2954084873199463
1776442850773002500,9.03400244140625,1.252990961074829,0.38286110758781433,0.2620779573917389
1776442850798019000,9.05901904296875,1.1323262453079224,0.1044534370303154,0.2283434271812439
1776442850823036200,9.0840361328125,0.6927358508110046,0.10734643042087555,0.3980349898338318
1776442850848052200,9.10905224609375,0.6929060220718384,0.18308806419372559,0.4053165912628174
1776442850873069300,9.1340693359375,1.3322242498397827,0.4289367198944092,-0.30252978205680847
1776442850898085400,9.15908544921875,1.2598061561584473,0.01552063599228859,-0.10744576901197433
1776442850923102500,9.1841025390625,1.2405691146850586,-0.439004510641098,0.5035504698753357
1776442850948118300,9.2091181640625,1.32908034324646,-0.13664865493774414,0.8095178604125977
1776442850973135400,9.23413525390625,1.4742404222488403,-0.16664063930511475,0.6502552628517151
1776442850998151400,9.2591513671875,1.7877275943756104,-0.32770222425460815,0.36333081126213074
1776442851023168300,9.284168212890625,1.8117945194244385,-0.2661595046520233,0.3370424807071686
1776442851048185300,9.309185302734376,1.671519160270691,-0.6960048675537109,0.21814991533756256
1776442851073201200,9.334201171875,1.4350073337554932,-0.566201388835907,-0.2611818015575409
1776442851098218200,9.35921826171875,1.0563277006149292,-0.21234582364559174,-0.4888128340244293
1776442851123234300,9.384234375,0.8793182373046875,0.11632101982831955,-0.38033241033554077
1776442851148251400,9.40925146484375,1.045211911201477,0.018037056550383568,-0.16431304812431335
1776442851173267500,9.434267333984375,1.3878499269485474,-0.1923193782567978,-0.20696090161800385
1776442851198284300,9.4592841796875,1.5514642000198364,0.06383837014436722,-0.3472999036312103
1776442851223300000,9.484300048828125,1.5264602899551392,0.041859567165374756,-0.1543208658695221
1776442851248317200,9.509317138671875,1.5282001495361328,0.0871647298336029,0.12114053964614868
1776442851273333200,9.534333251953125,1.5168638229370117,-0.017581123858690262,0.31252700090408325
1776442851298350300,9.559350341796875,1.3749911785125732,0.2734512388706207,0.40153253078460693
1776442851323367400,9.584367431640626,1.242604374885559,0.5734057426452637,0.5203052163124084
1776442851348383200,9.60938330078125,1.2856687307357788,0.28466102480888367,0.507260262966156
1776442851373400300,9.634400390625,1.0663033723831177,0.030046049505472183,0.4885590374469757
1776442851398416400,9.65941650390625,0.5313277840614319,0.058463308960199356,0.2613903284072876
1776442851423433200,9.68443310546875,0.3680453896522522,-0.3159047067165375,0.060695305466651917
1776442851448449300,9.70944921875,0.31022071838378906,-0.606178879737854,0.03554600849747658
1776442851473467000,9.734466796875,-0.08677724003791809,-0.5743200182914734,0.17066361010074615
1776442851498484000,9.75948388671875,-0.3174469470977783,-0.3012823462486267,0.029746709391474724
1776442851523499800,9.784499755859375,0.20143936574459076,0.03904673457145691,-0.21464279294013977
1776442851548516900,9.809516845703126,0.6941958069801331,0.847366988658905,-0.7974684238433838
1776442851573533000,9.834532958984376,0.9293124675750732,0.9488072991371155,-0.7192447185516357
1776442851598549800,9.8595498046875,0.8782809376716614,0.23580293357372284,-0.3991577625274658
1776442851623565800,9.88456591796875,0.577716588973999,0.20305031538009644,-0.045287586748600006
1776442851648583000,9.9095830078125,-0.14245061576366425,0.19748911261558533,0.05631973221898079
1776442851673598700,9.9345986328125,-0.17402026057243347,0.22935809195041656,-0.1332339495420456
1776442851698615800,9.95961572265625,-0.03532550111413002,-0.04072319343686104,-0.25200507044792175
1776442851723633000,9.9846328125,0.15239033102989197,0.0709812343120575,-0.3093445301055908
1776442851748649000,10.00964892578125,0.18100573122501373,0.12301726639270782,-0.4054870307445526
1776442851773665800,10.034665771484375,0.1878143697977066,0.30068260431289673,-0.4434376358985901
1776442851798681900,10.059681884765626,0.14968615770339966,0.43113407492637634,0.028929386287927628
1776442851823698700,10.08469873046875,0.21739144623279572,-0.2396421581506729,0.4922959804534912
1776442851848714800,10.10971484375,0.25525492429733276,0.07161346822977066,0.5035289525985718
1776442851873731800,10.13473193359375,0.1875952035188675,0.022854182869195938,0.38548243045806885
1776442851898748000,10.159747802734374,0.45869433879852295,-0.3157028257846832,0.23985067009925842
1776442851923764700,10.1847646484375,0.4767915904521942,0.06704321503639221,0.31895962357521057
1776442851948781800,10.20978173828125,0.43161797523498535,0.1724759042263031,0.1052129715681076
1776442851973798000,10.2347978515625,0.8492003083229065,0.25929680466651917,-0.42348387837409973
1776442851998814700,10.259814697265625,1.4240756034851074,0.240177720785141,-0.3891373574733734
1776442852023830800,10.284830810546875,1.3125038146972656,0.17326365411281586,0.019480224698781967
1776442852048848000,10.309847900390626,1.2772743701934814,-0.1455252468585968,0.35823777318000793
1776442852073863700,10.33486376953125,1.8228468894958496,-0.2603628635406494,0.4693467319011688
1776442852098880800,10.359880859375,2.0397939682006836,0.06359415501356125,0.40447476506233215
1776442852123896800,10.384896728515624,2.0391314029693604,0.16441930830478668,0.41423553228378296
1776442852148914000,10.409913818359374,1.8005685806274414,0.09548444300889969,0.20803070068359375
1776442852173931000,10.434930908203125,1.4595304727554321,0.0032653016969561577,0.04157567396759987
1776442852198946800,10.45994677734375,0.9638376832008362,-0.10278603434562683,-0.03557557240128517
1776442852223963600,10.484963623046875,0.6092955470085144,-0.5286132097244263,-0.30305761098861694
1776442852248979700,10.509979736328125,0.41829603910446167,-1.1695364713668823,-0.4819754362106323
1776442852273996800,10.534996826171875,0.4872221350669861,-0.8316823244094849,-0.24026639759540558
1776442852299012900,10.560012939453125,0.6528614163398743,-0.5499938726425171,0.09416112303733826
1776442852324030000,10.585030029296876,0.7995600700378418,0.29908549785614014,-0.1989961862564087
1776442852349046800,10.610046875,0.7368689775466919,0.5536134243011475,0.14591751992702484
1776442852374062800,10.635062744140624,0.6598703265190125,0.6559096574783325,0.27767103910446167
1776442852399079700,10.66007958984375,0.510988175868988,0.48614701628685,0.2443905621767044
1776442852424095700,10.685095703125,0.4012893736362457,-0.40690410137176514,0.21512456238269806
1776442852449112800,10.71011279296875,0.2820628583431244,-0.3628503680229187,-0.12370516359806061
1776442852474128400,10.73512841796875,0.292816162109375,-0.384118914604187,-0.43133196234703064
1776442852499145500,10.7601455078125,0.16270342469215393,-0.45928075909614563,-0.3938245177268982
1776442852524161500,10.78516162109375,-0.00018722022650763392,-0.7053704261779785,-0.15658454596996307
1776442852549178600,10.8101787109375,-0.0389159731566906,-0.7421910166740417,-0.3936769962310791
1776442852574195700,10.83519580078125,-0.039569247514009476,-0.43438366055488586,-0.5108102560043335
1776442852599211500,10.86021142578125,0.2508668303489685,0.31871646642684937,-0.30668243765830994
1776442852624228400,10.885228271484374,0.5248605608940125,0.2627008557319641,-0.06855722516775131
1776442852649244700,10.91024462890625,0.7133482098579407,-0.21939653158187866,-0.03352200612425804
1776442852674261500,10.935261474609375,0.6444660425186157,-0.0857551172375679,-0.3960341513156891
1776442852699277600,10.960277587890625,0.6131691336631775,0.5938742756843567,-0.47736895084381104
1776442852724294700,10.985294677734375,0.9356598258018494,0.7120967507362366,0.00875061471015215
1776442852749311700,11.010311767578125,1.2309907674789429,0.7329051494598389,0.0963401198387146
1776442852774327600,11.03532763671875,0.993363082408905,0.7641722559928894,-0.16052763164043427
1776442852799344600,11.0603447265625,0.834816038608551,0.6820824146270752,-0.2015589475631714
1776442852824360700,11.085360595703126,1.0064905881881714,0.35584360361099243,-0.06833484768867493
1776442852849377500,11.11037744140625,0.9536787867546082,0.09330172091722488,0.17352358996868134
1776442852874393300,11.135393310546876,0.7721838355064392,-0.3443387448787689,0.16799193620681763
1776442852899410400,11.160410400390624,0.7463924288749695,-0.4858010709285736,0.06021486967802048
1776442852924427500,11.185427490234375,0.9320672154426575,-0.2054293155670166,-0.08417080342769623
1776442852949443600,11.210443603515625,0.7433218359947205,-0.11271057277917862,0.3460138738155365
1776442852974460700,11.235460693359375,0.524370551109314,-0.0389961339533329,0.3713186979293823
1776442852999476700,11.260476806640625,0.3200416564941406,0.07126033306121826,0.06053232029080391
1776442853024493600,11.28549365234375,0.4043424129486084,0.31623226404190063,-0.0790596678853035
1776442853049509600,11.310509521484375,0.6788304448127747,0.2618257403373718,-0.1672864556312561
1776442853074526500,11.3355263671875,0.49492186307907104,-0.02407737262547016,-0.2079089879989624
1776442853099543600,11.36054345703125,0.21923115849494934,-0.10245820134878159,-0.2811536490917206
1776442853124559600,11.3855595703125,0.24517007172107697,-0.24991555511951447,-0.1573941558599472
1776442853149576700,11.41057666015625,0.32196977734565735,0.00945155881345272,-0.14724618196487427
1776442853174592500,11.435592529296875,0.28899505734443665,-0.06967069208621979,-0.1668049693107605
1776442853199609600,11.460609619140625,0.19856634736061096,-0.204928919672966,-0.16191087663173676
1776442853224625700,11.485625732421875,0.21122755110263824,-0.24117159843444824,-0.29213011264801025
1776442853249642500,11.510642578125,0.22318248450756073,-0.013598366640508175,-0.28917136788368225
1776442853274659600,11.53565966796875,0.21338337659835815,0.2434653788805008,-0.19976237416267395
1776442853299675400,11.56067529296875,0.19487734138965607,0.1281350702047348,-0.12035463750362396
1776442853324692500,11.5856923828125,0.25379684567451477,-0.014713432639837265,-0.1553022414445877
1776442853349708500,11.61070849609375,0.2803400456905365,-0.06674787402153015,-0.18885567784309387
1776442853374725600,11.6357255859375,0.14045670628547668,-0.07608171552419662,-0.3583637475967407
1776442853399741700,11.66074169921875,0.36595216393470764,0.6501702666282654,-0.09899795055389404
1776442853424758800,11.6857587890625,0.4498193562030792,0.2851816713809967,0.0809587612748146
1776442853449775400,11.710775390625,0.005983057431876659,-0.006551109720021486,0.2210620790719986
1776442853474792000,11.7357919921875,-0.29020199179649353,-0.2500303387641907,0.22471299767494202
1776442853499808800,11.760808837890625,-0.2870413661003113,-0.18899469077587128,0.07121346145868301
1776442853524824800,11.785824951171875,-0.15028004348278046,0.08696738630533218,-0.053169745951890945
1776442853549842000,11.810842041015626,0.12335123121738434,0.19332659244537354,-0.018755044788122177
1776442853574858000,11.83585791015625,0.1804419457912445,-0.049305230379104614,-0.0008519452530890703
1776442853599875000,11.860875,0.16600282490253448,-0.011943744495511055,-0.1874529868364334
1776442853624892000,11.885891845703124,0.2724240720272064,0.029279058799147606,-0.1840398758649826
1776442853649907700,11.91090771484375,0.23678484559059143,-0.1000850573182106,-0.21357007324695587
1776442853674924800,11.9359248046875,0.285079687833786,0.11745685338973999,-0.3096050024032593
1776442853699940900,11.96094091796875,0.544695258140564,-0.08861108869314194,-0.2135722041130066
1776442853724958000,11.9859580078125,0.6288085579872131,-0.2210029512643814,-0.038296256214380264
1776442853749974000,12.01097412109375,0.6855413317680359,-0.08863825350999832,0.12798751890659332
1776442853774990800,12.035990966796875,0.9881486296653748,-0.0856054499745369,0.43023180961608887
1776442853800008000,12.061008056640626,1.2815754413604736,-0.2798428237438202,0.6157119274139404
1776442853825024000,12.08602392578125,0.995762288570404,0.024349547922611237,0.5812708735466003
1776442853850040800,12.111040771484374,0.806723415851593,-0.011785552836954594,0.5936154127120972
1776442853875057000,12.136056884765624,0.7507754564285278,-0.008358331397175789,0.5579442381858826
1776442853900074000,12.161073974609375,0.6645820140838623,0.060079317539930344,0.2700815498828888
1776442853925090800,12.1860908203125,0.4381270110607147,-0.25977110862731934,0.09343753755092621
1776442853950107000,12.21110693359375,0.035224564373493195,-0.4774906635284424,0.205640509724617
1776442853975124000,12.2361240234375,0.6283094882965088,0.9648256897926331,-0.1238018348813057
1776442854000140000,12.26114013671875,1.0605604648590088,-0.008297344669699669,0.20771963894367218
1776442854025156900,12.286156982421875,1.3145266771316528,0.18523883819580078,0.11114676296710968
1776442854050173000,12.3111728515625,1.2500598430633545,0.19613409042358398,0.4661530554294586
1776442854075189800,12.336189697265626,1.4884785413742065,0.5627232789993286,0.8299925327301025
1776442854100206800,12.361206787109374,2.1500844955444336,0.16970089077949524,0.3413083255290985
1776442854125223000,12.386222900390624,2.9303109645843506,-1.2943050861358643,-0.09638379514217377
1776442854150240000,12.411239990234375,3.435086488723755,-1.5332521200180054,0.2984655201435089
1776442854175256000,12.436256103515625,3.530855894088745,-1.2365565299987793,0.6871834397315979
1776442854200273000,12.46127294921875,3.045029878616333,-0.5910720825195312,0.47429540753364563
1776442854225289700,12.486289794921875,1.9456080198287964,-0.10965193063020706,0.2809096872806549
1776442854250305800,12.511305908203125,1.1990251541137695,-0.16411224007606506,0.3222121298313141
1776442854275323000,12.536322998046876,1.1653190851211548,-0.35419508814811707,0.729170560836792
1776442854300339000,12.5613388671875,1.6759089231491089,-0.10017906129360199,0.7550423741340637
1776442854325356000,12.58635595703125,2.1605799198150635,0.28193289041519165,0.7916153073310852
1776442854350371800,12.611371826171874,2.2022464275360107,0.343106746673584,0.4787825644016266
1776442854375389000,12.636388916015624,2.2735743522644043,-0.06898199766874313,0.22752077877521515
1776442854400405800,12.66140576171875,2.1587746143341064,-0.418449729681015,0.10555358976125717
1776442854425422000,12.686422119140625,1.9954628944396973,-0.31381916999816895,0.12944799661636353
1776442854450439000,12.71143896484375,2.0722007751464844,-0.5577149391174316,0.42469322681427
1776442854475454000,12.736453857421875,1.9195609092712402,-0.4874306619167328,0.38858261704444885
1776442854500470800,12.761470703125,1.7257957458496094,-0.012946957722306252,0.2982649803161621
1776442854525487900,12.78648779296875,1.7968595027923584,0.049251168966293335,0.4041557312011719
1776442854550504000,12.81150390625,1.9612895250320435,-0.19970645010471344,0.6076169610023499
1776442854575521000,12.83652099609375,1.819962978363037,-0.2540663778781891,0.8952966928482056
1776442854600537000,12.861537109375,1.6114145517349243,-0.4198681116104126,1.108452320098877
1776442854625554000,12.886553955078124,1.1254414319992065,-0.4110802114009857,0.985832691192627
1776442854650570000,12.911570068359374,0.6065740585327148,-0.10820823162794113,0.6427483558654785
1776442854675586800,12.9365869140625,0.2619434595108032,0.07709372043609619,0.4115563929080963
1776442854700604000,12.96160400390625,0.7633863091468811,-0.013500628992915154,0.6084332466125488
1776442854725620000,12.986619873046875,1.200914978981018,-0.9151806831359863,1.8011608123779297
1776442854750637000,13.011636962890625,1.2464337348937988,0.4484795331954956,1.4055287837982178
1776442854775652900,13.03665283203125,1.460370421409607,0.7177168726921082,0.6801300644874573
1776442854800670000,13.061669921875,1.0524545907974243,0.3133525848388672,0.2585407495498657
1776442854825687000,13.08668701171875,0.7880663871765137,0.3249221742153168,0.1265784502029419
1776442854850703000,13.111703125,1.1176741123199463,0.6355447173118591,-0.10700155049562454
1776442854875720000,13.136719970703124,1.6086806058883667,0.7426264882087708,-0.5017685890197754
1776442854900735700,13.16173583984375,1.330930233001709,0.43470299243927,-0.44657883048057556
1776442854925752800,13.1867529296875,0.8206485509872437,0.23832814395427704,-0.18115700781345367
1776442854950770000,13.21177001953125,0.7725366950035095,0.22465281188488007,0.08167355507612228
1776442854975786000,13.236785888671875,0.7970492243766785,-0.012385296635329723,0.26717817783355713
1776442855000803000,13.261802978515625,0.8083673715591431,-0.09694891422986984,0.38952991366386414
1776442855025819100,13.286819091796875,0.8786583542823792,-0.13994139432907104,0.3726462721824646
1776442855050836000,13.3118359375,1.1465175151824951,-0.360025554895401,0.14246207475662231
1776442855075852000,13.33685205078125,1.2266227006912231,-0.4305788278579712,-0.09725544601678848
1776442855100868900,13.361868896484374,0.9979607462882996,-0.15538878738880157,-0.22157686948776245
1776442855125886000,13.386885986328124,0.7248134016990662,0.14767441153526306,-0.2145402580499649
1776442855150902000,13.411902099609375,0.75733482837677,0.07785432040691376,-0.04248753935098648
1776442855175919000,13.436919189453125,1.1618224382400513,-0.5039417147636414,0.21207976341247559
1776442855200935000,13.461934814453125,1.3240877389907837,-0.7325746417045593,0.3172317445278168
1776442855225952000,13.486951904296875,1.2287273406982422,-0.08426561206579208,-0.2079840898513794
1776442855250968800,13.51196875,0.9446961879730225,0.30347520112991333,-0.5022391676902771
1776442855275985000,13.53698486328125,0.7060753703117371,0.4524873197078705,-0.5067580342292786
1776442855301002000,13.562001953125,0.7890533208847046,-0.24043497443199158,-0.23733824491500854
1776442855326017800,13.587017822265626,1.2369112968444824,-0.7111902236938477,0.29443907737731934
1776442855351035000,13.612034912109374,1.0783344507217407,0.16244803369045258,0.23624849319458008
1776442855376052000,13.637052001953125,0.63465815782547,0.4076750874519348,-0.05651600658893585
1776442855401068000,13.662068115234375,0.5478343367576599,0.38656607270240784,-0.18394294381141663
1776442855426085000,13.687085205078125,0.9844138026237488,-0.05387148633599281,0.1601364016532898
1776442855451101200,13.71210107421875,0.954362690448761,-0.1584508866071701,0.3346472382545471
1776442855476118300,13.7371181640625,0.7653911709785461,0.12755289673805237,0.2524503469467163
1776442855501135400,13.76213525390625,0.7722554802894592,0.20510707795619965,0.1724974662065506
1776442855526151400,13.7871513671875,1.0205159187316895,0.001327053178101778,0.21902954578399658
1776442855551168500,13.81216845703125,1.2098780870437622,-0.3301302492618561,0.1871613711118698
1776442855576184600,13.8371845703125,1.1895948648452759,-0.3133890628814697,0.2551151216030121
1776442855601201400,13.862201416015624,0.9318342208862305,0.07067763060331345,0.3002639412879944
1776442855626218200,13.88721826171875,0.8367926478385925,0.3215378224849701,0.11088390648365021
1776442855651234300,13.912234375,1.0817917585372925,0.1793295443058014,-0.07608890533447266
1776442855676251400,13.93725146484375,0.9719305038452148,0.13347284495830536,0.12031789124011993
1776442855701267500,13.962267333984375,0.6081581115722656,0.3745858669281006,0.0665057897567749
1776442855726284500,13.987284423828125,0.4015114903450012,0.2667619287967682,0.13187387585639954
1776442855751301400,14.01230126953125,0.46897414326667786,0.20837610960006714,-0.044558413326740265
1776442855776317400,14.0373173828125,0.5499305129051208,0.29999205470085144,0.017040768638253212
1776442855801334300,14.062334228515626,0.6576393842697144,0.06382984668016434,-0.15193067491054535
1776442855826350300,14.087350341796874,0.6007795929908752,0.14893461763858795,-0.3023763597011566
1776442855851367400,14.112367431640624,0.5698224306106567,0.3122558891773224,-0.1999024599790573
1776442855876384500,14.137384521484375,0.6351096034049988,-0.024110661819577217,0.02652641572058201
1776442855901400300,14.162400390625,0.8768577575683594,-0.10111968964338303,0.10503720492124557
1776442855926417400,14.18741748046875,1.0539965629577637,-0.2003498673439026,0.09570575505495071
1776442855951433500,14.21243359375,1.1657133102416992,-0.11701823025941849,0.11017337441444397
1776442855976450600,14.237450439453125,1.255246877670288,-0.061285994946956635,0.2650918662548065
1776442856001467400,14.26246728515625,1.179124116897583,0.21507368981838226,0.37026888132095337
1776442856026483200,14.287483154296876,1.0439956188201904,0.20167453587055206,0.018622687086462975
1776442856051500300,14.312500244140624,1.389587640762329,0.39372172951698303,-0.16448189318180084
1776442856076516400,14.337516357421874,1.9541285037994385,0.4428778290748596,0.0022093583829700947
1776442856101533400,14.362533447265625,1.9086161851882935,0.528994619846344,0.03328125923871994
1776442856126550500,14.387550537109375,1.4076907634735107,-0.3694848418235779,0.4373842477798462
1776442856151566600,14.412566650390625,0.8930825591087341,-0.6164664030075073,0.728712260723114
1776442856176583200,14.437583251953125,0.5031126737594604,-0.0812506452202797,0.5074557662010193
1776442856201599200,14.46259912109375,0.39297550916671753,0.38953232765197754,0.07815738767385483
1776442856226616300,14.4876162109375,0.23791909217834473,0.35061395168304443,-0.13619565963745117
1776442856251633400,14.51263330078125,0.35283395648002625,0.17183008790016174,0.04723302647471428
1776442856276649500,14.5376494140625,0.7917266488075256,-0.059956278651952744,0.20837929844856262
1776442856301666600,14.56266650390625,0.8068150281906128,-0.2282390296459198,0.14495877921581268
1776442856326682400,14.587682373046874,0.7270802855491638,-0.5946897268295288,0.316241055727005
1776442856351699500,14.612699462890625,1.0917226076126099,-1.1686738729476929,0.04566708579659462
1776442856376716300,14.63771630859375,1.4870377779006958,-1.087069034576416,-0.2804819941520691
1776442856401732400,14.662732421875,0.8863716721534729,-0.8907306790351868,-0.11305811256170273
1776442856426749400,14.68774951171875,0.5820778012275696,1.4872220754623413,-0.6313803791999817
1776442856451765200,14.71276513671875,0.050702325999736786,2.158158779144287,-0.43868201971054077
1776442856476782000,14.737781982421875,0.49239692091941833,1.4780256748199463,-0.647943913936615
1776442856501799200,14.762799072265626,0.9110740423202515,0.7678058743476868,-0.5584970712661743
1776442856526815000,14.78781494140625,0.7531843185424805,0.40889909863471985,0.10599727183580399
1776442856551832000,14.81283203125,1.1094046831130981,0.08996690809726715,0.31211262941360474
1776442856576848100,14.83784814453125,1.2123830318450928,-0.564418613910675,0.46698901057243347
1776442856601865000,14.862864990234375,1.4587349891662598,-0.7622648477554321,0.3693937659263611
1776442856626882000,14.887882080078125,1.418804407119751,-0.29148855805397034,0.8737895488739014
1776442856651898000,14.912898193359375,1.2212367057800293,0.420210063457489,1.0563130378723145
1776442856676915000,14.9379150390625,1.3120208978652954,1.010629415512085,0.7704066634178162
1776442856701932000,14.96293212890625,1.4490922689437866,1.4068281650543213,0.7730480432510376
1776442856726948000,14.987947998046875,1.541336178779602,1.8154276609420776,0.49847611784935
1776442856751965000,15.01296484375,1.420058250427246,1.8781131505966187,0.2208397090435028
1776442856776981000,15.03798095703125,1.2796728610992432,1.563380241394043,-0.0003616572648752481
1776442856801998000,15.062998046875,1.1533050537109375,0.46151381731033325,0.32623136043548584
1776442856827015000,15.088014892578125,1.2544755935668945,-0.14272306859493256,0.6743278503417969
1776442856852031000,15.113031005859375,0.9342387914657593,-0.4656206965446472,0.533936619758606
1776442856877048000,15.138048095703125,0.603344738483429,-0.9884713888168335,0.27272287011146545
1776442856902064000,15.163064208984375,0.6074872612953186,-0.5390568375587463,0.20679844915866852
1776442856927081200,15.188081298828125,0.6456266641616821,-0.3802535831928253,0.26735714077949524
1776442856952098000,15.21309814453125,0.7489488124847412,-0.4590536057949066,0.13933339715003967
1776442856977113900,15.23811376953125,1.2787889242172241,-0.5706749558448792,0.4160451591014862
1776442857002131000,15.263130859375,1.5067907571792603,-0.5594664812088013,0.6549685001373291
1776442857027147000,15.28814697265625,1.0801289081573486,-0.34441542625427246,0.667742908000946
1776442857052164000,15.3131640625,0.9153119325637817,-0.14683231711387634,0.569276750087738
1776442857077181200,15.33818115234375,0.9750184416770935,0.21027015149593353,0.47573137283325195
1776442857102197000,15.363197021484375,0.9190707206726074,0.20582054555416107,0.23171871900558472
1776442857127214000,15.388214111328125,0.4983581304550171,-0.02532692812383175,0.17500217258930206
1776442857152230100,15.413230224609375,0.8541132807731628,0.20307402312755585,0.2071870118379593
1776442857177247000,15.4382470703125,0.8562070727348328,0.13825933635234833,0.19258250296115875
1776442857202264000,15.46326416015625,0.624855101108551,0.07479168474674225,0.3160405158996582
1776442857227280100,15.488280029296876,0.6143510341644287,-0.1521458625793457,0.2602768540382385
1776442857252297000,15.513296875,1.407460331916809,-0.5072970390319824,0.19763238728046417
1776442857277314000,15.53831396484375,1.6238155364990234,-0.5146945118904114,0.6635148525238037
1776442857302330000,15.563330078125,1.7020480632781982,-0.7716463804244995,0.5419180989265442
1776442857327347000,15.588346923828125,1.610887050628662,-0.9609841108322144,0.27096331119537354
1776442857352363000,15.613363037109375,0.9117553234100342,-1.2710977792739868,0.02659725584089756
1776442857377380000,15.638380126953125,0.7881917953491211,-1.0826205015182495,-0.41958102583885193
1776442857402397000,15.66339697265625,1.1077284812927246,-1.2770568132400513,-0.284186989068985
1776442857427413000,15.6884130859375,1.7708572149276733,-1.4081424474716187,0.021254688501358032
1776442857452430000,15.71343017578125,1.4101048707962036,0.027168769389390945,-0.37479597330093384
1776442857477447200,15.738447265625,0.8527953028678894,0.6402846574783325,0.4233645796775818
1776442857502464300,15.76346435546875,1.0396757125854492,1.0642976760864258,0.6910498142242432
1776442857527481000,15.788481201171875,1.1312847137451172,1.2994660139083862,0.3625214695930481
1776442857552497200,15.8134970703125,1.1659750938415527,0.5604375004768372,0.3560886085033417
1776442857577514200,15.83851416015625,1.603967547416687,-0.114120714366436,-0.1047796756029129
1776442857602530300,15.8635302734375,2.0950677394866943,-0.5021336674690247,-0.13945110142230988
1776442857627547400,15.88854736328125,2.069507360458374,-0.06419336795806885,-0.26454269886016846
1776442857652564200,15.913564208984376,2.0443222522735596,0.5233361721038818,0.047740623354911804
1776442857677580000,15.938580078125,2.127887010574341,0.9912533164024353,0.29217806458473206
1776442857702597000,15.96359716796875,2.5850722789764404,1.0864815711975098,0.2384658306837082
1776442857727614200,15.9886142578125,2.9581081867218018,0.9802296757698059,0.09993964433670044
1776442857752630300,16.01363037109375,2.9246160984039307,0.853345513343811,0.16776104271411896
1776442857777647400,16.0386474609375,2.686479330062866,0.8477544784545898,0.4800105392932892
1776442857802663200,16.0636630859375,2.216172933578491,0.9299265742301941,0.4269515872001648
1776442857827680000,16.088679931640623,2.0825695991516113,0.38794106245040894,0.04490968585014343
1776442857852697000,16.113697021484374,2.008544445037842,-0.19359077513217926,0.14902596175670624
1776442857877713200,16.138713134765624,2.089813470840454,0.4853549897670746,0.5248589515686035
1776442857902730200,16.163730224609374,2.133523464202881,1.1250516176223755,0.22423550486564636
1776442857927746300,16.188746337890624,1.9370033740997314,0.8149781823158264,0.015810122713446617
1776442857952763100,16.21376318359375,1.9019145965576172,0.2226269543170929,0.49909716844558716
1776442857977780200,16.2387802734375,1.9175052642822266,0.34788739681243896,0.6687442660331726
1776442858002796300,16.26379638671875,1.8707177639007568,0.7685675024986267,0.38691896200180054
1776442858027813000,16.288813232421877,1.8030951023101807,0.5540288686752319,0.11083836853504181
1776442858052830200,16.313830322265623,1.831629991531372,0.18663886189460754,-0.010203635320067406
1776442858077846300,16.33884619140625,1.898186445236206,-0.0348820835351944,-0.096918024122715
1776442858102863400,16.36386328125,1.747651219367981,-0.39273664355278015,-0.3218193054199219
1776442858127879200,16.388879150390625,1.7334691286087036,-0.8215276598930359,-0.39564186334609985
1776442858152896300,16.413896240234376,1.8019863367080688,-0.2712123394012451,-0.23058047890663147
1776442858177913000,16.4389130859375,1.5002491474151611,0.2034338116645813,-0.13651496171951294
1776442858202929200,16.46392919921875,1.2865080833435059,0.3903922438621521,-0.1410769671201706
1776442858227946200,16.4889462890625,1.4142930507659912,0.24522706866264343,-0.20500028133392334
1776442858252962000,16.513962158203125,1.5806353092193604,0.08652370423078537,-0.6655955910682678
1776442858277979100,16.538979248046875,1.7498975992202759,0.12413179874420166,-1.2327109575271606
1776442858302996200,16.563996337890625,1.9700320959091187,0.43487581610679626,-1.4490855932235718
1776442858328012300,16.58901220703125,2.1766841411590576,0.22418943047523499,-0.9827131032943726
1776442858353029400,16.614029296875,2.361109495162964,0.14318858087062836,-0.6735779047012329
1776442858378046200,16.639046142578124,2.3708560466766357,0.14892716705799103,-0.4880676865577698
1776442858403062000,16.66406201171875,2.08189058303833,-0.2842985689640045,-0.16004186868667603
1776442858428079000,16.6890791015625,1.5968345403671265,-0.8250108361244202,0.5945520401000977
1776442858453095200,16.71409521484375,1.578862190246582,-1.2518702745437622,0.8719623684883118
1776442858478112300,16.7391123046875,2.280648946762085,0.4543142318725586,-0.2760150730609894
1776442858503129300,16.76412939453125,2.207242012023926,-0.5474018454551697,-0.3370579183101654
1776442858528145400,16.7891455078125,1.9044986963272095,-0.4564298689365387,-0.012970926240086555
1776442858553162000,16.814161865234375,1.3651273250579834,-0.49416765570640564,0.2404506802558899
1776442858578179000,16.839178955078125,1.2725483179092407,-0.9437733888626099,0.44961056113243103
1776442858603195100,16.864195068359376,1.7240852117538452,-0.6060217618942261,0.18587186932563782
1776442858628212200,16.889212158203126,1.9485965967178345,-0.7126451134681702,-0.10914592444896698
1776442858653228300,16.914228271484376,1.970430850982666,-0.9878996014595032,-0.09658326208591461
1776442858678245400,16.939245361328126,2.1537482738494873,-1.5078730583190918,0.05016463249921799
1776442858703262200,16.96426220703125,2.45660400390625,-1.5682731866836548,0.437697172164917
1776442858728278300,16.9892783203125,2.6274917125701904,-1.055376648902893,0.5909735560417175
1776442858753295000,17.014295166015625,2.600080966949463,-1.1095179319381714,0.5942841172218323
1776442858778311200,17.039311279296875,2.396191120147705,-1.1773126125335693,0.6014634966850281
1776442858803328300,17.064328369140625,2.4445693492889404,-1.1964442729949951,0.4746176600456238
1776442858828345300,17.089345458984376,2.488471269607544,-1.0788813829421997,0.18403081595897675
1776442858853361200,17.114361083984374,2.050234079360962,-0.5892869830131531,-0.02774827368557453
1776442858878378200,17.139378173828124,1.1858235597610474,-0.19121310114860535,-0.33175531029701233
1776442858903395000,17.16439501953125,0.6751267910003662,0.16470612585544586,-0.28935670852661133
1776442858928411100,17.1894111328125,0.5763764977455139,0.20135441422462463,0.2341267466545105
1776442858953428200,17.21442822265625,1.1802359819412231,0.17066282033920288,0.511371910572052
1776442858978444000,17.239444091796877,1.5235193967819214,0.11206208914518356,0.4250088036060333
1776442859003461000,17.264461181640623,1.3690298795700073,0.20592041313648224,0.49310770630836487
1776442859028478200,17.289478271484374,0.5927594900131226,0.4307684302330017,0.49341103434562683
1776442859053494300,17.314494384765624,0.3498307168483734,0.5340205430984497,0.46764814853668213
1776442859078511400,17.339511474609374,0.7489032745361328,0.5840203166007996,0.5065920948982239
1776442859103528200,17.364528076171876,1.2487781047821045,0.4722554087638855,0.366787314414978
1776442859128544000,17.3895439453125,1.7356576919555664,0.4397587180137634,0.28932714462280273
1776442859153561000,17.41456103515625,1.9437317848205566,0.7149519324302673,0.3771688640117645
1776442859178577200,17.4395771484375,1.7674158811569214,0.6799524426460266,0.5134885907173157
1776442859203594200,17.46459423828125,1.5873502492904663,0.4058034420013428,0.5381097793579102
1776442859228611300,17.489611328125,1.491958737373352,0.4532620310783386,0.46489816904067993
1776442859268637200,17.52963720703125,1.4545842409133911,0.46816399693489075,0.2654031813144684
1776442859308664000,17.5696640625,1.500540852546692,0.7001186609268188,0.22764195501804352
1776442859348690200,17.609690185546874,1.6418849229812622,0.4867704510688782,0.9512768983840942
1776442859388717000,17.649717041015624,1.3371918201446533,0.8032501339912415,0.02827424928545952
1776442859428744200,17.689744140625,1.9133994579315186,-0.003340402850881219,0.23549161851406097
1776442859468770300,17.729770263671874,2.5467259883880615,-0.8635497093200684,0.25527170300483704
1776442859508796000,17.7697958984375,1.5750397443771362,-1.3861258029937744,0.6906687021255493
1776442859548822000,17.809822021484376,1.0892784595489502,-0.055806808173656464,0.7052111625671387
1776442859588849200,17.84984912109375,1.715447187423706,0.2745721638202667,0.6153857111930847
1776442859628876000,17.8898759765625,1.3890187740325928,0.5653027892112732,0.2565455138683319
1776442859668902000,17.92990185546875,1.6329106092453003,0.6845607757568359,-0.1922338902950287
1776442859708929000,17.969928955078124,2.3071300983428955,-1.0365140438079834,-0.3565562665462494
1776442859748955100,18.009955078125,2.209836483001709,-1.8516954183578491,0.30811840295791626
1776442859788982000,18.04998193359375,1.5961978435516357,0.43515491485595703,0.5210964679718018
1776442859829009200,18.090009033203124,1.2142552137374878,1.189189076423645,0.26545190811157227
1776442859869035000,18.130034912109377,1.1485848426818848,0.9014472365379333,0.6557456254959106
1776442859909062100,18.170062255859374,1.4584136009216309,0.1391291320323944,0.0510978065431118
1776442859949088000,18.210087890625,1.4299849271774292,0.3915259540081024,0.41471996903419495
1776442859989115000,18.250114990234376,1.164038896560669,0.1499282419681549,0.14255261421203613
1776442860029142000,18.29014208984375,1.222736120223999,-0.10590992122888565,0.29783540964126587
1776442860069168000,18.330168212890626,1.0244426727294922,0.3059713840484619,0.23799285292625427
1776442860109195000,18.370195068359376,1.102530598640442,-0.47894927859306335,-0.24717383086681366
1776442860149220900,18.410220947265625,0.8154482245445251,-0.07814513891935349,-0.06659340858459473
1776442860189248000,18.450248046875,0.8833550810813904,0.29483217000961304,0.14513428509235382
1776442860229275000,18.49027490234375,1.087962031364441,0.49220970273017883,0.3069612681865692
1776442860269301000,18.530301025390624,1.2937676906585693,0.6232191324234009,0.8136489987373352
1776442860309328100,18.570328125,1.3319776058197021,0.30295613408088684,0.18448010087013245
1776442860349354000,18.61035400390625,1.051051378250122,-0.7883007526397705,-0.3328876793384552
1776442860389380900,18.650380859375,0.9415802955627441,-0.8553950786590576,-0.3093429505825043
1776442860429408000,18.690407958984373,0.967664897441864,0.26515069603919983,-0.24152474105358124
1776442860469434000,18.73043408203125,2.038132667541504,0.6284586191177368,0.16901059448719025
1776442860509461500,18.77046142578125,1.8403111696243286,1.0146715641021729,0.04954198747873306
1776442860549488400,18.81048828125,1.8843989372253418,0.5056791305541992,0.06112460792064667
1776442860589514200,18.85051416015625,1.5561087131500244,-0.16943056881427765,-0.33459022641181946
1776442860629541400,18.890541259765627,2.111877679824829,-0.26100096106529236,-0.48601996898651123
1776442860669567200,18.930567138671876,2.472181558609009,-0.43653738498687744,0.5775331258773804
1776442860709594400,18.970594482421873,2.479219436645508,-0.40969616174697876,0.5456864833831787
1776442860749621500,19.01062158203125,2.1016993522644043,-0.10110131651163101,0.12404471635818481
1776442860789647400,19.0506474609375,1.3149384260177612,-0.1317945122718811,0.04062199592590332
1776442860829674200,19.09067431640625,0.8483155965805054,0.41473567485809326,0.11539903283119202
1776442860869700400,19.130700439453125,1.3149008750915527,0.21983462572097778,0.1966978758573532
1776442860909727200,19.170727294921875,1.6663076877593994,0.3967662453651428,0.22037391364574432
1776442860949754000,19.210754150390624,1.4634637832641602,-0.2195507287979126,0.47715243697166443
1776442860989780500,19.250780517578125,1.2904040813446045,-0.019040802493691444,0.400858998298645
1776442861029807400,19.290807373046874,1.310928225517273,0.14794392883777618,0.4801200032234192
1776442861069833200,19.330833251953123,1.3117612600326538,0.17994952201843262,0.5633994340896606
1776442861109860400,19.3708603515625,1.0323221683502197,0.30853813886642456,0.6394585371017456
1776442861149887200,19.41088720703125,0.7902533411979675,-0.0899898111820221,0.24338363111019135
1776442861189913300,19.450913330078127,0.5210988521575928,0.00802996288985014,0.14091797173023224
1776442861229940500,19.4909404296875,0.5683934092521667,-0.10799464583396912,0.17395953834056854
1776442861269966300,19.53096630859375,0.9188643097877502,0.19374017417430878,0.003186472225934267
1776442861309993200,19.5709931640625,1.2795993089675903,0.23240874707698822,0.009711749851703644
1776442861350020400,19.611020263671875,0.9344382286071777,-0.15429715812206268,0.0012934972764924169
1776442861390046500,19.65104638671875,1.1049388647079468,0.1491663157939911,0.1996995359659195
1776442861430073300,19.6910732421875,2.0962233543395996,0.05192631483078003,0.2652583122253418
1776442861470099200,19.73109912109375,1.703110694885254,0.333762526512146,0.2970793545246124
1776442861510126600,19.771126708984376,1.0691134929656982,0.10512854903936386,0.14435051381587982
1776442861550153500,19.811153564453125,1.7547880411148071,-1.0707987546920776,-0.7965938448905945
1776442861590179300,19.851179443359374,1.9287980794906616,-0.4878557026386261,-0.9515826106071472
1776442861630206500,19.89120654296875,0.9848798513412476,0.3028229773044586,-0.8199292421340942
1776442861670232600,19.931232666015624,1.4358088970184326,-0.43754512071609497,-0.2721385657787323
1776442861710259500,19.971259521484374,1.2616586685180664,-0.3872172236442566,0.11877458542585373
1776442861750286600,20.01128662109375,1.139877438545227,-0.46226751804351807,0.11675218492746353
1776442861790312400,20.0513125,1.7058955430984497,-0.2633005976676941,0.5372937917709351
1776442861830339300,20.09133935546875,1.9002448320388794,0.4745582640171051,0.6634495854377747
1776442861870366500,20.131366455078126,2.1935930252075195,1.390870213508606,0.6197215914726257
1776442861910392600,20.171392578125,1.885428786277771,1.3031238317489624,-0.09731537103652954
1776442861950419500,20.21141943359375,1.6506922245025635,0.8229362368583679,-0.4116748869419098
1776442861990445600,20.251445556640626,1.4055876731872559,0.5515923500061035,-0.3799252212047577
1776442862030472400,20.291472412109375,1.493308186531067,-0.13629844784736633,-0.10560232400894165
1776442862070499300,20.331499267578124,1.5081111192703247,-0.05781456455588341,-0.05091990530490875
1776442862110525700,20.371525634765625,1.3129602670669556,0.47431111335754395,0.013068930245935917
1776442862150552600,20.411552490234374,1.3986562490463257,0.3403621017932892,0.3140098452568054
1776442862190578400,20.451578369140623,1.509901762008667,0.42399707436561584,0.010821755044162273
1776442862230605600,20.49160546875,1.366513729095459,-0.08911522477865219,0.3174645006656647
1776442862270632400,20.531632568359374,1.2709254026412964,-0.23505805432796478,0.21164913475513458
1776442862310658600,20.571658447265627,1.0868868827819824,-0.3175148367881775,-0.12035970389842987
1776442862350685700,20.611685791015624,1.4599038362503052,-0.6065794229507446,-0.3791872560977936
1776442862390711600,20.651711669921873,1.8240176439285278,-0.3890223205089569,-0.3464040160179138
1776442862430738400,20.691738525390626,2.1554996967315674,-0.7578293681144714,-0.6091866493225098
1776442862470765600,20.731765625,2.107983112335205,-0.9062521457672119,-0.17658782005310059
1776442862510791200,20.771791259765624,1.3716315031051636,-0.006737264804542065,0.20019488036632538
1776442862550818300,20.811818359375,0.9311966300010681,0.7260339260101318,0.0356978103518486
1776442862590845200,20.85184521484375,1.3021621704101562,0.5460119247436523,0.09739712625741959
1776442862630871000,20.89187109375,2.040415048599243,-0.10996005684137344,-0.1367269605398178
1776442862670898200,20.931898193359373,1.8211963176727295,-0.10308191180229187,-0.328239381313324
1776442862710924000,20.971924072265626,2.0103719234466553,-0.03178402781486511,-0.12588869035243988
1776442862750951200,21.011951171875,2.4162609577178955,-0.24322757124900818,-0.16618818044662476
1776442862790978300,21.051978271484376,1.8071696758270264,0.04085102677345276,-0.1990388035774231
1776442862831004200,21.092004150390625,1.5619548559188843,0.18337221443653107,-0.15885436534881592
1776442862871031000,21.132031005859375,1.3401566743850708,-0.056356750428676605,-0.018273811787366867
1776442862911057200,21.17205712890625,1.248754620552063,-0.39394330978393555,0.019989686086773872
1776442862951084000,21.212083984375,1.3287205696105957,-0.2977171838283539,0.2141764760017395
1776442862991111200,21.252111083984374,1.019368052482605,0.073867566883564,0.6760048270225525
1776442863031137300,21.29213720703125,1.060096263885498,0.38520893454551697,0.2649368643760681
1776442863071164200,21.3321640625,1.620308518409729,0.09248092770576477,0.17445462942123413
1776442863111190000,21.37218994140625,1.5023034811019897,0.34037622809410095,0.01870710775256157
1776442863151217200,21.412217041015627,1.4233149290084839,-0.1788824051618576,0.1271752566099167
1776442863191244000,21.452244140625,1.5243878364562988,-0.23602931201457977,0.13405847549438477
1776442863231270100,21.492270263671877,1.4586045742034912,-0.6436631083488464,-0.08672823756933212
1776442863271297300,21.53229736328125,1.4509516954421997,-0.9075645208358765,-0.17337392270565033
1776442863311324200,21.57232421875,1.2706983089447021,-0.42889276146888733,0.13991422951221466
1776442863351350000,21.61235009765625,0.8469094634056091,-0.03236087039113045,0.07773926854133606
1776442863391377200,21.652377197265626,1.5510889291763306,-0.42092645168304443,0.34008193016052246
1776442863431403300,21.6924033203125,2.3373234272003174,-0.666032075881958,0.5217875838279724
1776442863471430100,21.73243017578125,3.146824598312378,-0.5283849835395813,0.7170305252075195
1776442863511458600,21.77245849609375,2.667797565460205,-0.33655911684036255,1.670167326927185
1776442863551484700,21.812484619140626,1.852535367012024,-0.24577194452285767,1.6009374856948853
1776442863591511800,21.85251171875,1.2904232740402222,-0.7873108386993408,0.15976516902446747
1776442863631537700,21.89253759765625,1.8670711517333984,-0.027791151776909828,-0.08205518871545792
1776442863671564500,21.932564453125,1.9359899759292603,-0.27959463000297546,-0.07615948468446732
1776442863711591700,21.972591796875,2.314418077468872,-0.3972054123878479,0.18167312443256378
1776442863751617800,22.01261767578125,2.3839595317840576,0.043477967381477356,0.07831104844808578
1776442863791644700,22.052644775390625,2.454354763031006,0.5729703307151794,-0.5765296220779419
1776442863831671800,22.092671875,2.614445924758911,0.33413243293762207,-0.17945711314678192
1776442863871697700,22.13269775390625,2.18687105178833,-0.2672452926635742,0.19616791605949402
1776442863911724500,22.172724609375,2.558056116104126,-0.83690345287323,0.2797698676586151
1776442863951750700,22.212750732421874,2.458146572113037,-0.9312371015548706,0.7082546353340149
1776442863991777500,22.252777587890623,2.206176519393921,-1.1867743730545044,0.670971691608429
1776442864031804700,22.2928046875,1.869958519935608,-0.3092886209487915,1.2061374187469482
1776442864071830800,22.332830810546874,1.3396278619766235,-0.8781291842460632,0.9286567568778992
1776442864111857700,22.372857666015626,1.424193263053894,-1.781483769416809,1.0360554456710815
1776442864151883500,22.412883544921876,1.1674379110336304,-1.6094083786010742,1.1138296127319336
1776442864191910700,22.45291064453125,1.2961764335632324,-0.7746940851211548,0.6098966598510742
1776442864231937500,22.4929375,1.20797598361969,-1.2929564714431763,0.6007721424102783
1776442864271963600,22.532963623046875,1.0764070749282837,-0.878826916217804,0.6938988566398621
1776442864311990800,22.57299072265625,1.2623798847198486,-1.543197751045227,0.8306170105934143
1776442864352017700,22.613017578125,1.164990782737732,-1.452425479888916,0.5857654809951782
1776442864392043500,22.65304345703125,0.8732478618621826,-0.8880637884140015,0.7539219856262207
1776442864432070700,22.693070556640624,0.45191872119903564,-1.3386203050613403,0.8796937465667725
1776442864472096800,22.7330966796875,0.32563456892967224,-1.687055230140686,0.9980688691139221
1776442864512122400,22.773122314453126,0.06540989875793457,-1.2093504667282104,1.0359214544296265
1776442864552149500,22.8131494140625,0.12605033814907074,-0.7943567633628845,1.0525035858154297
1776442864592175400,22.85317529296875,0.28065189719200134,-1.3084845542907715,1.2395530939102173
1776442864632202500,22.893202392578125,0.16296574473381042,-1.4908630847930908,1.568759799003601
1776442864672229600,22.933229736328126,0.4621647000312805,-0.98746657371521,1.6092536449432373
1776442864712255500,22.97325537109375,0.291248619556427,-0.8034144639968872,1.4754804372787476
1776442864752282400,23.013282470703125,0.22650264203548431,-0.7433865070343018,1.3116589784622192
1776442864792308200,23.05330810546875,-0.4190492033958435,-0.934567391872406,1.2658454179763794
1776442864832335400,23.09333544921875,-0.47372788190841675,-0.7039459347724915,1.0096856355667114
1776442864872362500,23.133362548828124,-0.4188065826892853,-1.219533085823059,1.0163322687149048
1776442864912388600,23.173388671875,0.20765624940395355,-0.8623794913291931,0.8263826370239258
1776442864952415500,23.21341552734375,0.6204811334609985,-1.6041936874389648,1.349395751953125
1776442864992441300,23.25344140625,0.046183206140995026,-0.9398159384727478,1.4543330669403076
1776442865032468500,23.293468505859376,0.3426971733570099,-0.7962958216667175,1.1523783206939697
1776442865072495400,23.333495361328126,-0.4213307201862335,-0.39533481001853943,1.1760828495025635
1776442865112521500,23.373521484375,-0.2595900297164917,-0.596013069152832,1.6094675064086914
1776442865152548600,23.413548583984376,0.08316972106695175,-0.8086142539978027,1.2705334424972534
1776442865192575500,23.453575439453125,0.39390310645103455,-0.5544024705886841,0.8547476530075073
1776442865232601300,23.493601318359374,0.7106741070747375,-0.326809823513031,0.5388613343238831
1776442865272628500,23.53362841796875,0.20473769307136536,-0.04000121355056763,0.7762989401817322
1776442865312654600,23.573654541015625,-0.5478742718696594,0.35032951831817627,1.145848274230957
1776442865352681500,23.613681396484374,-0.24532347917556763,0.1722884178161621,1.3780279159545898
1776442865392708600,23.65370849609375,-0.08601824194192886,0.09397470206022263,1.2774608135223389
1776442865432734500,23.693734375,-0.3594183623790741,-0.14587411284446716,0.6747494339942932
1776442865472761300,23.73376123046875,-0.3572571873664856,0.7931429147720337,0.08652637153863907
1776442865512788700,23.773788818359375,-0.010549846105277538,0.012113387696444988,0.7329970002174377
1776442865552814800,23.81381494140625,0.5437578558921814,-0.1373823583126068,0.42458564043045044
1776442865592842000,23.853842041015625,0.5540866255760193,0.14119839668273926,-0.1583920419216156
1776442865632867800,23.893867919921874,-0.5150364637374878,0.21880824863910675,-0.27523475885391235
1776442865672894700,23.933894775390623,-0.13363422453403473,-0.19634181261062622,0.8416593074798584
1776442865712921900,23.973921875,0.11095315217971802,-0.2953179180622101,0.7098730206489563
1776442865752948700,24.01394873046875,-0.19473113119602203,0.3766798973083496,0.9316920042037964
1776442865792974600,24.053974609375,0.8539239764213562,-0.8347177505493164,0.9604384303092957
1776442865833001700,24.094001708984376,1.0413100719451904,-1.0094122886657715,1.0269865989685059
1776442865873028900,24.13402880859375,0.7144094705581665,-0.4453428387641907,0.32661086320877075
1776442865913054700,24.1740546875,0.2108033150434494,-0.2400197833776474,1.420831322669983
1776442865953081900,24.214081787109375,0.7592256665229797,-0.38688912987709045,1.2823584079742432
1776442865993108700,24.254108642578124,-0.3260497450828552,-0.4011836349964142,1.9532408714294434
1776442866033134800,24.294134765625,-0.3244776725769043,0.6763119101524353,1.5340447425842285
1776442866073161700,24.33416162109375,0.005840844940394163,0.6597198843955994,2.319657564163208
1776442866113187800,24.374187744140624,0.023325029760599136,0.5730371475219727,1.4031285047531128
1776442866153215000,24.414215087890625,-0.31737449765205383,0.5238648056983948,1.696370244026184
1776442866193241900,24.454241943359374,-0.5616034269332886,-0.17804323136806488,1.4615579843521118
1776442866233267700,24.494267822265623,-0.6433728337287903,-0.8664530515670776,1.4553139209747314
1776442866273294800,24.534294921875,-0.8767677545547485,0.7030313611030579,2.289895534515381
1776442866313321700,24.57432177734375,-0.26266172528266907,1.2536088228225708,1.8011953830718994
1776442866353347800,24.614347900390626,0.6174110174179077,0.6928333640098572,2.4804022312164307
1776442866393375000,24.654375,0.4400644600391388,0.4237382113933563,2.185073137283325
1776442866433400800,24.69440087890625,0.27364271879196167,-0.059836167842149734,2.031327962875366
1776442866473427700,24.734427734375,0.06929225474596024,-0.8282114267349243,2.0246405601501465
1776442866513453600,24.77445361328125,-0.12608842551708221,-0.03117975778877735,1.9287680387496948
1776442866553480400,24.81448046875,-0.08663449436426163,0.30623048543930054,2.0650908946990967
1776442866593507300,24.85450732421875,0.217392235994339,0.3972165882587433,1.9376918077468872
1776442866633533400,24.894533447265626,-0.04457199573516846,-0.013883857987821102,1.6440989971160889
1776442866673560300,24.934560302734376,-0.02539883367717266,-1.1546566486358643,1.7987866401672363
1776442866713587500,24.97458740234375,-0.03449326381087303,-0.6274386048316956,1.4064608812332153
1776442866753613600,25.014613525390626,-0.552094578742981,-0.5222301483154297,1.0910578966140747
1776442866793640400,25.054640380859375,-0.002228533150628209,0.22249139845371246,0.8305730819702148
1776442866833666300,25.094666259765624,0.11967314034700394,-0.2868133783340454,0.49014121294021606
1776442866873693400,25.134693359375,-0.25632259249687195,-0.4764874577522278,0.9657162427902222
1776442866913720300,25.17472021484375,-0.21069864928722382,-0.7226833701133728,0.785880982875824
1776442866953746400,25.214746337890624,-0.1555749475955963,-0.4627644419670105,0.8395223617553711
1776442866993773600,25.254773681640625,-0.2535036504268646,0.1633487194776535,0.9411155581474304
1776442867033800400,25.294800537109374,-0.1763920783996582,-0.17184312641620636,1.4368749856948853
1776442867073826300,25.334826416015623,0.11287142336368561,-0.3063524663448334,1.523655652999878
1776442867113853400,25.374853515625,-0.010894726030528545,-0.11164157837629318,1.0820930004119873
1776442867153879300,25.41487939453125,0.31228944659233093,-0.22087059915065765,0.6973274350166321
1776442867193906400,25.454906494140626,0.30126050114631653,0.11576894670724869,1.010934829711914
1776442867233933600,25.49493359375,-0.054253119975328445,0.1352853924036026,1.3803433179855347
1776442867273959400,25.53495947265625,-0.08013265579938889,0.15870176255702972,0.7727636098861694
1776442867313986300,25.574986328125,-0.49017396569252014,0.17302024364471436,0.794323742389679
1776442867354013400,25.615013427734375,-0.9738407731056213,-0.44981056451797485,0.7050580382347107
1776442867394039300,25.655039306640624,-0.626650869846344,-0.20706689357757568,0.7055483460426331
1776442867434066200,25.695066162109374,-0.09180981665849686,0.1630467027425766,0.3314509093761444
1776442867474092500,25.735092529296875,-0.4544207751750946,-0.513749897480011,0.5701305866241455
1776442867514120700,25.77512060546875,-0.4040452241897583,0.10686413198709488,0.9553225040435791
1776442867554147800,25.81514794921875,-0.12063214182853699,0.487008273601532,1.1724311113357544
1776442867594173700,25.855173583984374,-0.27252820134162903,-0.39045774936676025,0.6055325269699097
1776442867634200600,25.89520068359375,-0.3937190771102905,-0.3936338424682617,0.2990442216396332
1776442867674227700,25.935227783203125,-0.24661298096179962,-0.24127839505672455,0.5686618685722351
1776442867714253600,25.975253662109374,0.44548213481903076,0.3880518674850464,0.452752023935318
1776442867754280400,26.015280517578127,0.4841482937335968,0.7381539344787598,0.7292680144309998
1776442867794306800,26.055306884765624,-0.07620076090097427,0.23649589717388153,0.7754414081573486
1776442867834333700,26.095333740234373,-0.5217223167419434,-0.3184754550457001,0.43082889914512634
1776442867874360600,26.135360595703126,-0.08904998004436493,0.5528535842895508,0.986190676689148
1776442867914386700,26.17538671875,0.14674417674541473,0.4442879855632782,0.8747064471244812
1776442867954413600,26.21541357421875,0.4393022656440735,0.5578693747520447,0.1088644340634346
1776442867994440400,26.2554404296875,-0.04484150558710098,0.44202056527137756,1.4907208681106567
1776442868034466800,26.295466796875,-0.2720735967159271,-0.3714001774787903,1.428221583366394
1776442868074493700,26.33549365234375,0.3173734247684479,0.5383124947547913,0.891227662563324
1776442868114519600,26.37551953125,-0.12114133685827255,-0.07869427651166916,1.3181331157684326
1776442868154546700,26.415546630859374,-0.20705518126487732,-0.3059766888618469,1.7317665815353394
1776442868194573600,26.455573486328124,0.003239202778786421,0.5703774690628052,1.7573515176773071
1776442868234599700,26.495599609375,0.18229497969150543,0.78273606300354,1.5460995435714722
1776442868274626800,26.535626708984374,-0.23840324580669403,0.3622210621833801,1.426893711090088
1776442868314653700,26.57565380859375,-0.5947118401527405,-0.16101790964603424,1.8344343900680542
1776442868354679600,26.615679443359376,0.02173112891614437,0.12158608436584473,1.5798851251602173
1776442868394706700,26.655706787109374,-0.3423890471458435,0.18265743553638458,1.6607251167297363
1776442868434732800,26.69573291015625,-0.20231981575489044,0.0953315794467926,1.7227269411087036
1776442868474759700,26.735759765625,0.10132209211587906,-0.33985450863838196,2.135154962539673
1776442868514785300,26.775785400390625,-0.29435306787490845,-0.3859562277793884,1.7726376056671143
1776442868554811400,26.815811279296874,-0.1420024186372757,-0.3377804458141327,1.4738510847091675
1776442868594838300,26.85583837890625,0.010969826951622963,-0.19908753037452698,1.4407802820205688
1776442868634865400,26.895865478515624,-0.25471165776252747,-0.38471972942352295,1.0689302682876587
1776442868674891500,26.9358916015625,0.23538295924663544,0.11037258058786392,1.0486055612564087
1776442868714918400,26.97591845703125,0.0661180317401886,0.17710953950881958,1.3040107488632202
1776442868754945500,27.015945556640624,-0.018000837415456772,0.010810569860041142,0.812620997428894
1776442868794971400,27.055971435546876,0.19399982690811157,-0.08615858852863312,1.0681123733520508
1776442868834998300,27.095998291015626,-0.1533980816602707,-0.5572710037231445,1.1254345178604126
1776442868875024400,27.1360244140625,-0.5045225620269775,-0.3556409180164337,0.5348492860794067
1776442868915051500,27.176051513671876,0.5435040593147278,0.5428619384765625,1.1147485971450806
1776442868955078400,27.216078369140625,-0.18245929479599,0.09047716856002808,0.3196432590484619
1776442868995104300,27.256104248046874,-0.16574981808662415,-0.02712829038500786,0.621208131313324
1776442869035131400,27.29613134765625,0.8486633896827698,1.439279317855835,0.19502487778663635
1776442869075157500,27.336157470703125,-0.26583728194236755,0.42720192670822144,0.3026576042175293
1776442869115184400,27.376184326171874,-0.4407254457473755,0.3135102391242981,0.49593386054039
1776442869155211500,27.41621142578125,0.47690263390541077,0.8635656833648682,0.8071415424346924
1776442869195237400,27.4562373046875,0.2653419077396393,1.3264931440353394,0.7306022644042969
1776442869235264300,27.49626416015625,0.26514431834220886,0.4273441433906555,0.7026204466819763
1776442869275291400,27.53629150390625,0.2653360664844513,-0.1343895047903061,0.7812827825546265
1776442869315317500,27.5763173828125,0.021277325227856636,-0.11104343086481094,1.0214042663574219
1776442869355344400,27.616344482421876,0.1436445116996765,0.1913081705570221,1.0753527879714966
1776442869395370500,27.65637060546875,-0.13974671065807343,-0.2163727879524231,1.4294852018356323
1776442869435397400,27.6963974609375,-0.5784258246421814,0.008636897429823875,1.1430071592330933
1776442869475424300,27.73642431640625,-0.8639936447143555,-0.08170551806688309,1.5354816913604736
1776442869515451100,27.776451171875,-0.1966419517993927,0.10314156860113144,1.0825121402740479
1776442869555478000,27.81647802734375,-0.6326757073402405,-0.39755961298942566,1.2010483741760254
1776442869595505200,27.856505126953124,-0.34571027755737305,-0.11536867171525955,1.2901228666305542
1776442869635531300,27.89653125,-0.39266979694366455,0.7224916219711304,1.0891308784484863
1776442869675558100,27.93655810546875,-0.245350643992424,0.7304992079734802,1.0993502140045166
1776442869715585300,27.976585205078123,-0.31480881571769714,0.0785432755947113,0.5519185662269592
1776442869755611100,28.016611083984376,-0.03229695186018944,-0.24460601806640625,1.0812734365463257
1776442869795638000,28.056637939453125,0.372994601726532,0.3362826704978943,0.5605672001838684
1776442869835664400,28.096664306640626,-0.18522578477859497,1.097754955291748,0.9362342953681946
1776442869875691300,28.136691162109376,-0.031193604692816734,1.4310333728790283,0.5303658843040466
1776442869915718100,28.17671826171875,0.3375122547149658,0.23731747269630432,-0.004840028937906027
1776442869955744300,28.216744140625,-0.34121936559677124,0.1623407006263733,0.6409680247306824
1776442869995771100,28.256771240234375,-0.21046482026576996,0.2585095763206482,0.9554793238639832
1776442870035797000,28.296796875,0.09419627487659454,-0.11159470677375793,0.7666119337081909
1776442870075824400,28.336824462890625,-0.1297907531261444,-0.6396158933639526,0.6238188743591309
1776442870115851300,28.376851318359375,-0.039027292281389236,0.13541987538337708,1.0011869668960571
1776442870155877000,28.416877197265624,0.10403931885957718,0.16919675469398499,1.3208022117614746
1776442870195904300,28.456904296875,0.41536709666252136,0.3089487850666046,1.1774410009384155
1776442870235931100,28.49693115234375,0.45011016726493835,0.11515641957521439,0.9000400304794312
1776442870275957000,28.53695703125,0.3839934766292572,-0.10067201405763626,0.8465281128883362
1776442870315984100,28.576984130859376,0.44123199582099915,0.2849214971065521,0.7932558059692383
1776442870356010200,28.61701025390625,0.1797199696302414,0.07743912935256958,0.6341577768325806
1776442870396037000,28.657037109375,0.004193679895251989,0.6867511868476868,0.2631003260612488
1776442870436064300,28.697064208984376,0.1427699327468872,0.8405320048332214,0.39988136291503906
1776442870476090000,28.737090087890625,0.06757771223783493,1.00107741355896,0.5016987919807434
1776442870516116700,28.77711669921875,0.38661429286003113,0.706904947757721,0.5448007583618164
1776442870556143900,28.817143798828123,0.39809542894363403,0.7945035099983215,0.31701070070266724
1776442870596169700,28.857169677734376,0.6869869232177734,0.8243732452392578,0.5939472317695618
1776442870636196900,28.89719677734375,0.7772278189659119,1.2173328399658203,0.9263217449188232
1776442870676222700,28.93722265625,0.7373437881469727,0.954968273639679,0.7367358207702637
1776442870716249600,28.97724951171875,0.12403646111488342,0.46936190128326416,0.5781922340393066
1776442870756276700,29.01727685546875,-0.4601777195930481,0.851483166217804,0.46518898010253906
1776442870796302800,29.057302734375,-0.024040088057518005,0.39515185356140137,0.35475224256515503
1776442870836329700,29.097329833984375,-0.05043947324156761,0.4658968448638916,-0.07122278213500977
1776442870876355800,29.13735595703125,-0.2009623944759369,0.36754071712493896,0.17897427082061768
1776442870916382700,29.1773828125,0.09153817594051361,0.4719350337982178,0.0585370808839798
1776442870956409600,29.21740966796875,0.21430537104606628,-0.5380096435546875,0.2484404444694519
1776442870996436000,29.25743603515625,-0.036725789308547974,0.3621811270713806,-0.048720136284828186
1776442871036462800,29.297462890625,0.35856881737709045,0.002627208363264799,0.00169563468080014
1776442871076489700,29.33748974609375,0.2015882432460785,-0.22744247317314148,0.15674008429050446
1776442871116515800,29.377515869140623,-0.22876712679862976,0.48935583233833313,0.6292807459831238
1776442871156542700,29.417542724609376,-0.4260655641555786,-0.1588628888130188,1.2398796081542969
1776442871196568800,29.45756884765625,-0.48154425621032715,-0.09908477216959,1.2506587505340576
1776442871236596000,29.497595947265626,-0.1251659095287323,-0.4717249274253845,1.2009146213531494
1776442871276622800,29.537622802734376,0.12564954161643982,-0.10519539564847946,0.6014770865440369
1776442871316648700,29.577648681640625,0.5327349901199341,-0.44342324137687683,0.5734757781028748
1776442871356675800,29.61767578125,0.5770431160926819,-0.34997692704200745,0.673426628112793
1776442871396702700,29.65770263671875,0.37514591217041016,-0.06872793287038803,0.3918234407901764
1776442871436728800,29.697728759765624,0.24588513374328613,-0.3331843614578247,0.7416778206825256
1776442871476756000,29.737755859375,-0.2113407403230667,-0.4802592992782593,0.76143479347229
1776442871516785200,29.77778515625,-0.38051217794418335,-1.0547270774841309,0.9767451882362366
1776442871556812000,29.81781201171875,0.12647724151611328,-1.2345285415649414,0.6769797801971436
1776442871596839200,29.857839111328126,0.17882327735424042,-0.31884270906448364,0.4394569993019104
1776442871636865000,29.897864990234375,0.21542496979236603,0.3768037259578705,0.28568342328071594
1776442871676892200,29.93789208984375,0.40972867608070374,0.4407161474227905,-0.03392015025019646
1776442871716918300,29.977918212890625,0.22104290127754211,-0.18730278313159943,0.31779688596725464
1776442871756945200,30.017945068359374,0.34932470321655273,0.26708656549453735,0.6852619647979736
1776442871796972300,30.05797216796875,0.17224447429180145,-0.24589233100414276,0.7216886878013611
1776442871836998100,30.097998046875,0.5445858240127563,-1.0906832218170166,0.7762840390205383
1776442871877025000,30.13802490234375,1.1516691446304321,-1.5797146558761597,0.8121834397315979
1776442871917052200,30.17805224609375,1.0935914516448975,-0.9270570278167725,1.3556294441223145
1776442871957078300,30.218078369140624,-0.029681196436285973,-0.03586532175540924,1.3900781869888306
1776442871997105200,30.258105224609373,-0.4798254668712616,0.8139102458953857,1.0490106344223022
1776442872037131000,30.298131103515626,-0.1583576798439026,0.9208763837814331,1.4534001350402832
1776442872077158100,30.338158203125,0.155596524477005,0.53272545337677,1.24248206615448
1776442872117185000,30.37818505859375,0.05222538858652115,1.301201343536377,1.3716422319412231
1776442872157211100,30.418211181640626,-0.11279818415641785,1.254149079322815,0.6886751055717468
1776442872197238300,30.45823828125,-0.14632578194141388,0.42389774322509766,0.09230382740497589
1776442872237264100,30.49826416015625,-0.0933413952589035,-0.4898621141910553,0.22354041039943695
1776442872277291000,30.538291015625,-0.11496520042419434,-0.577490508556366,0.27558523416519165
1776442872317318100,30.578318115234374,-0.13158652186393738,-0.14627119898796082,1.137044906616211
1776442872357344300,30.61834423828125,-1.0657662153244019,-0.40370965003967285,1.1261131763458252
1776442872397371100,30.65837109375,-0.8603136539459229,-0.45586633682250977,0.3403245508670807
1776442872437398300,30.698398193359374,0.7079025506973267,-0.029922213405370712,0.6490203142166138
1776442872477424000,30.738424072265627,1.0437567234039307,-0.038531411439180374,1.2503740787506104
1776442872517447400,30.778447509765623,0.8188613057136536,0.5598680973052979,1.4370014667510986
1776442872557473500,30.8184736328125,0.3471638262271881,0.12146837264299393,1.3991742134094238
1776442872597500700,30.858500732421874,-0.03249882161617279,-0.48996198177337646,1.270049810409546
1776442872637527600,30.898527587890626,0.26932522654533386,-0.9164400696754456,1.4626349210739136
1776442872677553400,30.938553466796876,0.17881262302398682,-0.3040488362312317,1.3284473419189453
1776442872717580500,30.97858056640625,-0.20855560898780823,-0.41742733120918274,0.01841176487505436
1776442872757606400,31.0186064453125,-0.22361764311790466,-0.14860491454601288,0.30848485231399536
1776442872797633500,31.058633544921875,-0.05565660446882248,0.03254462778568268,0.22715245187282562
1776442872837660700,31.09866064453125,-0.08553806692361832,0.5217715501785278,0.8536086082458496
1776442872877686500,31.1386865234375,0.17826427519321442,0.8821539878845215,0.9063680171966553
1776442872917713700,31.178713623046875,0.32484281063079834,3.4755375385284424,1.376974105834961
1776442872957740500,31.218740478515624,-2.2864484786987305,-2.994088888168335,0.3083759546279907
1776442872997766400,31.258766357421877,-0.506430447101593,-1.0706101655960083,-1.1472560167312622
1776442873037793500,31.29879345703125,1.0196945667266846,1.0374314785003662,1.1727203130722046
1776442873077819600,31.338819580078123,1.5835754871368408,2.0196573734283447,1.2842484712600708
1776442873117846500,31.378846435546876,0.5321491360664368,-0.48838111758232117,-0.2126949578523636
1776442873157873700,31.418873779296874,0.4545249044895172,0.41238516569137573,-0.32003578543663025
1776442873197899500,31.4588994140625,0.3504751920700073,0.5620244741439819,0.24608327448368073
1776442873237926400,31.498926513671876,0.42427858710289,1.2707762718200684,1.0873702764511108
1776442873277952500,31.538952392578125,0.8547812104225159,0.7912922501564026,0.13801859319210052
1776442873317979600,31.578979736328126,0.1546606868505478,0.9373272061347961,0.24552373588085175
1776442873358006500,31.619006591796875,0.0008945558220148087,0.08902281522750854,0.13991981744766235
1776442873398032400,31.659032470703124,-0.5887207984924316,-0.0859636440873146,0.44795408844947815
1776442873438059500,31.6990595703125,-0.36771702766418457,-0.27436497807502747,0.7943897843360901
1776442873478086400,31.73908642578125,0.22485575079917908,-0.3324967324733734,0.8078020215034485
1776442873518112300,31.7791123046875,0.63308185338974,-0.2201443463563919,0.520038366317749
1776442873558139400,31.819139404296877,0.5623408555984497,-0.7407894134521484,0.4065171480178833
1776442873598165200,31.859165283203126,0.34674757719039917,-0.7484062910079956,0.7809594869613647
1776442873638192000,31.899192138671875,0.6266998648643494,-0.4670257866382599,0.8529322147369385
1776442873678219300,31.93921923828125,0.9732998609542847,0.1799234300851822,1.1247618198394775
1776442873718245400,31.979245361328125,1.0903284549713135,0.5428432822227478,1.2507866621017456
1776442873758272300,32.01927221679688,0.6465707421302795,0.05375883728265762,1.8287551403045654
1776442873798298400,32.05929833984375,0.19531862437725067,-0.2046910971403122,2.03676438331604
1776442873838325200,32.0993251953125,0.1640901416540146,-0.08065223693847656,1.8092259168624878
1776442873878352100,32.13935205078125,0.08852320909500122,-0.22837911546230316,2.0658371448516846
1776442873918378200,32.17937817382813,-0.016574716195464134,-0.34808075428009033,1.7299619913101196
1776442873958405400,32.2194052734375,-0.1083935871720314,-0.6339542865753174,1.5723055601119995
1776442873998432500,32.2594326171875,-0.02480042167007923,-0.3819316625595093,1.3206285238265991
1776442874038458400,32.299458251953126,-0.46068131923675537,-0.24561908841133118,0.9130546450614929
1776442874078485200,32.3394853515625,-0.6297321319580078,-0.8999649286270142,0.9000911712646484
1776442874118511000,32.37951098632813,-0.420737624168396,-0.4747649133205414,0.9192731380462646
1776442874158538200,32.419538330078126,-0.15547294914722443,-0.13485369086265564,0.5240094065666199
1776442874198565000,32.45956518554687,0.2870669364929199,-0.27789953351020813,0.44350579380989075
1776442874238591200,32.49959130859375,-0.33443790674209595,-0.9430269598960876,0.9929779767990112
1776442874278618400,32.539618408203125,-0.5193188190460205,-1.5611423254013062,1.214370608329773
1776442874318644200,32.579644287109375,-0.4760701358318329,-1.7999541759490967,1.3467179536819458
1776442874358671000,32.61967114257813,-1.2658454179763794,-1.9595280885696411,0.6532062888145447
1776442874398698200,32.6596982421875,-0.7187623977661133,-0.8937888145446777,-0.030787473544478416
1776442874438724400,32.699724365234374,0.23337413370609283,-0.742008626461029,-0.33089563250541687
1776442874478751200,32.73975122070313,0.21660740673542023,0.02275138534605503,-0.3304993510246277
1776442874518779400,32.779779296875,0.07034793496131897,0.5600910186767578,0.5601722002029419
1776442874558805200,32.81980517578125,-0.05032229423522949,0.49393168091773987,0.702351450920105
1776442874598832400,32.85983227539062,0.3095325529575348,0.7665627002716064,1.1015665531158447
1776442874638858200,32.89985815429687,-0.02087305672466755,0.9080145955085754,1.4793809652328491
1776442874678885000,32.939885009765625,-0.06442879140377045,1.0441112518310547,1.8636220693588257
1776442874718912300,32.97991235351562,0.1987820714712143,1.48694908618927,1.9803396463394165
1776442874758938400,33.0199384765625,0.23441170156002045,1.4494584798812866,2.123997449874878
1776442874798965200,33.05996533203125,-0.22011612355709076,0.46944737434387207,1.6824655532836914
1776442874838991400,33.099991455078126,-0.27478522062301636,0.13288401067256927,1.1910220384597778
1776442874879018200,33.14001831054688,0.17679208517074585,0.35894644260406494,1.116261601448059
1776442874919045000,33.180045166015624,0.08519372344017029,-0.03887549415230751,0.9957447648048401
1776442874959071500,33.220071533203125,-0.39286231994628906,0.16279184818267822,0.8897922039031982
1776442874999098400,33.26009838867188,-0.005110606085509062,0.20755451917648315,1.0408384799957275
1776442875039124200,33.30012426757813,0.14514094591140747,-0.0034969968255609274,1.2330105304718018
1776442875079151400,33.3401513671875,-0.07583777606487274,0.29636695981025696,2.2405242919921875
1776442875119178200,33.38017822265625,0.2330486923456192,0.24807797372341156,2.02042818069458
1776442875159204400,33.42020434570313,0.29251229763031006,0.6787217855453491,1.1959340572357178
1776442875199231500,33.4602314453125,-0.2245369702577591,0.48361700773239136,1.8965048789978027
1776442875239258400,33.50025830078125,-0.0071157002821564674,0.5238794684410095,3.2498438358306885
1776442875279284200,33.5402841796875,-0.36887869238853455,0.3592529594898224,2.7003955841064453
1776442875319311400,33.58031127929687,-0.6578244566917419,0.6981236934661865,2.40073299407959
1776442875359337200,33.62033715820313,-0.10748118907213211,0.5759844779968262,2.8581159114837646
1776442875399364400,33.6603642578125,0.5709319114685059,0.41150417923927307,2.6986896991729736
1776442875439391500,33.7003916015625,0.5819803476333618,0.47685202956199646,2.0495948791503906
1776442875479417300,33.74041723632813,0.5191931128501892,0.3502538800239563,1.7333277463912964
1776442875519443700,33.78044360351562,0.5997539758682251,0.08917488157749176,1.3824522495269775
1776442875559469800,33.8204697265625,0.7165453433990479,-0.2064700871706009,1.2605721950531006
1776442875599496700,33.86049658203125,0.25961264967918396,0.5001259446144104,1.2951730489730835
1776442875639523800,33.90052392578125,0.4676116704940796,0.21928921341896057,1.2586623430252075
1776442875679549700,33.9405498046875,0.7093800902366638,0.22780120372772217,0.9648680686950684
1776442875719576600,33.98057666015625,0.5060179233551025,-0.4983557462692261,1.1797497272491455
1776442875759602400,34.0206025390625,0.4966915249824524,-0.012561331503093243,1.5703259706497192
1776442875799629600,34.06062963867188,0.6691581010818481,0.48675739765167236,2.219130277633667
1776442875839656700,34.10065673828125,0.8290827870368958,0.9820366501808167,2.361191987991333
1776442875879682600,34.1406826171875,0.5025962591171265,0.43489259481430054,2.2008752822875977
1776442875919709700,34.180709716796876,0.20641069114208221,0.1717352718114853,1.9889743328094482
1776442875959735600,34.220735595703125,-0.06697051227092743,-0.5379891395568848,2.0081288814544678
1776442875999762700,34.2607626953125,-0.35901036858558655,0.026016153395175934,0.8901075124740601
1776442876039789600,34.30078955078125,-0.04604019597172737,0.1171463280916214,0.9388396739959717
1776442876079815700,34.340815673828125,-0.27343207597732544,-0.1014440655708313,0.822778046131134
1776442876119842800,34.3808427734375,-0.12849698960781097,0.7319490313529968,0.8399540781974792
1776442876159869700,34.42086962890625,0.06655825674533844,1.3048253059387207,0.7287958860397339
1776442876199895600,34.4608955078125,-0.11195236444473267,0.12261832505464554,0.7248650193214417
1776442876239922700,34.50092260742188,-0.18610861897468567,-0.1528601199388504,0.5643890500068665
1776442876279948800,34.54094873046875,-0.6342475414276123,-0.8574497103691101,0.8547772169113159
1776442876319975700,34.5809755859375,-0.5125147104263306,-0.3719528019428253,1.0644015073776245
1776442876360002800,34.6210029296875,-0.04806233569979668,0.12843334674835205,1.123516321182251
1776442876400028700,34.661028564453126,0.20013655722141266,0.08660360425710678,0.9444732666015625
1776442876440055600,34.7010556640625,0.31848129630088806,-0.11931414157152176,0.9293792843818665
1776442876480081700,34.74108154296875,0.8094035983085632,0.3202823996543884,0.8951278328895569
1776442876520108300,34.7811083984375,0.8451126217842102,0.6932376027107239,0.4671056568622589
1776442876560135200,34.82113525390625,0.8283517360687256,0.7225340008735657,0.4507131278514862
1776442876600161000,34.8611611328125,0.9048012495040894,0.3075905740261078,0.13047252595424652
1776442876640188200,34.90118823242187,0.6271757483482361,-0.10983461886644363,0.31276750564575195
1776442876680214300,34.94121435546875,0.48547616600990295,0.46035295724868774,0.5290822386741638
1776442876720241200,34.9812412109375,-0.16036251187324524,0.8417948484420776,0.6494278311729431
1776442876760268300,35.02126831054687,0.2412315309047699,1.2793465852737427,0.926859438419342
1776442876800294100,35.06129418945312,1.007572889328003,1.1275080442428589,0.6490091681480408
1776442876840321000,35.101321044921875,0.954073965549469,0.6085304617881775,0.6200011968612671
1776442876880347100,35.14134716796875,1.0501635074615479,0.7631698250770569,0.11191641539335251
1776442876920374300,35.18137426757813,0.5764968991279602,-0.13955390453338623,0.289981484413147
1776442876960401200,35.221401123046874,0.5864754915237427,-0.01076795905828476,0.5776953101158142
1776442877000427300,35.26142724609375,0.6786869168281555,0.8268142938613892,0.10051488876342773
1776442877040454100,35.3014541015625,0.6298921704292297,0.24386939406394958,0.32560205459594727
1776442877080480000,35.34147998046875,0.43349364399909973,0.7142752408981323,1.0346958637237549
1776442877120507100,35.38150708007812,0.024467792361974716,0.8970205783843994,1.955052137374878
1776442877160534000,35.421533935546876,-0.16957971453666687,1.3805898427963257,1.7163079977035522
1776442877200560000,35.46156005859375,0.43740129470825195,0.263002872467041,1.594468116760254
1776442877240587300,35.50158715820312,1.0638004541397095,0.05523422732949257,1.6459068059921265
1776442877280613000,35.54161303710937,1.295753836631775,-0.08770162612199783,1.2306022644042969
1776442877320640000,35.581639892578124,1.8347080945968628,-0.6318480372428894,0.9769744873046875
1776442877360667100,35.62166723632812,1.275723934173584,0.09743201732635498,0.5873492360115051
1776442877400693200,35.661693359375,0.9249653816223145,0.4536532461643219,0.46034255623817444
1776442877440720100,35.70172021484375,1.3839428424835205,-0.17065322399139404,1.2782461643218994
1776442877480746200,35.741746337890625,1.1054539680480957,-0.2681313157081604,1.6379878520965576
1776442877520773000,35.78177319335938,0.815759003162384,-0.7345147132873535,2.2771623134613037
1776442877560800000,35.82180004882812,1.4928929805755615,-0.6962669491767883,2.169194459915161
1776442877600826400,35.861826416015624,0.6271557807922363,-2.153714418411255,2.1865034103393555
1776442877640853200,35.90185327148438,-0.19304296374320984,-1.084904432296753,1.6306124925613403
1776442877680879000,35.941879150390626,1.4413567781448364,-0.1693219095468521,1.6135855913162231
1776442877720906200,35.98190625,0.9222678542137146,-1.1315102577209473,1.3822107315063477
1776442877760933000,36.02193310546875,0.5009983777999878,-0.744701087474823,0.7801117897033691
1776442877800959200,36.061959228515626,-0.17102447152137756,0.7456243634223938,1.974255084991455
1776442877840986400,36.101986328125,0.662825345993042,-0.6082385778427124,2.8001179695129395
1776442877881012200,36.14201220703125,1.28058660030365,-1.6874984502792358,2.7238409519195557
1776442877921039000,36.1820390625,1.123064637184143,-1.1705658435821533,1.3713798522949219
1776442877961066200,36.22206616210938,0.495527982711792,1.4742990732192993,0.5086536407470703
1776442878001092000,36.26209204101563,1.180015206336975,1.1940141916275024,0.5445114970207214
1776442878041119000,36.30211889648437,0.3504070043563843,-0.02346191555261612,0.4731009900569916
1776442878081145000,36.34214501953125,0.3474285304546356,0.3170783519744873,-0.33163467049598694
1776442878121172200,36.38217211914063,0.20870740711688995,0.3042384684085846,0.2669011950492859
1776442878161199000,36.42219921875,-0.12201005965471268,0.15813398361206055,0.4840737283229828
1776442878201225000,36.46222485351562,-0.36143118143081665,-1.659239649772644,0.12452860921621323
1776442878241252000,36.502252197265626,-0.15780986845493317,-0.7820249795913696,-0.0931621715426445
1776442878281279000,36.54227905273437,0.33437052369117737,-0.09475979954004288,0.6625633239746094
1776442878321305300,36.58230541992187,0.2849041819572449,0.7962313890457153,-0.09394300729036331
1776442878361332200,36.622332275390626,-0.1164267435669899,0.0747501403093338,0.07466971129179001
1776442878401358000,36.662358154296875,0.14153476059436798,-0.4869382381439209,-0.11788882315158844
1776442878441385200,36.70238525390625,0.6800107359886169,-0.47323891520500183,-0.24600285291671753
1776442878481411300,36.74241137695312,0.5606188178062439,-0.24337589740753174,0.39162343740463257
1776442878521438700,36.78243872070313,0.36509355902671814,-0.6390779614448547,0.8827550411224365
1776442878561465600,36.82246557617187,0.273649126291275,-0.3394095003604889,0.9443526268005371
1776442878601491500,36.86249145507813,0.5002955794334412,-0.057381000369787216,0.912367045879364
1776442878641518600,36.9025185546875,0.7761183977127075,-0.4068329930305481,1.467528223991394
1776442878681545500,36.94254541015625,0.900861918926239,0.21414877474308014,1.5111297369003296
1776442878721571300,36.9825712890625,0.8765243291854858,0.1180344969034195,1.487641453742981
1776442878761598500,37.022598388671874,0.6572598814964294,-0.1788720190525055,1.7234809398651123
1776442878801624600,37.06262451171875,0.5207902193069458,0.07844420522451401,1.527762532234192
1776442878841651500,37.1026513671875,0.27118808031082153,-0.3792940676212311,1.6331491470336914
1776442878881678600,37.1426787109375,-0.03629142791032791,-0.2593037486076355,1.0950663089752197
1776442878921704400,37.18270434570312,-0.19869844615459442,-0.6806120872497559,1.097293496131897
1776442878961731300,37.2227314453125,-0.4253752529621124,-0.6092369556427002,1.3610979318618774
1776442879001757700,37.2627578125,-0.7404645085334778,-0.8333579301834106,1.6281986236572266
1776442879041784600,37.30278466796875,0.0928143560886383,-0.43086883425712585,1.4809370040893555
1776442879081811500,37.3428115234375,0.27570775151252747,-0.2397284358739853,1.940933346748352
1776442879121837600,37.382837646484376,0.21553654968738556,-0.3241160213947296,1.7527130842208862
1776442879161864400,37.42286450195313,-0.005317267496138811,-0.358311265707016,1.3638644218444824
1776442879201890600,37.462890625,-0.08143600076436996,-0.6195048093795776,1.5095592737197876
1776442879241917700,37.502917724609375,-0.5819718241691589,-1.2507543563842773,1.125257134437561
1776442879281944600,37.54294458007813,-0.4306648373603821,-0.6907153129577637,0.7812577486038208
1776442879321970400,37.58297045898438,-0.4740605056285858,-0.5161717534065247,0.893247663974762
1776442879361997600,37.62299755859375,-0.3231375813484192,-0.8085530400276184,0.7222180962562561
1776442879402023700,37.663023681640624,-0.29728493094444275,-0.5746406316757202,0.25178882479667664
1776442879442050600,37.70305053710938,-0.024599086493253708,-0.19441555440425873,0.3076654076576233
1776442879482077700,37.74307763671875,-0.03139999881386757,-0.4298112988471985,0.4514864981174469
1776442879522103600,37.783103515625,-0.5569514036178589,-0.2802305817604065,0.4472363591194153
1776442879562130700,37.823130615234376,-0.30305254459381104,0.13053137063980103,0.34247025847435
1776442879602156500,37.863156494140625,0.6076012849807739,0.7477911114692688,1.0031523704528809
1776442879642183400,37.90318334960938,0.25608691573143005,0.7428232431411743,1.1082075834274292
1776442879682210600,37.94321044921875,0.10483214259147644,0.544314980506897,0.9631178379058838
1776442879722236700,37.983236572265625,0.1683320254087448,0.06849437206983566,1.1463561058044434
1776442879762263600,38.023263671875,0.378593385219574,0.35417619347572327,1.253757357597351
1776442879802289400,38.06328930664063,0.5616348385810852,0.5295485258102417,1.9272319078445435
1776442879842316500,38.103316650390624,0.4223184883594513,-0.12753984332084656,1.1088265180587769
1776442879882343400,38.14334350585938,0.29204729199409485,-0.02062991075217724,0.9217720031738281
1776442879922369500,38.18336962890625,0.511300265789032,0.3303065299987793,1.2470755577087402
1776442879962396700,38.223396728515624,0.4860908091068268,0.4133138060569763,0.804860532283783
1776442880002422500,38.26342260742187,0.1563054472208023,0.24977734684944153,1.0649722814559937
1776442880042449400,38.303449462890626,0.23490412533283234,0.10924499481916428,1.0467793941497803
1776442880082476500,38.3434765625,0.5380219221115112,-0.12435630708932877,1.5313814878463745
1776442880122502700,38.38350268554687,-0.09335551410913467,-0.41575300693511963,2.4989006519317627
1776442880162529500,38.423529541015625,-0.4917268455028534,-0.0006849650526419282,2.3551690578460693
1776442880202555600,38.4635556640625,0.0010255833622068167,0.2946356236934662,1.9335614442825317
1776442880242582500,38.50358251953125,0.3549479842185974,-0.13774028420448303,1.6032967567443848
1776442880282609400,38.543609375,0.07326595485210419,-0.26910391449928284,1.2891124486923218
1776442880322635800,38.5836357421875,0.10380895435810089,-0.0764942392706871,1.3958532810211182
1776442880362662700,38.62366259765625,0.04077592492103577,0.007544735446572304,1.5105433464050293
1776442880402688500,38.6636884765625,0.2537686228752136,0.14207032322883606,0.9849250912666321
1776442880442715600,38.703715576171874,0.10325794667005539,-0.10847507417201996,0.8217085003852844
1776442880482742500,38.74374243164063,0.15251949429512024,-0.265247106552124,1.1926923990249634
1776442880522768400,38.783768310546876,-0.2720770537853241,-0.45997560024261475,1.8513855934143066
1776442880562795500,38.82379541015625,-0.2688533067703247,-0.02967160940170288,1.6295496225357056
1776442880602821400,38.8638212890625,0.024447552859783173,0.1228548139333725,1.5246371030807495
1776442880642848500,38.9038486328125,0.14735670387744904,0.1179809644818306,1.5113087892532349
1776442880682875400,38.94387548828125,0.0738031193614006,0.13570350408554077,1.6436049938201904
1776442880722901200,38.9839013671875,0.09500640630722046,0.3006439805030823,1.9919869899749756
1776442880762928400,39.023928466796875,0.3247189521789551,0.5543678402900696,2.007652997970581
1776442880802954500,39.06395458984375,0.492088258266449,0.4411017596721649,1.5591588020324707
1776442880842981400,39.1039814453125,0.4910466969013214,0.3312186598777771,1.4057629108428955
1776442880883008500,39.144008544921874,0.2432350218296051,0.18021877110004425,1.7771369218826294
1776442880923034400,39.18403442382812,0.2159418761730194,0.018222413957118988,1.6858330965042114
1776442880963061200,39.224061279296876,-0.05933123454451561,-0.1492328941822052,1.9459813833236694
1776442881003087600,39.26408764648438,0.14625868201255798,-0.27949637174606323,1.9841785430908203
1776442881043114500,39.30411450195312,0.10037853568792343,0.08617483079433441,1.9119610786437988
1776442881083141400,39.344141357421876,0.10892514884471893,0.391030877828598,2.015475034713745
1776442881123167500,39.38416748046875,-0.15644820034503937,0.9493364691734314,0.5710911750793457
1776442881163194400,39.4241943359375,-0.6379075050354004,-0.22798123955726624,0.4498308002948761
