time,seconds_elapsed,z,y,x
1776442841845856800,0.106856689453125,1.0853859186172485,-0.27087846398353577,-0.25262922048568726
1776442841870872800,0.131872802734375,1.2883557081222534,0.548529326915741,-0.03222361207008362
1776442841895889700,0.1568896484375,1.8352892398834229,0.5306679606437683,0.11544962972402573
1776442841920905500,0.181905517578125,2.4371159076690674,0.4397209584712982,0.1511799842119217
1776442841945922600,0.206922607421875,2.6864538192749023,1.0295644998550415,0.25316715240478516
1776442841970938600,0.231938720703125,2.70800518989563,0.7796363830566406,0.2504462003707886
1776442841995955700,0.256955810546875,2.4794070720672607,0.6943588256835938,0.2500809133052826
1776442842020971800,0.2819716796875,2.223463535308838,0.8701286315917969,0.15394368767738342
1776442842045988900,0.30698876953125,2.029472827911377,0.8886991739273071,0.027843903750181198
1776442842071004700,0.332004638671875,1.8343777656555176,0.7433291673660278,0.12475055456161499
1776442842096021800,0.357021728515625,1.6970540285110474,0.9324527978897095,0.08277259021997452
1776442842121037800,0.382037841796875,1.5797452926635742,0.8535041809082031,-0.10450028628110886
1776442842146054700,0.4070546875,1.3976011276245117,0.6600958108901978,-0.4189540147781372
1776442842171070700,0.43207080078125,1.1255486011505127,0.5419712066650391,-0.5172133445739746
1776442842196087600,0.457087646484375,0.8554357290267944,0.5367827415466309,-0.6386409997940063
1776442842221103600,0.482103515625,0.9992859959602356,0.1726786196231842,-0.7837012410163879
1776442842246120700,0.50712060546875,0.975822389125824,-0.18993012607097626,-0.6844486594200134
1776442842271136800,0.53213671875,0.5339913368225098,-0.22765234112739563,-0.4413042962551117
1776442842296153900,0.55715380859375,-0.19746610522270203,-0.47103285789489746,-0.1741756945848465
1776442842321169700,0.582169677734375,0.1275634616613388,-1.7668230533599854,0.1321784257888794
1776442842346186800,0.607186767578125,1.14139986038208,-0.49947118759155273,0.1224113181233406
1776442842371202800,0.632202880859375,1.296003818511963,-0.10878641903400421,0.18517424166202545
1776442842396219000,0.657218994140625,0.844238817691803,0.5703653693199158,0.48222896456718445
1776442842421235700,0.682235595703125,0.6498247385025024,0.6120066046714783,0.6594054698944092
1776442842446251500,0.70725146484375,1.0350455045700073,0.8127877712249756,0.45147544145584106
1776442842471268400,0.732268310546875,1.3655409812927246,0.661629319190979,0.46403780579566956
1776442842496284400,0.757284423828125,1.2241110801696777,0.3655185103416443,0.4727606475353241
1776442842521301500,0.782301513671875,0.7914649248123169,0.025892045348882675,0.26425015926361084
1776442842546317300,0.8073173828125,0.5500134229660034,-0.10276711732149124,0.12482213228940964
1776442842571334400,0.83233447265625,0.6467261910438538,-0.16681602597236633,-0.1344957798719406
1776442842596350500,0.8573505859375,0.9360336661338806,-0.1552375853061676,-0.29998987913131714
1776442842621367600,0.882367431640625,1.144076943397522,-0.1456872969865799,-0.32892942428588867
1776442842646383600,0.907383544921875,0.7887156009674072,0.07304461300373077,-0.35875076055526733
1776442842671400200,0.932400146484375,0.7861580848693848,-0.03989540785551071,-0.2263253927230835
1776442842696416300,0.957416259765625,1.2866014242172241,-0.09591937065124512,-0.07392381131649017
1776442842721433300,0.982433349609375,1.4240715503692627,0.05400665104389191,-0.12767788767814636
1776442842746449400,1.007449462890625,1.1034340858459473,0.3220992088317871,-0.3259263038635254
1776442842771466500,1.032466552734375,1.0481853485107422,0.019845806062221527,-0.4769934415817261
1776442842796482300,1.057482421875,1.3201435804367065,-0.20682266354560852,-0.4632568061351776
1776442842821499400,1.08249951171875,1.4669991731643677,0.164712592959404,-0.29150494933128357
1776442842846515500,1.107515380859375,1.5444589853286743,0.09098753333091736,-0.22483587265014648
1776442842871532500,1.132532470703125,1.6793413162231445,0.09209402650594711,-0.28385117650032043
1776442842896548600,1.157548583984375,1.5366778373718262,0.10182837396860123,-0.45118921995162964
1776442842921565200,1.182565185546875,1.4829223155975342,0.0775059387087822,-0.5440378189086914
1776442842946581200,1.207581298828125,1.5343968868255615,0.03433586657047272,-0.5683125853538513
1776442842971598300,1.232598388671875,1.6149357557296753,-0.30657196044921875,-0.6105369329452515
1776442842996614400,1.257614501953125,1.6975399255752563,-0.39542391896247864,-0.4898497760295868
1776442843021631500,1.282631591796875,1.6973686218261719,-0.2807290256023407,-0.19365815818309784
1776442843046647300,1.307647216796875,1.6697355508804321,-0.014825128018856049,-0.073666051030159
1776442843071664400,1.332664306640625,1.9659847021102905,0.06466618925333023,0.02913426049053669
1776442843096680400,1.357680419921875,1.9540858268737793,0.4771546423435211,0.2828241288661957
1776442843121697500,1.382697509765625,1.7165930271148682,0.9599515795707703,0.31951743364334106
1776442843146713600,1.407713623046875,1.7552804946899414,0.821755588054657,0.14908255636692047
1776442843171730400,1.43273046875,1.7508195638656616,0.6765446662902832,0.00798359327018261
1776442843196746200,1.457746337890625,1.7407095432281494,0.5182013511657715,-0.16246788203716278
1776442843221763300,1.482763427734375,1.6575543880462646,0.23331257700920105,-0.478196382522583
1776442843246779400,1.507779296875,1.4339622259140015,0.17448580265045166,-0.7436165809631348
1776442843271796500,1.53279638671875,1.1541260480880737,0.011777977459132671,-0.6283470988273621
1776442843296812300,1.557812255859375,1.2060184478759766,-0.09022895246744156,-0.14183218777179718
1776442843321829400,1.582829345703125,1.3600512742996216,-0.09213282912969589,-0.011930376291275024
1776442843346845400,1.607845458984375,0.991832435131073,-0.2339470237493515,-0.28345760703086853
1776442843371862500,1.632862548828125,0.3507981598377228,-0.7590630650520325,-0.5881063938140869
1776442843396878600,1.657878662109375,0.33910098671913147,-0.7353911995887756,-0.3331359922885895
1776442843421895400,1.6828955078125,0.2688814699649811,-0.36900392174720764,-0.1299089789390564
1776442843446911200,1.7079111328125,0.45861703157424927,-0.6980754137039185,0.0003959042951464653
1776442843471928800,1.7329287109375,0.7253398299217224,-0.5466836094856262,0.2779700458049774
1776442843496945000,1.75794482421875,0.5516383051872253,0.17254196107387543,0.22581960260868073
1776442843521962000,1.7829619140625,0.5284793376922607,-0.04843006283044815,-0.20517794787883759
1776442843546977800,1.807977783203125,0.739736020565033,-0.48924553394317627,-0.5579748749732971
1776442843571993900,1.832993896484375,0.5601721405982971,-0.3103906810283661,-0.24644942581653595
1776442843597011000,1.858010986328125,0.5880410075187683,0.10485822707414627,0.18653813004493713
1776442843622027800,1.88302783203125,0.3087579905986786,0.21677879989147186,0.26289820671081543
1776442843647043600,1.908043701171875,0.23584982752799988,-0.444577157497406,0.09730103611946106
1776442843672060700,1.933060791015625,0.41566458344459534,-0.7426173090934753,-0.09082915633916855
1776442843697076700,1.95807666015625,0.41963109374046326,0.03569461777806282,0.025583069771528244
1776442843722093800,1.98309375,0.516253650188446,0.32989346981048584,0.30330896377563477
1776442843747110000,2.00810986328125,0.41601723432540894,0.23495104908943176,0.3841007649898529
1776442843772127000,2.033126953125,0.297586590051651,0.07855631411075592,0.3276126980781555
1776442843797142800,2.058142822265625,0.417980432510376,-0.008640085346996784,0.14878109097480774
1776442843822160000,2.083159912109375,0.8067246675491333,0.7008668184280396,-0.17776663601398468
1776442843847176000,2.108176025390625,1.0163798332214355,0.6483007073402405,-0.43408429622650146
1776442843872192800,2.13319287109375,1.0219087600708008,0.3636101186275482,-0.36947959661483765
1776442843897208800,2.158208740234375,0.821172297000885,-0.28226208686828613,-0.04373554885387421
1776442843922225700,2.1832255859375,0.8212810754776001,-0.5379237532615662,0.12369070202112198
1776442843947241700,2.20824169921875,1.063859462738037,-0.36986762285232544,0.10477738082408905
1776442843972258800,2.2332587890625,1.3336782455444336,-0.5638483166694641,-0.0879305750131607
1776442843997275000,2.25827490234375,1.2119380235671997,-1.1686676740646362,-0.21371476352214813
1776442844022292000,2.2832919921875,0.779439389705658,-0.8939521908760071,0.09271448850631714
1776442844047307800,2.308307861328125,0.5325556397438049,0.017090268433094025,0.5613150000572205
1776442844072324900,2.333324951171875,0.7286422848701477,0.9949404001235962,0.4814293384552002
1776442844097341000,2.3583408203125,0.9493004083633423,0.9244417548179626,0.0015328614972531796
1776442844122357800,2.383357666015625,1.1245890855789185,1.2216616868972778,-0.38458263874053955
1776442844147373800,2.408373779296875,1.1899923086166382,0.8657110333442688,-0.367590069770813
1776442844172391000,2.433390869140625,1.0611363649368286,0.15861164033412933,-0.29556381702423096
1776442844197406700,2.45840673828125,1.3433372974395752,0.37068745493888855,-0.5380945205688477
1776442844222423800,2.483423828125,1.6926803588867188,0.6123889684677124,-0.6794196963310242
1776442844247440000,2.50843994140625,2.0962860584259033,0.1214507594704628,-0.5858117938041687
1776442844272457000,2.53345703125,2.0832021236419678,-0.2210901975631714,-0.3466523289680481
1776442844297472800,2.55847265625,2.1424922943115234,0.05182633176445961,-0.011953865177929401
1776442844322489900,2.58348974609375,2.051286458969116,0.31103232502937317,0.021813418716192245
1776442844347506000,2.608505859375,1.9449154138565063,-0.12604378163814545,-0.34960150718688965
1776442844372522800,2.633522705078125,1.9961172342300415,-1.040543794631958,-0.25525110960006714
1776442844397538800,2.658538818359375,1.7870713472366333,-0.9805566668510437,-0.048140816390514374
1776442844422556000,2.683555908203125,1.6025049686431885,-0.17310693860054016,0.08435509353876114
1776442844447571700,2.70857177734375,1.5363365411758423,0.252735435962677,0.28030940890312195
1776442844472588000,2.733588134765625,0.9503376483917236,-0.02713846042752266,0.379893034696579
1776442844497604000,2.75860400390625,0.9611035585403442,0.22815246880054474,0.24074144661426544
1776442844522621000,2.783620849609375,1.4469202756881714,0.5944538712501526,0.046016305685043335
1776442844547637000,2.808636962890625,1.8607219457626343,0.4881191849708557,0.00815688818693161
1776442844572654000,2.833654052734375,1.6416821479797363,0.15845268964767456,-0.011184904724359512
1776442844597670100,2.858670166015625,1.6879702806472778,-0.027601340785622597,0.09672531485557556
1776442844622687000,2.88368701171875,1.8678430318832397,-0.1372782588005066,0.000002074986696243286
1776442844647703000,2.908703125,1.7174803018569946,-0.33911246061325073,-0.14669500291347504
1776442844672720000,2.933719970703125,1.615175485610962,-0.590738832950592,-0.1742383986711502
1776442844697736000,2.95873583984375,1.598544955253601,-0.6752887964248657,-0.01185745932161808
1776442844722753000,2.9837529296875,1.2014167308807373,-0.7194624543190002,0.29623520374298096
1776442844747769000,3.00876904296875,1.0401893854141235,-0.4034700393676758,0.33631688356399536
1776442844772786200,3.0337861328125,1.3707038164138794,-0.35475048422813416,0.13316284120082855
1776442844797802000,3.058802001953125,1.6823532581329346,-0.14150670170783997,-0.19179946184158325
1776442844822819000,3.083819091796875,1.1187334060668945,-0.524880051612854,0.040561750531196594
1776442844847835100,3.108835205078125,0.7658388018608093,-0.4256137013435364,-0.2167361080646515
1776442844872852000,3.13385205078125,1.0486726760864258,-0.3280147910118103,-0.6526417136192322
1776442844897869000,3.158869140625,0.7566314935684204,-0.5167188048362732,-0.5761094689369202
1776442844922884900,3.183884765625,0.7685072422027588,-0.5810028910636902,-0.35398828983306885
1776442844947902000,3.20890185546875,1.035597801208496,0.1636396050453186,-0.13358518481254578
1776442844972918000,3.23391796875,1.6529265642166138,0.35339275002479553,0.2924465835094452
1776442844997935000,3.25893505859375,1.969812035560608,-1.159340500831604,1.0106061697006226
1776442845022951200,3.283951171875,1.472604751586914,-1.683347225189209,0.9314674735069275
1776442845047968300,3.30896826171875,1.1144990921020508,-0.8873826265335083,0.3120187819004059
1776442845072984000,3.333984130859375,1.3408894538879395,-0.17320291697978973,-0.015093255788087845
1776442845098001000,3.3590009765625,1.3986320495605469,0.7368025779724121,0.17125901579856873
1776442845123017000,3.384016845703125,1.6705254316329956,0.570456862449646,0.14546163380146027
1776442845148034000,3.409033935546875,1.8143582344055176,0.35290902853012085,0.11715434491634369
1776442845173049900,3.4340498046875,1.6538760662078857,-0.004134342074394226,0.06893302500247955
1776442845198067000,3.45906689453125,1.3007714748382568,-0.13895156979560852,0.041029565036296844
1776442845223083000,3.4840830078125,1.5095252990722656,0.34776929020881653,0.11207271367311478
1776442845248100000,3.50910009765625,1.8061892986297607,0.672697126865387,0.07987336814403534
1776442845273116200,3.5341162109375,1.820225477218628,0.5073164105415344,-0.16941067576408386
1776442845298133200,3.55913330078125,2.054647922515869,-0.33178696036338806,0.13218872249126434
1776442845323149000,3.584149169921875,2.3246982097625732,-1.3659331798553467,0.24792762100696564
1776442845348166000,3.609165771484375,2.423374652862549,-1.2172682285308838,0.04411134123802185
1776442845373183000,3.634182861328125,2.5695643424987793,-0.6249702572822571,-0.1801842600107193
1776442845398199000,3.659198974609375,2.036186695098877,-0.4186990261077881,-0.17157351970672607
1776442845423216000,3.684216064453125,1.7818962335586548,-0.1564767211675644,0.15928936004638672
1776442845448232000,3.70923193359375,1.714983344078064,0.07104852795600891,0.41488897800445557
1776442845473249300,3.734249267578125,1.7803252935409546,-0.31830066442489624,0.23646941781044006
1776442845498265300,3.759265380859375,2.0235912799835205,-0.5687931180000305,0.3925374746322632
1776442845523282200,3.7842822265625,2.109649658203125,-0.24372857809066772,0.6152567863464355
1776442845548298200,3.80929833984375,1.963234782218933,-0.2673160433769226,0.34966912865638733
1776442845573315000,3.834315185546875,1.911700963973999,-0.4954182505607605,0.2575952708721161
1776442845598331100,3.8593310546875,1.8699527978897095,-0.2527577877044678,0.6836660504341125
1776442845623348200,3.88434814453125,1.8343778848648071,-0.0872667208313942,0.5772398710250854
1776442845648364300,3.9093642578125,1.701617956161499,-0.6215183734893799,-0.03462895378470421
1776442845673381000,3.934381103515625,1.7978055477142334,-0.7246928215026855,-0.0493074432015419
1776442845698397200,3.959397216796875,1.7957128286361694,-0.13129009306430817,0.21107816696166992
1776442845723414300,3.984414306640625,1.4988903999328613,0.364871621131897,0.3411170244216919
1776442845748431000,4.00943115234375,1.3863661289215088,0.20606450736522675,0.23018209636211395
1776442845773447200,4.034447265625,1.5386356115341187,0.06160076707601547,0.20183905959129333
1776442845798464300,4.05946435546875,1.3715674877166748,-0.17529907822608948,0.6003541350364685
1776442845823480000,4.08447998046875,1.3093032836914062,-0.6405253410339355,0.48458927869796753
1776442845848497200,4.1094970703125,1.2925738096237183,-0.3955065608024597,0.15313410758972168
1776442845873513200,4.13451318359375,1.5747014284133911,-0.9124846458435059,-0.15577338635921478
1776442845898530300,4.1595302734375,1.4894466400146484,-0.047160640358924866,0.23226869106292725
1776442845923546400,4.18454638671875,0.9764261841773987,0.41909998655319214,0.4601685702800751
1776442845948563200,4.209563232421875,0.8941555023193359,0.09537632018327713,0.3743906021118164
1776442845973579300,4.234579345703125,0.8570138812065125,0.02883826196193695,0.1861453652381897
1776442845998596000,4.25959619140625,0.8105069994926453,0.3727841377258301,0.08349401503801346
1776442846023612200,4.284612060546875,1.0884634256362915,0.4178662896156311,0.3417190611362457
1776442846048629200,4.309629150390625,1.7625681161880493,0.10071665048599243,0.7740841507911682
1776442846073645000,4.33464501953125,2.0689330101013184,-0.49036940932273865,0.6594669818878174
1776442846098662100,4.359662109375,1.8127987384796143,-0.4601525366306305,0.030103038996458054
1776442846123679200,4.38467919921875,1.4458045959472656,0.21800965070724487,-0.11983295530080795
1776442846148695300,4.4096953125,1.4626857042312622,0.46901270747184753,-0.20417407155036926
1776442846173712100,4.434712158203125,1.6870156526565552,0.5796502232551575,-0.30006659030914307
1776442846198728200,4.459728271484375,1.8970751762390137,0.9663224816322327,-0.5351869463920593
1776442846223745000,4.4847451171875,2.267152786254883,0.370866060256958,-0.2786068022251129
1776442846248761000,4.509760986328125,2.221017837524414,-0.23196586966514587,-0.11490053683519363
1776442846273778200,4.534778076171875,2.1970772743225098,-0.3528880476951599,-0.039283838123083115
1776442846298794200,4.559794189453125,1.9341332912445068,-0.2444605976343155,0.18281662464141846
1776442846323811300,4.584811279296875,1.6975576877593994,-0.018975049257278442,0.23258282244205475
1776442846348827100,4.6098271484375,2.025956630706787,-0.08728296309709549,0.31130439043045044
1776442846373844200,4.63484423828125,2.536478281021118,-0.2959038317203522,0.5257375240325928
1776442846398860300,4.6598603515625,2.6961827278137207,-0.037590526044368744,0.6467714309692383
1776442846423877000,4.684877197265625,2.301361322402954,0.46905145049095154,0.5334534049034119
1776442846448894200,4.709894287109375,1.7877798080444336,0.9133984446525574,0.3144798278808594
1776442846473910800,4.734910888671875,1.7749431133270264,0.6947140693664551,0.15834510326385498
1776442846498927900,4.759927978515625,1.9430265426635742,0.3746141195297241,0.11739200353622437
1776442846523943700,4.784943603515625,2.0765371322631836,0.46573618054389954,0.1887093484401703
1776442846548960800,4.809960693359375,2.05684494972229,0.19000399112701416,0.14147190749645233
1776442846573976800,4.834976806640625,1.760574460029602,0.11956819891929626,0.028136400505900383
1776442846598993700,4.85999365234375,1.9069056510925293,0.4069673418998718,0.04363240301609039
1776442846624009700,4.885009765625,2.3614115715026855,0.36152756214141846,0.14220857620239258
1776442846649026800,4.91002685546875,2.5003368854522705,0.15469792485237122,0.05700308829545975
1776442846674042600,4.935042724609375,2.4263291358947754,-0.0038773934356868267,-0.05542997270822525
1776442846699059700,4.960059814453125,1.9980038404464722,-0.07648125290870667,0.008602914400398731
1776442846724075800,4.98507568359375,1.5662410259246826,0.13516098260879517,0.1279427707195282
1776442846749092900,5.0100927734375,1.5595591068267822,-0.28016194701194763,0.3886032700538635
1776442846774110000,5.03510986328125,1.5731507539749146,-0.26746028661727905,0.7217461466789246
1776442846799125800,5.060125732421875,1.6871705055236816,-0.03958259895443916,0.7849841117858887
1776442846824142600,5.085142578125,1.8798843622207642,-0.40006163716316223,0.6770380735397339
1776442846849158700,5.11015869140625,1.7514070272445679,-0.41512584686279297,0.6999495625495911
1776442846874175700,5.13517578125,1.4835938215255737,-0.11553902179002762,0.7023797631263733
1776442846899191800,5.16019189453125,1.3556917905807495,0.16218911111354828,0.5929322242736816
1776442846924209000,5.185208984375,1.3848081827163696,-0.18961752951145172,0.4213044047355652
1776442846949224700,5.210224609375,1.6216002702713013,0.2687981426715851,-0.007779867388308048
1776442846974241800,5.23524169921875,1.8165949583053589,0.24407188594341278,-0.028477555140852928
1776442846999257900,5.2602578125,1.7477281093597412,-0.13951992988586426,0.2243138700723648
1776442847024275000,5.28527490234375,1.5797967910766602,-0.3834737539291382,0.05875915288925171
1776442847049291000,5.310291015625,1.2016422748565674,-0.5145922899246216,-0.2647459805011749
1776442847074307600,5.3353076171875,1.0696909427642822,-0.6273066997528076,-0.4783804416656494
1776442847099323600,5.36032373046875,1.2251625061035156,-0.5527219772338867,-0.4048505425453186
1776442847124340700,5.3853408203125,1.153049111366272,-0.006527750752866268,-0.1455966979265213
1776442847149357800,5.41035791015625,1.5289112329483032,-0.10132727771997452,-0.1996428370475769
1776442847174374000,5.435373779296875,2.168729305267334,-0.2608601748943329,-0.40727540850639343
1776442847199391000,5.460390869140625,2.1935925483703613,0.06239181384444237,-0.46402880549430847
1776442847224406800,5.48540673828125,2.045313596725464,0.08237772434949875,-0.40791431069374084
1776442847249423600,5.510423583984375,2.1409881114959717,-0.8131693601608276,0.0526062436401844
1776442847274440000,5.53543994140625,2.2422220706939697,-1.0270168781280518,0.729985773563385
1776442847299456800,5.560456787109375,2.391479969024658,-0.3830030858516693,1.1670148372650146
1776442847324472600,5.58547265625,2.427219867706299,-0.0075953067280352116,0.8498239517211914
1776442847349489700,5.61048974609375,2.4517641067504883,0.2983693480491638,0.17716652154922485
1776442847374505700,5.635505615234375,2.676377296447754,0.6716965436935425,0.40446150302886963
1776442847399522800,5.660522705078125,2.999666452407837,1.6119037866592407,0.9279965758323669
1776442847424539000,5.685538818359375,3.045658826828003,2.049086093902588,0.7404395341873169
1776442847449556000,5.710555908203125,3.0920450687408447,1.3735111951828003,0.09653694927692413
1776442847474572800,5.73557275390625,3.4430136680603027,0.5152707099914551,0.009636723436415195
1776442847499588600,5.760588623046875,3.017104387283325,0.35473307967185974,-0.02355092205107212
1776442847524605700,5.785605712890625,2.020158529281616,0.15182141959667206,-0.350768506526947
1776442847549621800,5.810621826171875,1.626321792602539,-0.31791263818740845,-0.28014105558395386
1776442847574638800,5.835638916015625,1.8337608575820923,-0.41009801626205444,-0.03348550200462341
1776442847599655000,5.860655029296875,1.7111197710037231,-0.10224278271198273,-0.18059949576854706
1776442847624672000,5.885672119140625,1.2391899824142456,0.4159190356731415,-0.39289286732673645
1776442847649687800,5.910687744140625,1.3075430393218994,0.45234978199005127,-0.17623788118362427
1776442847674705000,5.935704833984375,1.3082176446914673,0.31899401545524597,-0.28895461559295654
1776442847699721000,5.960720947265625,0.9887546896934509,-0.040243737399578094,-0.4281942546367645
1776442847724737800,5.98573779296875,0.5395032167434692,0.11997650563716888,-0.164995938539505
1776442847749753600,6.010753662109375,0.5641805529594421,0.39453011751174927,0.09131858497858047
1776442847774770700,6.035770751953125,1.045161247253418,-0.04755646735429764,0.09850116819143295
1776442847799787800,6.060787841796875,1.1280832290649414,-0.07228408008813858,0.19611802697181702
1776442847824803800,6.085803955078125,0.693549633026123,0.8234267234802246,0.22856217622756958
1776442847849821000,6.110821044921875,0.4404815137386322,0.906216025352478,0.20745523273944855
1776442847874837000,6.1358369140625,0.3866872489452362,0.5057852268218994,0.02647373452782631
1776442847899853800,6.160853759765625,0.4216499328613281,0.2255614697933197,-0.2895219027996063
1776442847924870000,6.185869873046875,0.41456735134124756,-0.15276788175106049,-0.3836003243923187
1776442847949886700,6.21088671875,0.4588429629802704,-0.2228294312953949,-0.3607207238674164
1776442847974902800,6.23590283203125,0.7391486167907715,-0.4927259683609009,-0.7477247714996338
1776442847999919900,6.260919921875,0.759534478187561,-0.974220871925354,-0.9019054770469666
1776442848024935700,6.285935791015625,0.5570422410964966,-1.113839864730835,-0.5732988119125366
1776442848049952800,6.310952880859375,0.5820242762565613,-0.7069017291069031,-0.11410070955753326
1776442848074968800,6.33596875,0.7203963994979858,-0.4183730483055115,0.5514021515846252
1776442848099986000,6.36098583984375,0.948281466960907,-0.33425089716911316,0.6598265767097473
1776442848125002800,6.386002685546875,1.3618576526641846,-0.38737964630126953,0.5142837166786194
1776442848150018800,6.411018798828125,1.7547504901885986,-0.05293003469705582,0.4602028429508209
1776442848175035600,6.43603564453125,2.0533292293548584,0.08228496462106705,0.4336315095424652
1776442848200051700,6.4610517578125,2.458252429962158,0.46611663699150085,0.6505653858184814
1776442848225068800,6.48606884765625,2.3916265964508057,0.7360595464706421,0.42484769225120544
1776442848250084900,6.5110849609375,2.2109389305114746,0.6116684675216675,0.05942675471305847
1776442848275102000,6.53610205078125,2.5531880855560303,0.5784011483192444,0.110833540558815
1776442848300117800,6.56111767578125,2.8621134757995605,0.6659167408943176,0.1439191997051239
1776442848325134800,6.586134765625,3.0852394104003906,0.023944098502397537,0.0999935194849968
1776442848350151000,6.61115087890625,2.751739025115967,-0.2565018832683563,0.1825374960899353
1776442848375167700,6.636167724609375,2.1435937881469727,-0.3709295094013214,0.10267872363328934
1776442848400184800,6.661184814453125,2.115851402282715,-0.6509743928909302,0.08558059483766556
1776442848425201000,6.686200927734375,2.6087050437927246,-0.7799581289291382,0.299273818731308
1776442848450217700,6.7112177734375,2.7869036197662354,-0.7204291820526123,0.35128945112228394
1776442848475233000,6.73623291015625,2.1973249912261963,-0.7083225250244141,0.10152478516101837
1776442848500250000,6.76125,1.4219461679458618,-0.5287338495254517,-0.14315082132816315
1776442848525266000,6.786265869140625,1.27559494972229,0.20662416517734528,-0.16436295211315155
1776442848550283000,6.811282958984375,1.9012062549591064,-0.22831392288208008,-0.233055979013443
1776442848575299000,6.836299072265625,2.4249300956726074,-0.5454601049423218,-0.3059976100921631
1776442848600316200,6.861316162109375,1.899674892425537,-0.26415351033210754,-0.3116822838783264
1776442848625332200,6.886332275390625,1.1153779029846191,-0.6306329965591431,-0.3788253962993622
1776442848650349000,6.91134912109375,0.9291041493415833,-0.43972092866897583,-0.13186319172382355
1776442848675364900,6.93636474609375,1.1394134759902954,-0.1508675366640091,0.07771044969558716
1776442848700382000,6.9613818359375,1.7744560241699219,0.4300677180290222,0.20168916881084442
1776442848725399000,6.98639892578125,2.10294771194458,0.2958851456642151,0.037465453147888184
1776442848750415000,7.0114150390625,2.021373748779297,0.14900587499141693,-0.35059303045272827
1776442848775432200,7.03643212890625,1.8297168016433716,-0.36500275135040283,-0.373985230922699
1776442848800448000,7.061447998046875,1.412347435951233,-1.2136425971984863,0.00013038329780101776
1776442848825465000,7.086465087890625,1.7278571128845215,-0.9214791059494019,0.27679768204689026
1776442848850481200,7.111481201171875,2.2721621990203857,-0.3631013333797455,0.3548318147659302
1776442848875498000,7.136498046875,2.851180076599121,-0.053535621613264084,0.34639471769332886
1776442848900514000,7.16151416015625,2.8966445922851562,-0.04263089597225189,0.20086431503295898
1776442848925531100,7.18653125,2.51876163482666,-0.4296118915081024,0.2153288871049881
1776442848950547000,7.211546875,2.282047748565674,-0.561642587184906,0.19718754291534424
1776442848975564000,7.23656396484375,2.000060558319092,-0.41620883345603943,-0.12446518987417221
1776442849000581000,7.2615810546875,1.829413890838623,-0.45229506492614746,-0.35401928424835205
1776442849025597200,7.28659716796875,1.655542254447937,-0.644113302230835,-0.12909311056137085
1776442849050614000,7.311614013671875,1.179323434829712,0.4267546236515045,0.20699569582939148
1776442849075629800,7.3366298828125,1.5924346446990967,1.9389054775238037,0.4628646969795227
1776442849100647000,7.36164697265625,1.746607780456543,2.225520372390747,0.7941288352012634
1776442849125663000,7.3866630859375,1.4347413778305054,1.1738882064819336,1.4516545534133911
1776442849150680000,7.41168017578125,1.58220374584198,0.2100006490945816,1.5894526243209839
1776442849175696100,7.436696044921875,1.7481173276901245,-0.4556806683540344,0.6936962604522705
1776442849200713000,7.461712890625,0.9978328943252563,-0.4834848940372467,0.2516826093196869
1776442849225729000,7.48672900390625,0.8848413825035095,0.21626049280166626,0.681773841381073
1776442849250746000,7.51174609375,1.2948824167251587,0.33195698261260986,0.9705668091773987
1776442849275763000,7.536762939453125,1.2600975036621094,-0.1654099076986313,0.8188974857330322
1776442849300779000,7.561779052734375,1.2159956693649292,-0.41833630204200745,0.5364266633987427
1776442849325796000,7.586796142578125,1.3615081310272217,-0.4761516749858856,0.35034435987472534
1776442849350812000,7.61181201171875,1.6056835651397705,-0.30871304869651794,0.25458967685699463
1776442849375829000,7.6368291015625,1.6630243062973022,-0.11308305710554123,0.1730828881263733
1776442849400845000,7.661844970703125,1.828844666481018,-0.27640634775161743,0.0022451169788837433
1776442849425862100,7.686862060546875,2.105501890182495,-0.40764179825782776,-0.08949372172355652
1776442849450878200,7.711878173828125,2.0601096153259277,-0.46065616607666016,0.07476722449064255
1776442849475895600,7.7368955078125,1.963805079460144,-0.37884125113487244,-0.0036655236035585403
1776442849500911400,7.761911376953125,2.0846850872039795,-0.49057358503341675,-0.3569416403770447
1776442849525928400,7.786928466796875,2.1380960941314697,-0.25812047719955444,-0.2942977547645569
1776442849550945500,7.811945556640625,1.6176024675369263,0.023894086480140686,0.07882218062877655
1776442849575961600,7.836961669921875,1.4870809316635132,0.05014558136463165,0.021008126437664032
1776442849600978700,7.861978759765625,1.6584302186965942,-0.07212229073047638,0.1480492502450943
1776442849625994500,7.886994384765625,1.2093052864074707,-0.1240338385105133,0.731307327747345
1776442849651011600,7.912011474609375,0.8750858306884766,-0.28703421354293823,0.5716933012008667
1776442849676027600,7.937027587890625,1.022951364517212,-0.5930331945419312,0.3330758512020111
1776442849701044500,7.96204443359375,0.9805458188056946,-0.15800312161445618,0.7047761082649231
1776442849726060500,7.987060546875,0.5423939228057861,0.45409971475601196,1.2203655242919922
1776442849751077400,8.012077392578124,0.26436543464660645,-0.024721018970012665,1.1392673254013062
1776442849776093400,8.037093505859374,0.4301236569881439,0.11261121928691864,0.06410824507474899
1776442849801110500,8.062110595703125,0.2887047827243805,0.6810541749000549,-0.19996289908885956
1776442849826127600,8.087127685546875,0.2299920916557312,0.3637363612651825,0.01362384669482708
1776442849851143700,8.112143798828125,0.48491254448890686,-0.05753398314118385,-0.23537516593933105
1776442849876160500,8.137160400390625,0.5586274266242981,-0.25617751479148865,-0.2132849395275116
1776442849901176600,8.162176513671875,0.25344160199165344,-0.3301975131034851,0.03222117945551872
1776442849926193400,8.187193359375,0.1098557561635971,-0.2979043424129486,0.0729602500796318
1776442849951209500,8.21220947265625,0.3475026786327362,-0.1805676817893982,0.03262212127447128
1776442849976226600,8.2372265625,0.4679742455482483,-0.19621801376342773,0.1613800972700119
1776442850001242600,8.26224267578125,1.515073537826538,-0.2931034564971924,0.5392910838127136
1776442850026259500,8.287259521484375,2.4497880935668945,0.2270088791847229,0.542789876461029
1776442850051275500,8.312275634765625,2.141096591949463,0.8242826461791992,0.2644888162612915
1776442850076292600,8.337292724609375,1.5991836786270142,0.4437442123889923,0.1305716335773468
1776442850101309400,8.362309326171875,0.7928083539009094,-0.10011490434408188,-0.0685354694724083
1776442850126325500,8.387325439453125,0.2294236570596695,-0.37100911140441895,-0.36251935362815857
1776442850151342600,8.412342529296875,0.3827057480812073,-0.686034619808197,-0.4301223158836365
1776442850176358400,8.4373583984375,0.9632346034049988,-0.3318040668964386,-0.2710128426551819
1776442850201375500,8.46237548828125,1.58084237575531,0.12389872223138809,0.027572423219680786
1776442850226391600,8.4873916015625,1.9235849380493164,0.1910707652568817,0.12409885227680206
1776442850251408600,8.51240869140625,1.6646621227264404,0.3403850197792053,-0.016037533059716225
1776442850276424700,8.5374248046875,1.3794442415237427,0.23700815439224243,-0.23339548707008362
1776442850301441500,8.562441650390625,1.4531261920928955,0.12194263190031052,-0.4135017693042755
1776442850326458400,8.587458251953125,1.6793277263641357,0.08462564647197723,-0.5359050631523132
1776442850351474400,8.612474365234375,2.0173935890197754,0.366396963596344,-0.2813810706138611
1776442850376491500,8.637491455078125,2.571112632751465,0.608043372631073,0.1537201702594757
1776442850401507600,8.662507568359375,2.9949324131011963,0.7348229289054871,0.3075988292694092
1776442850426524700,8.687524658203126,2.9606096744537354,1.0616708993911743,0.3122919201850891
1776442850451540500,8.71254052734375,2.8811028003692627,0.977776825428009,0.2640523612499237
1776442850476557300,8.737557373046876,2.6923904418945312,0.8120765089988708,0.27634894847869873
1776442850501573400,8.762573486328124,2.2611515522003174,0.624060869216919,0.15299129486083984
1776442850526590500,8.787590576171874,1.8528962135314941,0.2369106411933899,-0.27554336190223694
1776442850551606300,8.812606201171874,1.441346287727356,-0.20259083807468414,-0.47872498631477356
1776442850576623000,8.837623046875,1.1532117128372192,0.05035528168082237,-0.16025960445404053
1776442850601640200,8.86264013671875,1.2261396646499634,-0.006985881365835667,0.1476140022277832
1776442850626656300,8.88765625,1.3763092756271362,0.17825964093208313,0.29724353551864624
1776442850651673300,8.91267333984375,1.3012105226516724,0.5123221278190613,0.2714028060436249
1776442850676689400,8.937689453125,1.3787057399749756,0.5615654587745667,0.38170185685157776
1776442850701706200,8.962706298828126,1.583173155784607,0.3568386435508728,0.49038276076316833
1776442850726722300,8.987722412109376,1.55919349193573,0.310907244682312,0.5175454020500183
1776442850751739100,9.0127392578125,1.3239423036575317,0.3531119227409363,0.272003173828125
1776442850776755500,9.03775537109375,1.2493658065795898,0.3428369462490082,0.25619229674339294
1776442850801772300,9.062772216796875,1.0847394466400146,0.07518109679222107,0.23577454686164856
1776442850826789400,9.087789306640625,0.6255832314491272,0.12094156444072723,0.41815584897994995
1776442850851805200,9.11280517578125,0.7736628651618958,0.1539447158575058,0.357848584651947
1776442850876822300,9.137822265625,1.369407057762146,0.45460402965545654,-0.39475956559181213
1776442850901838300,9.16283837890625,1.223044514656067,-0.10217747092247009,-0.0015598698519170284
1776442850926855400,9.18785546875,1.262694001197815,-0.42081835865974426,0.5498998761177063
1776442850951871500,9.21287158203125,1.3357288837432861,-0.12664297223091125,0.8250421285629272
1776442850976888000,9.23788818359375,1.515802025794983,-0.1977023333311081,0.5872272253036499
1776442851001904000,9.262904052734376,1.816383719444275,-0.35100242495536804,0.34563884139060974
1776442851026921200,9.287921142578124,1.793492317199707,-0.2974410355091095,0.3238709270954132
1776442851051938300,9.312938232421875,1.6449337005615234,-0.7469096779823303,0.15430541336536407
1776442851076954400,9.337954345703125,1.3838828802108765,-0.5644020438194275,-0.332337886095047
1776442851101971500,9.362971435546875,1.001807689666748,-0.13924220204353333,-0.4965823292732239
1776442851126987300,9.3879873046875,0.8857681751251221,0.1251416951417923,-0.3548603057861328
1776442851152004400,9.41300439453125,1.0917054414749146,-0.04521482437849045,-0.15637220442295074
1776442851177020400,9.4380205078125,1.4231656789779663,-0.18401114642620087,-0.24845322966575623
1776442851202037200,9.463037353515626,1.5579421520233154,0.06711019575595856,-0.34472978115081787
1776442851227053000,9.488052978515626,1.5188624858856201,0.04049547761678696,-0.11822541803121567
1776442851252070100,9.513070068359376,1.5354772806167603,0.05138663202524185,0.1423371285200119
1776442851277086200,9.538086181640624,1.4999170303344727,-0.01746954582631588,0.3254690170288086
1776442851302103300,9.563103271484374,1.3539425134658813,0.3352905511856079,0.4035395383834839
1776442851327120400,9.588120361328125,1.2437323331832886,0.5383488535881042,0.5147945284843445
1776442851352136400,9.613136474609375,1.2825098037719727,0.21880961954593658,0.49456992745399475
1776442851377153300,9.6381533203125,0.983552873134613,0.014959282241761684,0.4679107367992401
1776442851402169300,9.66316943359375,0.48035928606987,0.02072957158088684,0.2166137397289276
1776442851427186200,9.688186279296875,0.36893975734710693,-0.37446728348731995,0.032271143049001694
1776442851452202200,9.7132021484375,0.26898252964019775,-0.653449296951294,0.051953740417957306
1776442851477219800,9.7382197265625,-0.16008135676383972,-0.5350749492645264,0.16429249942302704
1776442851502237000,9.76323681640625,-0.2725428640842438,-0.2560866177082062,0.003440787550061941
1776442851527253000,9.7882529296875,0.2972699999809265,0.08089004456996918,-0.2634778916835785
1776442851552269800,9.813269775390625,0.7598024010658264,1.0069440603256226,-0.8166019320487976
1776442851577286000,9.838285888671875,0.9531282782554626,0.8853946924209595,-0.6697672009468079
1776442851602302700,9.863302734375,0.8559354543685913,0.15368172526359558,-0.36016613245010376
1776442851627318800,9.88831884765625,0.5029683113098145,0.24074406921863556,-0.0005027293227612972
1776442851652335900,9.9133359375,-0.2220476120710373,0.052961256355047226,0.07231096923351288
1776442851677351700,9.9383515625,-0.14192911982536316,0.27893197536468506,-0.17939339578151703
1776442851702368800,9.96336865234375,-0.006117091979831457,-0.09735023975372314,-0.27376994490623474
1776442851727385900,9.9883857421875,0.160576730966568,0.09721998125314713,-0.32478898763656616
1776442851752402000,10.01340185546875,0.1862974762916565,0.11667008697986603,-0.4256410598754883
1776442851777418800,10.038418701171874,0.18292509019374847,0.3162187933921814,-0.43974635004997253
1776442851802434800,10.063434814453124,0.13482655584812164,0.3526425063610077,0.13303111493587494
1776442851827451600,10.08845166015625,0.2514628469944,-0.30373942852020264,0.4859154522418976
1776442851852467700,10.1134677734375,0.22401323914527893,0.15225563943386078,0.5033108592033386
1776442851877484800,10.13848486328125,0.21509894728660583,-0.06607720255851746,0.35471248626708984
1776442851902500900,10.1635009765625,0.4892495274543762,-0.2782542407512665,0.22954589128494263
1776442851927518000,10.18851806640625,0.4529593586921692,0.0713563933968544,0.31846141815185547
1776442851952535000,10.21353515625,0.4624878764152527,0.17102943360805511,0.015488985925912857
1776442851977550800,10.23855078125,0.9446349740028381,0.23134677112102509,-0.4583631753921509
1776442852002567700,10.263567626953124,1.458714485168457,0.23966601490974426,-0.3437108099460602
1776442852027583700,10.288583740234374,1.264950156211853,0.14515694975852966,0.06714451313018799
1776442852052600800,10.313600830078125,1.3480693101882935,-0.19936791062355042,0.396354615688324
1776442852077617000,10.338616943359375,1.8714185953140259,-0.25830185413360596,0.4435346722602844
1776442852102633700,10.3636337890625,2.0523998737335205,0.10887434333562851,0.40950411558151245
1776442852127649800,10.38864990234375,2.0152292251586914,0.1280304193496704,0.37827157974243164
1776442852152667000,10.4136669921875,1.753750205039978,0.08639602363109589,0.17667925357818604
1776442852177683700,10.43868359375,1.392473578453064,-0.026604488492012024,0.016236374154686928
1776442852202699800,10.46369970703125,0.89620041847229,-0.12105212360620499,-0.06578660011291504
1776442852227716900,10.488716796875,0.5768208503723145,-0.6844677925109863,-0.35219499468803406
1776442852252732700,10.513732666015626,0.4001348614692688,-1.2012923955917358,-0.4727143347263336
1776442852277749800,10.538749755859374,0.5353000164031982,-0.7386574745178223,-0.2046518474817276
1776442852302765800,10.563765869140624,0.6580299139022827,-0.5031849145889282,0.07253871858119965
1776442852327783000,10.588782958984375,0.7982755303382874,0.3204019367694855,-0.1833246350288391
1776442852352800000,10.613800048828125,0.7293604016304016,0.5898244976997375,0.1849767118692398
1776442852377815800,10.63881591796875,0.6521173715591431,0.6474061608314514,0.2474922388792038
1776442852402832600,10.66383251953125,0.46520400047302246,0.3422199785709381,0.28492265939712524
1776442852427848700,10.6888486328125,0.3862224817276001,-0.49775367975234985,0.1604791134595871
1776442852452865800,10.71386572265625,0.2825033962726593,-0.3236635625362396,-0.18742480874061584
1776442852477881600,10.738881591796876,0.2901744246482849,-0.41861167550086975,-0.47244635224342346
1776442852502898400,10.7638984375,0.12778525054454803,-0.4947434365749359,-0.34852170944213867
1776442852527914500,10.78891455078125,-0.01288511697202921,-0.7412118315696716,-0.167814239859581
1776442852552931600,10.813931640625,-0.04755533114075661,-0.7193396091461182,-0.43970179557800293
1776442852577948700,10.83894873046875,-0.00651091942563653,-0.31607967615127563,-0.5071309804916382
1776442852602964700,10.86396484375,0.29754000902175903,0.3123094439506531,-0.2683911621570587
1776442852627981600,10.888981689453125,0.5564769506454468,0.20386236906051636,-0.06062650308012962
1776442852652997400,10.913997314453125,0.7148634195327759,-0.29408854246139526,-0.04747908562421799
1776442852678014500,10.939014404296875,0.6279593110084534,0.05842180922627449,-0.46597820520401
1776442852703030500,10.964030517578125,0.6380810141563416,0.6092850565910339,-0.4095991849899292
1776442852728047600,10.989047607421876,1.0091099739074707,0.7167387008666992,0.04938575252890587
1776442852753064700,11.014064697265624,1.2154697179794312,0.7123523354530334,0.06908297538757324
1776442852778080500,11.03908056640625,0.9468077421188354,0.7596884965896606,-0.20544104278087616
1776442852803097600,11.06409765625,0.8483949899673462,0.6396021246910095,-0.17501051723957062
1776442852828113700,11.08911376953125,1.031436800956726,0.31970763206481934,-0.06942827254533768
1776442852853130500,11.114130615234375,0.9035535454750061,-0.06775294244289398,0.21542726457118988
1776442852878146600,11.139146484375,0.7565194964408875,-0.32961761951446533,0.141184464097023
1776442852903163600,11.16416357421875,0.7769458889961243,-0.5170533061027527,-0.01408398151397705
1776442852928180500,11.189180419921875,0.9208669662475586,-0.19989483058452606,-0.04049127176403999
1776442852953196500,11.214196533203125,0.702363908290863,-0.13610681891441345,0.38120076060295105
1776442852978213600,11.239213623046876,0.4853571951389313,-0.0514686144888401,0.3250299394130707
1776442853003229700,11.264229736328126,0.3112090229988098,0.125162273645401,0.014305561780929565
1776442853028246500,11.28924658203125,0.4441698491573334,0.29447197914123535,-0.08447915315628052
1776442853053262600,11.3142626953125,0.6887320280075073,0.25297415256500244,-0.18922993540763855
1776442853078279400,11.339279541015625,0.4411742091178894,-0.10320378839969635,-0.21490399539470673
1776442853103296500,11.364296630859375,0.19997984170913696,-0.04464102163910866,-0.25000059604644775
1776442853128312600,11.3893125,0.264064759016037,-0.2904749810695648,-0.17716950178146362
1776442853153329700,11.41432958984375,0.32027775049209595,-0.004928204696625471,-0.17015595734119415
1776442853178345700,11.439345703125,0.28009557723999023,-0.10081407427787781,-0.1656840443611145
1776442853203362600,11.464362548828126,0.18879781663417816,-0.22258146107196808,-0.17874008417129517
1776442853228378600,11.489378662109376,0.21641692519187927,-0.21537381410598755,-0.3032303750514984
1776442853253395500,11.5143955078125,0.21834886074066162,0.007344858720898628,-0.2761818766593933
1776442853278412500,11.53941259765625,0.20811547338962555,0.24861611425876617,-0.1888488233089447
1776442853303428600,11.5644287109375,0.19959038496017456,0.08204697072505951,-0.12430606782436371
1776442853328445700,11.58944580078125,0.26165691018104553,-0.01581011526286602,-0.16042359173297882
1776442853353461500,11.61446142578125,0.26592081785202026,-0.12695716321468353,-0.20845147967338562
1776442853378478600,11.639478515625,0.13379882276058197,0.029749499633908272,-0.378835529088974
1776442853403494700,11.66449462890625,0.4100097119808197,0.5854602456092834,-0.07141545414924622
1776442853428511700,11.68951171875,0.4107713997364044,0.2623903155326843,0.0962117463350296
1776442853453528600,11.714528564453126,-0.0720667764544487,-0.08270624279975891,0.22259145975112915
1776442853478545000,11.739544921875,-0.29687321186065674,-0.2774527966976166,0.19692125916481018
1776442853503562000,11.76456201171875,-0.28154808282852173,-0.17217998206615448,0.03812526538968086
1776442853528577800,11.789577880859374,-0.1073819100856781,0.114809051156044,-0.0629262775182724
1776442853553595000,11.814594970703125,0.14690344035625458,0.16390568017959595,-0.016141828149557114
1776442853578611000,11.83961083984375,0.17758193612098694,-0.0795314610004425,-0.0247719157487154
1776442853603628000,11.8646279296875,0.16829946637153625,0.0048961518332362175,-0.21134895086288452
1776442853628644900,11.889644775390625,0.2797010838985443,-0.042907290160655975,-0.17426598072052002
1776442853653661000,11.914660888671875,0.2202800214290619,-0.08139341324567795,-0.22933591902256012
1776442853678677800,11.939677734375,0.3238959312438965,0.12796717882156372,-0.32085707783699036
1776442853703693800,11.96469384765625,0.5726598501205444,-0.14969810843467712,-0.18972741067409515
1776442853728711000,11.9897109375,0.6303265690803528,-0.2141769826412201,-0.026462934911251068
1776442853753727000,12.01472705078125,0.7111679911613464,-0.0956421047449112,0.15643715858459473
1776442853778744000,12.039744140625,1.0514742136001587,-0.1329924315214157,0.4652748107910156
1776442853803761000,12.064760986328125,1.267048954963684,-0.2727191150188446,0.6144686937332153
1776442853828777000,12.08977685546875,0.9479343295097351,0.04083200544118881,0.5682533383369446
1776442853853793800,12.114793701171875,0.8002015352249146,-0.043586261570453644,0.5953074097633362
1776442853878809900,12.139809814453125,0.7377002835273743,-0.001256854273378849,0.5208927989006042
1776442853903827000,12.164826904296875,0.6571784019470215,0.03150522708892822,0.20776063203811646
1776442853928844000,12.189843994140626,0.36745432019233704,-0.35655203461647034,0.10488387197256088
1776442853953859800,12.21485986328125,-0.00141802872531116,-0.45660024881362915,0.196443110704422
1776442853978877000,12.239876953125,0.7537186741828918,1.015892744064331,-0.15091760456562042
1776442854003893000,12.26489306640625,1.1146960258483887,-0.10518887639045715,0.2238539159297943
1776442854028909800,12.289909912109374,1.3081083297729492,0.20230206847190857,0.11177348345518112
1776442854053926000,12.31492578125,1.2457069158554077,0.23821213841438293,0.5361846089363098
1776442854078943000,12.33994287109375,1.5792977809906006,0.5437519550323486,0.797795295715332
1776442854103959800,12.364959716796875,2.261371374130249,0.006545575335621834,0.23327410221099854
1776442854128976000,12.389975830078125,3.030092477798462,-1.468314290046692,-0.07207486778497696
1776442854153993000,12.414992919921875,3.4812490940093994,-1.5050549507141113,0.361629456281662
1776442854179009000,12.440009033203125,3.503114700317383,-1.1685205698013306,0.6941763162612915
1776442854204025900,12.46502587890625,2.914555072784424,-0.520765483379364,0.41444703936576843
1776442854229043000,12.49004296875,1.748185157775879,-0.07095208019018173,0.27214914560317993
1776442854254058800,12.515058837890624,1.1708362102508545,-0.2055698186159134,0.3683955669403076
1776442854279075800,12.540075927734375,1.1997616291046143,-0.369157075881958,0.7490155100822449
1776442854304092000,12.565091796875,1.7814741134643555,-0.08253788948059082,0.7483689188957214
1776442854329109000,12.59010888671875,2.1803059577941895,0.34163546562194824,0.760823667049408
1776442854354125000,12.615125,2.197261333465576,0.2778318524360657,0.42047882080078125
1776442854379142000,12.640141845703125,2.2811026573181152,-0.15739943087100983,0.19742451608181
1776442854404158700,12.66515869140625,2.1266729831695557,-0.42227908968925476,0.08760306984186172
1776442854429174800,12.6901748046875,2.0048699378967285,-0.34329041838645935,0.14399434626102448
1776442854454191900,12.71519189453125,2.0604889392852783,-0.6054653525352478,0.44972139596939087
1776442854479207000,12.74020703125,1.8878772258758545,-0.4320744276046753,0.3546985685825348
1776442854504224000,12.76522412109375,1.7154674530029297,0.03812752291560173,0.29735684394836426
1776442854529240800,12.79024072265625,1.8278297185897827,-0.012924334034323692,0.427064448595047
1776442854554257000,12.8152568359375,1.9598132371902466,-0.21297642588615417,0.6439645886421204
1776442854579274000,12.84027392578125,1.787556767463684,-0.2857634723186493,0.9329901933670044
1776442854604290000,12.8652900390625,1.5816283226013184,-0.45702746510505676,1.0997260808944702
1776442854629307100,12.89030712890625,1.0496224164962769,-0.3583579957485199,0.9360668063163757
1776442854654323000,12.915322998046875,0.5375046133995056,-0.0821860283613205,0.6037895679473877
1776442854679339800,12.94033984375,0.24497756361961365,0.07200270891189575,0.35399937629699707
1776442854704356900,12.96535693359375,0.8619962930679321,-0.09434137493371964,0.7845722436904907
1776442854729373000,12.990373046875,1.222342610359192,-0.9492733478546143,1.825740098953247
1776442854754390000,13.01539013671875,1.2911978960037231,0.6163208484649658,1.2783228158950806
1776442854779405800,13.04040576171875,1.4364299774169922,0.669626772403717,0.6063607931137085
1776442854804423000,13.0654228515625,0.9864327311515808,0.27310657501220703,0.21413221955299377
1776442854829440000,13.09043994140625,0.7906897664070129,0.35190463066101074,0.10127164423465729
1776442854854456000,13.1154560546875,1.20652174949646,0.6623765826225281,-0.17267514765262604
1776442854879473000,13.140472900390625,1.6318532228469849,0.7208864092826843,-0.538850724697113
1776442854904489000,13.165489013671875,1.2355432510375977,0.3497658371925354,-0.40510496497154236
1776442854929506000,13.190506103515625,0.7828218936920166,0.2355031967163086,-0.14944103360176086
1776442854954523000,13.21552294921875,0.7797802686691284,0.18702685832977295,0.10491091758012772
1776442854979539000,13.2405390625,0.8109332919120789,-0.050420284271240234,0.28099870681762695
1776442855004556000,13.26555615234375,0.7986475825309753,-0.09679306298494339,0.408993661403656
1776442855029572000,13.290572021484374,0.9112406373023987,-0.1617295742034912,0.3339739739894867
1776442855054589000,13.3155888671875,1.175001859664917,-0.41499707102775574,0.09173624217510223
1776442855079605000,13.34060498046875,1.2184914350509644,-0.41533610224723816,-0.11824897676706314
1776442855104621800,13.365621826171875,0.9411482214927673,-0.11759188026189804,-0.2448788434267044
1776442855129639000,13.390638916015625,0.7061522006988525,0.15556368231773376,-0.19778673350811005
1776442855154655000,13.415655029296875,0.8010913133621216,0.020335059612989426,-0.03356504440307617
1776442855179672000,13.440672119140626,1.2005290985107422,-0.540649950504303,0.2635994553565979
1776442855204688000,13.46568798828125,1.34260094165802,-0.7373915910720825,0.2818620800971985
1776442855229705000,13.490705078125,1.1840537786483765,-0.024753492325544357,-0.3108355402946472
1776442855254721800,13.5157216796875,0.8881120085716248,0.36824333667755127,-0.5263349413871765
1776442855279737900,13.54073779296875,0.697777271270752,0.38420596718788147,-0.48725590109825134
1776442855304755000,13.5657548828125,0.8765498995780945,-0.35076096653938293,-0.14558807015419006
1776442855329771000,13.59077099609375,1.2388771772384644,-0.6218112111091614,0.2811664342880249
1776442855354788000,13.6157880859375,1.0136913061141968,0.2072141468524933,0.22725346684455872
1776442855379805000,13.640804931640625,0.5869422554969788,0.4641033113002777,-0.12259628623723984
1776442855404821000,13.665821044921875,0.5952216982841492,0.3339294195175171,-0.15146318078041077
1776442855429837800,13.690837890625,1.0240463018417358,-0.09590539336204529,0.21094214916229248
1776442855454854000,13.71585400390625,0.9207103848457336,-0.14595311880111694,0.32427841424942017
1776442855479871500,13.74087158203125,0.7461133003234863,0.1617242395877838,0.23689383268356323
1776442855504888300,13.765888427734374,0.8013253808021545,0.1682361662387848,0.16191253066062927
1776442855529904400,13.790904296875,1.0648325681686401,-0.03235136717557907,0.21270838379859924
1776442855554921500,13.81592138671875,1.213895559310913,-0.4024905860424042,0.18358397483825684
1776442855579937500,13.8409375,1.1602230072021484,-0.2791479527950287,0.2609808146953583
1776442855604954400,13.865954345703125,0.9039416909217834,0.11665868014097214,0.2694682776927948
1776442855629971500,13.890971435546875,0.8521953821182251,0.31668320298194885,0.06510399281978607
1776442855654987300,13.9159873046875,1.1092073917388916,0.12857794761657715,-0.060633156448602676
1776442855680004400,13.94100439453125,0.9212905764579773,0.16023172438144684,0.12311841547489166
1776442855705020400,13.9660205078125,0.5503352880477905,0.35765156149864197,0.061544958502054214
1776442855730037500,13.99103759765625,0.4062715470790863,0.23572224378585815,0.10601331293582916
1776442855755054600,14.0160546875,0.4780834913253784,0.23002536594867706,-0.04502446576952934
1776442855780070400,14.0410703125,0.5769939422607422,0.2312554121017456,0.004791191313415766
1776442855805087200,14.066087158203125,0.6503973007202148,0.07888849824666977,-0.20527803897857666
1776442855830103300,14.091103271484375,0.5932745337486267,0.17696622014045715,-0.3086238503456116
1776442855855120400,14.116120361328125,0.5659717917442322,0.27421221137046814,-0.1657896488904953
1776442855880137500,14.141137451171875,0.670253574848175,-0.07280588895082474,0.037085168063640594
1776442855905153500,14.166153564453126,0.9013848304748535,-0.12354928255081177,0.10037443786859512
1776442855930170400,14.19117041015625,1.0808501243591309,-0.2115936577320099,0.09167283028364182
1776442855955186400,14.2161865234375,1.1797987222671509,-0.1346428394317627,0.11503474414348602
1776442855980203300,14.241203369140624,1.2589584589004517,-0.020626669749617577,0.3032814562320709
1776442856005220400,14.266220458984375,1.1612679958343506,0.20310050249099731,0.3277301490306854
1776442856030236400,14.291236328125,1.0476179122924805,0.22108232975006104,-0.03686440363526344
1776442856055253500,14.31625341796875,1.4832566976547241,0.3928602933883667,-0.15195243060588837
1776442856080269300,14.341269287109375,2.018052339553833,0.4621177613735199,-0.009212027303874493
1776442856105286400,14.366286376953125,1.842281460762024,0.38498684763908386,0.08475916087627411
1776442856130303500,14.391303466796876,1.3217693567276,-0.4649169147014618,0.4848046898841858
1776442856155319600,14.416319580078126,0.8181012868881226,-0.5788493156433105,0.7249231338500977
1776442856180336400,14.44133642578125,0.46765169501304626,-0.009300388395786285,0.4317329525947571
1776442856205352200,14.466352294921874,0.379598468542099,0.41129690408706665,0.025417208671569824
1776442856230369300,14.491369384765624,0.2181529998779297,0.316240131855011,-0.12851494550704956
1776442856255386400,14.516386474609375,0.41583794355392456,0.14152254164218903,0.0899951159954071
1776442856280402400,14.54140234375,0.8230661749839783,-0.09181484580039978,0.17996282875537872
1776442856305419500,14.56641943359375,0.7925348281860352,-0.2881290018558502,0.15876558423042297
1776442856330435600,14.591435546875,0.7267321944236755,-0.7018353939056396,0.33364033699035645
1776442856355452400,14.616452392578125,1.183109998703003,-1.182313084602356,-0.07481253147125244
1776442856380469200,14.64146923828125,1.4915950298309326,-1.0863853693008423,-0.25071123242378235
1776442856405485300,14.6664853515625,0.8301330804824829,-0.6162985563278198,-0.1282670944929123
1776442856430502400,14.69150244140625,0.4957562983036041,1.780350923538208,-0.6616722941398621
1776442856455518500,14.7165185546875,0.08507825434207916,2.0246477127075195,-0.4155993163585663
1776442856480535000,14.74153515625,0.5883437991142273,1.3611176013946533,-0.6797581911087036
1776442856505552100,14.76655224609375,0.9039347767829895,0.6828706860542297,-0.4779508709907532
1776442856530568200,14.791568115234375,0.7645339965820312,0.34057852625846863,0.17304380238056183
1776442856555585000,14.8165849609375,1.146018385887146,0.029345210641622543,0.31552284955978394
1776442856580601000,14.84160107421875,1.22373366355896,-0.6723991632461548,0.48146963119506836
1776442856605618000,14.866617919921875,1.4817907810211182,-0.7196614146232605,0.38460773229599
1776442856630635000,14.891635009765626,1.3485220670700073,-0.1587029993534088,0.9827531576156616
1776442856655651000,14.916651123046876,1.2441173791885376,0.49082568287849426,0.9795259833335876
1776442856680668200,14.941668212890624,1.3341532945632935,1.0882842540740967,0.7789159417152405
1776442856705685200,14.966685302734374,1.4695122241973877,1.4368159770965576,0.7415861487388611
1776442856730701000,14.991701171875,1.533821940422058,1.8615014553070068,0.4269658625125885
1776442856755718000,15.0167177734375,1.393753170967102,1.8265058994293213,0.17972829937934875
1776442856780734000,15.04173388671875,1.2650076150894165,1.4762345552444458,0.0067151617258787155
1776442856805751000,15.0667509765625,1.1597040891647339,0.24633456766605377,0.38968178629875183
1776442856830768000,15.09176806640625,1.2393441200256348,-0.1813214272260666,0.6815993189811707
1776442856855784000,15.116783935546875,0.8547372221946716,-0.5383115410804749,0.4796724021434784
1776442856880801000,15.141801025390626,0.5575167536735535,-1.0580450296401978,0.24054241180419922
1776442856905817000,15.166817138671876,0.6305948495864868,-0.45014259219169617,0.20769143104553223
1776442856930834200,15.191834228515624,0.6448308229446411,-0.40970566868782043,0.2597677707672119
1776442856955851000,15.21685107421875,0.804304301738739,-0.5016008615493774,0.1494155079126358
1776442856980867000,15.2418671875,1.3629150390625,-0.582705020904541,0.45816701650619507
1776442857005884000,15.2668837890625,1.4565681219100952,-0.5603828430175781,0.6763554811477661
1776442857030900000,15.29189990234375,1.0313042402267456,-0.30653584003448486,0.6464883685112
1776442857055917000,15.3169169921875,0.9241370558738708,-0.11735598742961884,0.5372344851493835
1776442857080934100,15.34193408203125,0.9771203398704529,0.1890944242477417,0.4448489844799042
1776442857105950200,15.3669501953125,0.8244138956069946,0.249394029378891,0.2221551537513733
1776442857130967000,15.391967041015626,0.5789799690246582,-0.13046769797801971,0.14047028124332428
1776442857155982800,15.41698291015625,0.8725749850273132,0.24732919037342072,0.21372681856155396
1776442857181000000,15.442,0.8439906239509583,0.14843057096004486,0.2149214744567871
1776442857206017000,15.46701708984375,0.5947042107582092,0.011058810167014599,0.3015052080154419
1776442857231033000,15.492033203125,0.675685465335846,-0.18711480498313904,0.2449376881122589
1776442857256050200,15.51705029296875,1.524163842201233,-0.5524678826332092,0.2263561487197876
1776442857281067000,15.54206689453125,1.6375550031661987,-0.5911922454833984,0.5887500047683716
1776442857306083000,15.5670830078125,1.7063740491867065,-0.7553085088729858,0.5455051064491272
1776442857331100000,15.592099853515625,1.5349373817443848,-1.0490769147872925,0.1902523636817932
1776442857356116000,15.617115966796876,0.8332924246788025,-1.287454605102539,-0.01802470162510872
1776442857381133000,15.642133056640626,0.8265648484230042,-1.0832781791687012,-0.45589131116867065
1776442857406150100,15.667150146484374,1.166433572769165,-1.3639192581176758,-0.23092706501483917
1776442857431166000,15.692166015625,1.8385493755340576,-1.306241750717163,-0.054323501884937286
1776442857456183000,15.71718310546875,1.265479326248169,0.24913690984249115,-0.3165038228034973
1776442857481200000,15.7422001953125,0.8638627529144287,0.5750430822372437,0.5269063115119934
1776442857506217200,15.76721728515625,1.0521657466888428,1.2193490266799927,0.6426404714584351
1776442857531234300,15.792234375,1.1487685441970825,1.1907905340194702,0.3530929982662201
1776442857556250000,15.81725,1.1582077741622925,0.4718349277973175,0.31083884835243225
1776442857581267200,15.84226708984375,1.7626025676727295,-0.37954485416412354,-0.18567153811454773
1776442857606283300,15.867283203125,2.1268310546875,-0.5045854449272156,-0.1746414452791214
1776442857631300000,15.892300048828124,2.0523481369018555,0.0027386127039790154,-0.2538602948188782
1776442857656317200,15.917317138671875,2.051553249359131,0.5958392024040222,0.0844992995262146
1776442857681333200,15.942333251953125,2.1589174270629883,1.0113749504089355,0.30309292674064636
1776442857706350000,15.96735009765625,2.6703715324401855,1.071184515953064,0.2071259468793869
1776442857731367200,15.9923671875,2.9732563495635986,0.9775012731552124,0.09872065484523773
1776442857756383200,16.01738330078125,2.9016470909118652,0.819148600101471,0.1950799524784088
1776442857781400300,16.042400390625,2.6279115676879883,0.8662656545639038,0.5202938318252563
1776442857806416400,16.06741650390625,2.173086643218994,0.8863497972488403,0.34480100870132446
1776442857831433200,16.09243310546875,2.0888755321502686,0.1831938922405243,0.006571661215275526
1776442857856450000,16.117449951171874,1.9992340803146362,-0.1308697909116745,0.21098069846630096
1776442857881466000,16.142466064453124,2.1089556217193604,0.6017116904258728,0.5161393880844116
1776442857906483200,16.167483154296875,2.1023921966552734,1.1067208051681519,0.13920877873897552
1776442857931499300,16.192499267578125,1.928467869758606,0.7087642550468445,0.04800393059849739
1776442857956516400,16.217516357421875,1.9014108180999756,0.17402121424674988,0.5620689392089844
1776442857981533200,16.242533203125,1.92185378074646,0.3891996741294861,0.6383700370788574
1776442858006549000,16.267549072265624,1.8579697608947754,0.7845627665519714,0.3241328001022339
1776442858031566000,16.292566162109374,1.8056669235229492,0.45658835768699646,0.09037072956562042
1776442858056583200,16.317583251953124,1.8410718441009521,0.1416657269001007,-0.035181961953639984
1776442858081599200,16.34259912109375,1.8900232315063477,-0.09909937530755997,-0.11964573711156845
1776442858106616300,16.3676162109375,1.7292252779006958,-0.4576933979988098,-0.35856732726097107
1776442858131632000,16.392632080078126,1.7686989307403564,-0.809961199760437,-0.37795642018318176
1776442858156649200,16.417649169921877,1.7777366638183594,-0.2681604027748108,-0.21113362908363342
1776442858181666000,16.442666015625,1.4575886726379395,0.30054882168769836,-0.1405603587627411
1776442858206682000,16.46768212890625,1.2889822721481323,0.3812236487865448,-0.13645043969154358
1776442858231699200,16.49269921875,1.4376055002212524,0.18617168068885803,-0.25597986578941345
1776442858256715300,16.51771533203125,1.6022366285324097,0.05923103541135788,-0.7544485330581665
1776442858281732000,16.542732177734376,1.7790364027023315,0.12726444005966187,-1.310465931892395
1776442858306749200,16.567749267578126,1.9947556257247925,0.4809238910675049,-1.4170808792114258
1776442858331765200,16.59276513671875,2.22403883934021,0.15968136489391327,-0.9178903102874756
1776442858356782000,16.617781982421874,2.3791911602020264,0.16617615520954132,-0.673392653465271
1776442858381799200,16.642799072265625,2.34140944480896,0.05025477707386017,-0.4239303469657898
1776442858406815200,16.667815185546875,2.022836446762085,-0.29890650510787964,-0.08297917246818542
1776442858431832300,16.692832275390625,1.547387957572937,-0.9762845635414124,0.6833721995353699
1776442858456848100,16.71784814453125,1.6586809158325195,-1.269508957862854,0.8481118679046631
1776442858481865200,16.742865234375,2.2974088191986084,0.029903240501880646,-0.3771243989467621
1776442858506882300,16.76788232421875,2.179671049118042,-0.5319174528121948,-0.29698649048805237
1776442858531898400,16.7928984375,1.8276869058609009,-0.4381735026836395,0.024149399250745773
1776442858556915200,16.817915283203124,1.3114861249923706,-0.5875787138938904,0.2743542194366455
1776442858581932300,16.842932373046875,1.3154152631759644,-0.9800190329551697,0.432598352432251
1776442858606948000,16.867947998046876,1.785454511642456,-0.540586531162262,0.11801175773143768
1776442858631965200,16.892965087890627,1.9541985988616943,-0.745535135269165,-0.12601616978645325
1776442858656981200,16.917981201171877,1.9798613786697388,-1.1053987741470337,-0.08313524723052979
1776442858681998300,16.942998291015623,2.19657564163208,-1.544646143913269,0.08650483936071396
1776442858707015200,16.96801513671875,2.501046657562256,-1.541873812675476,0.4879586100578308
1776442858732031200,16.99303125,2.6399686336517334,-1.0276498794555664,0.5848225951194763
1776442858757048000,17.018048095703126,2.5658628940582275,-1.1373069286346436,0.6004782915115356
1776442858782064000,17.043064208984376,2.3905763626098633,-1.2026875019073486,0.5838564038276672
1776442858807081200,17.068081298828126,2.4634511470794678,-1.2162325382232666,0.4281512200832367
1776442858832098300,17.093098388671876,2.4610068798065186,-1.018472671508789,0.13798657059669495
1776442858857114400,17.1181142578125,1.9423656463623047,-0.5638421177864075,-0.08766910433769226
1776442858882131200,17.143131103515625,1.0704785585403442,-0.13371141254901886,-0.36101478338241577
1776442858907148000,17.16814794921875,0.6260859966278076,0.16158726811408997,-0.23677939176559448
1776442858932164000,17.1931640625,0.627930223941803,0.21410536766052246,0.3032590448856354
1776442858957181200,17.21818115234375,1.2606064081192017,0.12165401130914688,0.4961853325366974
1776442858982197200,17.243197265625,1.5434529781341553,0.09812244027853012,0.4077277183532715
1776442859007214300,17.26821435546875,1.2690788507461548,0.23311905562877655,0.5067852139472961
1776442859032231200,17.293231201171874,0.49761784076690674,0.4627663195133209,0.4696061313152313
1776442859057247200,17.318247314453124,0.3861086666584015,0.5113728046417236,0.4700487554073334
1776442859082264000,17.34326416015625,0.8193312287330627,0.568715512752533,0.48741161823272705
1776442859107281200,17.36828125,1.330711841583252,0.43931329250335693,0.33015719056129456
1776442859132297200,17.393297119140627,1.7954862117767334,0.4580855667591095,0.2964347004890442
1776442859157314300,17.418314208984373,1.9314050674438477,0.7365102171897888,0.39642900228500366
1776442859182330000,17.443330078125,1.7394297122955322,0.6341658234596252,0.5138013958930969
1776442859207347200,17.46834716796875,1.5641192197799683,0.3664243221282959,0.5220521688461304
1776442859232364300,17.4933642578125,1.4871447086334229,0.4496508836746216,0.441504567861557
1776442859257380400,17.51838037109375,1.467362880706787,0.46460238099098206,0.32141366600990295
1776442859282397200,17.543397216796876,1.3895853757858276,0.5097379684448242,0.22022993862628937
1776442859307414300,17.568414306640626,1.4767311811447144,0.6975947618484497,0.20825731754302979
1776442859332430000,17.59343017578125,1.8092448711395264,0.591453492641449,0.9043765664100647
1776442859357447200,17.618447265625,1.4842251539230347,0.6151191592216492,0.7614718675613403
1776442859382463200,17.643463134765625,1.2788196802139282,0.8448015451431274,0.11261578649282455
1776442859407480300,17.668480224609375,1.6042109727859497,0.5753428339958191,0.040133215487003326
1776442859432497200,17.6934970703125,1.9826593399047852,-0.09668653458356857,0.25639697909355164
1776442859457513200,17.71851318359375,2.4236385822296143,-0.5461568832397461,0.26118478178977966
1776442859482529000,17.743529052734374,2.5054662227630615,-1.1987700462341309,0.32057175040245056
1776442859507545900,17.7685458984375,1.6272886991500854,-1.409559965133667,0.6681773066520691
1776442859532562000,17.79356201171875,0.9827081561088562,-0.7070772051811218,0.7446537017822266
1776442859557579000,17.8185791015625,1.2723932266235352,0.09211420267820358,0.6979050040245056
1776442859582595000,17.843594970703126,1.7118101119995117,0.25874683260917664,0.6004791259765625
1776442859607612200,17.868612060546877,1.6258381605148315,0.3540400564670563,0.5268389582633972
1776442859632629000,17.89362890625,1.3449761867523193,0.5731555819511414,0.2237962931394577
1776442859657645000,17.91864501953125,1.4044314622879028,0.7064639329910278,-0.06564466655254364
1776442859682662000,17.943661865234375,1.9406883716583252,0.3340434730052948,-0.3388662338256836
1776442859707679000,17.968678955078126,2.2939140796661377,-0.9699746370315552,-0.37430936098098755
1776442859732695000,17.993695068359376,2.3325600624084473,-2.130040407180786,-0.07367686182260513
1776442859757712100,18.018712158203126,2.0402700901031494,-1.3463761806488037,0.5438736081123352
1776442859782728000,18.04372802734375,1.6672585010528564,0.1284429430961609,0.6428298950195312
1776442859807745000,18.0687451171875,1.3848745822906494,0.9323451519012451,0.1394512951374054
1776442859832762000,18.09376220703125,1.1716508865356445,1.1680811643600464,0.35274770855903625
1776442859857778200,18.118778076171875,1.0839990377426147,0.9098867177963257,0.860659122467041
1776442859882795000,18.143794921875,1.2610197067260742,0.6628830432891846,0.2974940538406372
1776442859907812000,18.16881201171875,1.452431082725525,0.13848212361335754,0.044952940195798874
1776442859932828000,18.193827880859374,1.5254749059677124,0.17566168308258057,0.1706983894109726
1776442859957845000,18.218844970703124,1.3024824857711792,0.4118242859840393,0.44734230637550354
1776442859982861000,18.243861083984374,1.140026330947876,0.2611994445323944,0.19972039759159088
1776442860007878100,18.268878173828124,1.2708792686462402,-0.15697820484638214,0.07841965556144714
1776442860032895000,18.29389501953125,1.1861222982406616,-0.0762859508395195,0.3549356758594513
1776442860057911000,18.3189111328125,0.9880445003509521,0.351337194442749,0.380437970161438
1776442860082927900,18.343927978515627,1.0391731262207031,0.059497881680727005,0.006063660606741905
1776442860107945000,18.368945068359373,1.103373408317566,-0.47930440306663513,-0.24852310121059418
1776442860132961000,18.3939609375,0.9643276333808899,-0.3681989908218384,-0.19354583323001862
1776442860157978000,18.41897802734375,0.7610800862312317,0.021658850833773613,-0.027250494807958603
1776442860182994200,18.443994140625,0.8208779692649841,0.2648487389087677,0.11614076793193817
1776442860208011000,18.469010986328126,1.0758172273635864,0.23960550129413605,0.13440057635307312
1776442860233027800,18.49402783203125,1.0846879482269287,0.4915927052497864,0.38383588194847107
1776442860258044000,18.5190439453125,1.1891168355941772,0.5386425852775574,0.6750050187110901
1776442860283061000,18.54406103515625,1.4376022815704346,0.5185191035270691,0.7867310047149658
1776442860308078000,18.569078125,1.3522493839263916,0.3097597658634186,0.21990714967250824
1776442860333094100,18.59409423828125,1.0239498615264893,-0.38123470544815063,-0.2747381031513214
1776442860358111200,18.619111328125,1.1127055883407593,-0.9931235313415527,-0.35749441385269165
1776442860383127000,18.644126953125,1.0397933721542358,-0.9784050583839417,-0.28801536560058594
1776442860408144000,18.669143798828124,0.7677910327911377,-0.20994369685649872,-0.3934711515903473
1776442860433161000,18.694160888671874,1.0561068058013916,0.3032957911491394,-0.20263920724391937
1776442860458177000,18.719177001953124,1.7952800989151,0.5230531096458435,0.09704217314720154
1776442860483194000,18.744194091796874,2.158536672592163,0.9540276527404785,0.1977510154247284
1776442860508211500,18.76921142578125,1.8518226146697998,1.0230529308319092,0.05080641433596611
1776442860533227300,18.794227294921875,1.8452378511428833,0.6698339581489563,0.05391860753297806
1776442860558244400,18.819244384765625,1.8214582204818726,0.35065189003944397,0.03123461827635765
1776442860583260400,18.844260498046875,1.579512596130371,-0.10452199727296829,-0.23523345589637756
1776442860608277200,18.86927734375,1.7174714803695679,-0.24712149798870087,-0.5795792937278748
1776442860633294300,18.89429443359375,2.1453440189361572,-0.2637616991996765,-0.4524354338645935
1776442860658310400,18.919310302734374,2.3481194972991943,-0.17943933606147766,0.17277558147907257
1776442860683327500,18.944327392578124,2.598994731903076,-0.9668285846710205,0.8247168660163879
1776442860708344300,18.96934423828125,2.4925637245178223,-0.45239847898483276,0.5612256526947021
1776442860733360400,18.9943603515625,2.2819840908050537,-0.1703050583600998,0.2437818944454193
1776442860758377200,19.019377197265626,1.9640624523162842,-0.06851960718631744,0.0808509886264801
1776442860783394300,19.044394287109377,1.4456186294555664,-0.1444295197725296,0.028735361993312836
1776442860808410400,19.069410400390623,0.9679824113845825,0.23645716905593872,0.034766003489494324
1776442860833427500,19.094427490234374,0.8740349411964417,0.3548126816749573,0.12722542881965637
1776442860858443300,19.119443359375,1.19947350025177,0.17109206318855286,0.2100532054901123
1776442860883460400,19.14446044921875,1.4531705379486084,0.32168686389923096,0.16247518360614777
1776442860908477200,19.169477294921876,1.6633358001708984,0.39863523840904236,0.20683586597442627
1776442860933493200,19.1944931640625,1.593298077583313,-0.05280989781022072,0.3952460289001465
1776442860958510300,19.21951025390625,1.397332787513733,-0.2539486289024353,0.4628467857837677
1776442860983526100,19.244526123046874,1.2999045848846436,-0.07047713547945023,0.40911075472831726
1776442861008543200,19.269543212890625,1.3000136613845825,0.16910943388938904,0.3825964331626892
1776442861033560300,19.294560302734375,1.317691683769226,0.11547961831092834,0.4911692440509796
1776442861058576400,19.319576416015625,1.336540937423706,0.1814689189195633,0.5705389976501465
1776442861083593500,19.344593505859375,1.2522906064987183,0.18850266933441162,0.5443916320800781
1776442861108610300,19.3696103515625,1.0459257364273071,0.3031095862388611,0.6305000185966492
1776442861133626000,19.394626220703124,0.8643040060997009,-0.048547375947237015,0.3987114727497101
1776442861158643200,19.419643310546874,0.7338590025901794,-0.12691019475460052,0.19284820556640625
1776442861183660300,19.444660400390624,0.5463720560073853,-0.048014335334300995,0.13254961371421814
1776442861208676400,19.46967626953125,0.5299443602561951,-0.01199880801141262,0.16526228189468384
1776442861233693400,19.494693359375,0.5726345777511597,-0.1114036962389946,0.15641632676124573
1776442861258709500,19.51970947265625,0.7837828397750854,0.023385878652334213,0.05502665787935257
1776442861283726300,19.544726318359373,1.085921287536621,0.35136276483535767,-0.03754548728466034
1776442861308743200,19.5697431640625,1.2761461734771729,0.23351149260997772,-0.0038353849668055773
1776442861333759200,19.59475927734375,1.1130108833312988,-0.012494784779846668,-0.01880284585058689
1776442861358776300,19.6197763671875,0.9036733508110046,-0.11926154047250748,0.011066154576838017
1776442861383793400,19.64479345703125,1.0184170007705688,0.07491916418075562,0.1619243323802948
1776442861408809500,19.6698095703125,1.556725025177002,0.11882026493549347,0.24227549135684967
1776442861433826300,19.694826416015626,2.1413779258728027,0.04999227449297905,0.24689652025699615
1776442861458842400,19.71984228515625,1.9602254629135132,0.23260998725891113,0.2667335867881775
1776442861483859200,19.744859130859375,1.3792247772216797,0.34701570868492126,0.3247499167919159
1776442861508876500,19.76987646484375,1.069435477256775,0.12253855168819427,0.1556960940361023
1776442861533892600,19.794892578125,1.515162706375122,-0.8710550665855408,-0.4490821957588196
1776442861558909400,19.819909423828125,1.8614884614944458,-1.1760976314544678,-0.8886174559593201
1776442861583926500,19.844926513671876,1.9705792665481567,-0.6399530172348022,-0.9444482326507568
1776442861608942600,19.869942626953126,1.4903925657272339,-0.1053146943449974,-0.9676690697669983
1776442861633959400,19.89495947265625,0.9525822401046753,0.27647000551223755,-0.7774962782859802
1776442861658976500,19.9199765625,1.2398567199707031,-0.2442312389612198,-0.41669657826423645
1776442861683992600,19.94499267578125,1.5473544597625732,-0.5255851745605469,-0.11069287359714508
1776442861709009700,19.970009765625,1.2798770666122437,-0.4130537211894989,0.10588084906339645
1776442861734025500,19.995025390625,1.0807063579559326,-0.3665385842323303,0.10175377875566483
1776442861759042600,20.02004248046875,1.2216544151306152,-0.4530014097690582,0.15267805755138397
1776442861784059600,20.0450595703125,1.5890361070632935,-0.32561227679252625,0.4518556594848633
1776442861809075700,20.07007568359375,1.855291724205017,-0.05687164515256882,0.6010429859161377
1776442861834092500,20.095092529296874,1.9101160764694214,0.5460951328277588,0.6786801815032959
1776442861859109600,20.120109619140624,2.1221601963043213,1.1585837602615356,0.7406096458435059
1776442861884125400,20.14512548828125,2.125244140625,1.5253394842147827,0.37226542830467224
1776442861909142500,20.170142578125,1.8905521631240845,1.3157621622085571,-0.08447685092687607
1776442861934158600,20.19515869140625,1.7868702411651611,0.9288713335990906,-0.3270825743675232
1776442861959175700,20.22017578125,1.586729884147644,0.7753639221191406,-0.42631983757019043
1776442861984192500,20.245192626953123,1.4165621995925903,0.6200556755065918,-0.4078129231929779
1776442862009208300,20.270208251953125,1.3989918231964111,0.16117173433303833,-0.31789669394493103
1776442862034225400,20.295225341796876,1.5189731121063232,-0.21181155741214752,-0.06784237921237946
1776442862059242500,20.320242431640626,1.5952517986297607,-0.19881761074066162,0.032744817435741425
1776442862084258600,20.345258544921876,1.3955202102661133,0.16027964651584625,-0.11445438116788864
1776442862109275600,20.370275634765626,1.314418077468872,0.44827738404273987,-0.002544666873291135
1776442862134291700,20.395291748046876,1.3422569036483765,0.4600773751735687,0.2262798249721527
1776442862159308500,20.42030859375,1.4002660512924194,0.23688088357448578,0.3019994795322418
1776442862184325400,20.445325439453125,1.5570369958877563,0.5189515352249146,0.09873739629983902
1776442862209341400,20.470341552734375,1.3932408094406128,-0.05220413953065872,0.09759696573019028
1776442862234358500,20.495358642578125,1.3670544624328613,-0.1314830482006073,0.33260494470596313
1776442862259375600,20.520375732421876,1.2855144739151,-0.3884891867637634,0.2977517545223236
1776442862284391700,20.5453916015625,1.2512785196304321,-0.2108398973941803,0.07526194304227829
1776442862309408500,20.570408447265624,1.090843915939331,-0.32900047302246094,-0.11976546049118042
1776442862334425300,20.59542529296875,1.1917616128921509,-0.313469797372818,-0.24771060049533844
1776442862359441400,20.62044140625,1.525994062423706,-0.5957517027854919,-0.3379855155944824
1776442862384458500,20.64545849609375,1.7592319250106812,-0.43842843174934387,-0.3411204218864441
1776442862409474600,20.670474609375,1.976569414138794,-0.568519115447998,-0.42631271481513977
1776442862434491600,20.69549169921875,2.19447922706604,-0.8279980421066284,-0.6445006132125854
1776442862459508500,20.720508544921874,2.207094669342041,-1.0549100637435913,-0.4297068119049072
1776442862484524500,20.745524658203124,1.9298944473266602,-0.7442296743392944,0.07669588923454285
1776442862509541400,20.770541259765626,1.4019596576690674,-0.062425412237644196,0.20247703790664673
1776442862534558000,20.795557861328124,0.978602945804596,0.616055965423584,0.05641266331076622
1776442862559574000,20.820573974609374,0.9555364847183228,0.6871692538261414,0.0572587214410305
1776442862584591000,20.845591064453124,1.206217646598816,0.5505524277687073,0.1049160361289978
1776442862609608200,20.870608154296875,1.695762276649475,0.3354168236255646,-0.005685216747224331
1776442862634624300,20.895624267578125,2.0646560192108154,-0.16298915445804596,-0.173243910074234
1776442862659641300,20.920641357421875,1.9420902729034424,-0.17147421836853027,-0.3283546268939972
1776442862684657200,20.9456572265625,1.7562202215194702,-0.06593887507915497,-0.2900405526161194
1776442862709674200,20.97067431640625,1.9855554103851318,-0.04056481271982193,-0.13906708359718323
1776442862734691000,20.995691162109374,2.3874971866607666,-0.156226247549057,-0.1343182474374771
1776442862759707100,21.02070703125,2.334655284881592,-0.2781136929988861,-0.14475420117378235
1776442862784724200,21.04572412109375,1.9041774272918701,-0.036631278693675995,-0.1670232117176056
1776442862809741300,21.0707412109375,1.6043274402618408,0.25199586153030396,-0.2685947120189667
1776442862834757000,21.095757080078126,1.564326524734497,0.1478308141231537,-0.12147502601146698
1776442862859774200,21.120774169921877,1.4336838722229004,0.017005112022161484,-0.017714956775307655
1776442862884790300,21.145790283203127,1.2696139812469482,-0.2566925585269928,-0.04693206399679184
1776442862909807000,21.17080712890625,1.2483065128326416,-0.40470269322395325,0.011431971564888954
1776442862934824200,21.19582421875,1.3075536489486694,-0.27644598484039307,0.03399515897035599
1776442862959840000,21.220840087890625,1.303300380706787,-0.3111144006252289,0.33239519596099854
1776442862984857000,21.245857177734376,1.0827245712280273,-0.06064444035291672,0.6534684896469116
1776442863009874200,21.270874267578126,0.9228460788726807,0.41168007254600525,0.5269010066986084
1776442863034890200,21.29589013671875,1.1139404773712158,0.33412492275238037,0.22923888266086578
1776442863059907000,21.320906982421874,1.4858238697052002,0.1325768381357193,0.14332114160060883
1776442863084924200,21.345924072265625,1.6879667043685913,0.12297352403402328,0.18313413858413696
1776442863109940000,21.37093994140625,1.5154260396957397,0.3269464373588562,0.018572982400655746
1776442863134957000,21.39595703125,1.3792380094528198,0.0815877690911293,-0.015595334582030773
1776442863159973000,21.42097314453125,1.440622091293335,-0.2865629494190216,0.19733966886997223
1776442863184990200,21.445990234375,1.502022385597229,-0.2690623700618744,0.16572371125221252
1776442863210007300,21.47100732421875,1.565307378768921,-0.3425759971141815,0.058848120272159576
1776442863235023400,21.4960234375,1.4395482540130615,-0.7103628516197205,-0.13351184129714966
1776442863260040000,21.5210400390625,1.4378520250320435,-0.970639169216156,-0.23924972116947174
1776442863285057000,21.54605712890625,1.4448881149291992,-0.7606658935546875,-0.03081767074763775
1776442863310073000,21.571072998046876,1.2846076488494873,-0.4577845335006714,0.13177931308746338
1776442863335090200,21.596090087890627,0.9852113127708435,-0.14578281342983246,0.1257701963186264
1776442863360106200,21.621106201171877,0.8007920980453491,-0.059552647173404694,0.05858505144715309
1776442863385123300,21.646123291015623,1.3816609382629395,-0.3212377429008484,0.2507130801677704
1776442863410140200,21.67114013671875,1.9295353889465332,-0.7116644382476807,0.5758593082427979
1776442863435156200,21.69615625,2.4103565216064453,-0.6295152902603149,0.4914179742336273
1776442863460173000,21.721173095703126,2.985269784927368,-0.4622970223426819,0.6399014592170715
1776442863485190100,21.746190185546876,3.130629777908325,-0.4672984480857849,0.9742110371589661
1776442863510207700,21.771207763671875,2.6951475143432617,-0.3466797173023224,1.6301519870758057
1776442863535224600,21.796224609375,2.1145005226135254,-0.3416765332221985,1.940521240234375
1776442863560241700,21.82124169921875,1.7264708280563354,-0.37892407178878784,1.2321443557739258
1776442863585257700,21.8462578125,1.3297902345657349,-0.7782281041145325,0.3235115110874176
1776442863610274600,21.871274658203124,1.428826928138733,-0.5675070285797119,-0.10408143699169159
1776442863635290600,21.89629052734375,1.9219040870666504,0.004516880959272385,-0.07686837762594223
1776442863660307700,21.9213076171875,1.9498238563537598,-0.04257935285568237,-0.05502535030245781
1776442863685324500,21.946324462890626,1.9939367771148682,-0.45449307560920715,-0.041431330144405365
1776442863710340900,21.9713408203125,2.2966737747192383,-0.4191783368587494,0.1681683361530304
1776442863735357700,21.996357666015626,2.5008182525634766,-0.15047165751457214,0.19811087846755981
1776442863760374500,22.02137451171875,2.337095022201538,0.08563588559627533,-0.0533590205013752
1776442863785390600,22.046390625,2.418430805206299,0.4129779636859894,-0.5107506513595581
1776442863810407700,22.07140771484375,2.5643887519836426,0.6137943267822266,-0.5861152410507202
1776442863835424800,22.0964248046875,2.6010782718658447,0.24029794335365295,-0.12497275322675705
1776442863860440800,22.12144091796875,2.302877426147461,-0.08409065753221512,0.148411825299263
1776442863885457700,22.146457763671876,2.22900390625,-0.5586588382720947,0.19143645465373993
1776442863910473500,22.171473388671874,2.5406882762908936,-0.837993860244751,0.26693275570869446
1776442863935490600,22.196490478515624,2.6381618976593018,-0.8515318036079407,0.616955041885376
1776442863960507600,22.221507568359375,2.377896785736084,-0.9992624521255493,0.6788297295570374
1776442863985523700,22.246523681640625,2.2248082160949707,-1.201328992843628,0.644489049911499
1776442864010540800,22.271540771484375,2.1538524627685547,-0.932876467704773,0.7610682845115662
1776442864035557600,22.2965576171875,1.7793138027191162,-0.2825465202331543,1.2561757564544678
1776442864060573700,22.32157373046875,1.3498886823654175,-0.49147331714630127,1.0670028924942017
1776442864085590500,22.346590576171874,1.3773314952850342,-1.3481597900390625,0.8718551397323608
1776442864110607600,22.371607666015624,1.428108811378479,-1.7830519676208496,1.0140173435211182
1776442864135623700,22.396623779296874,1.2608922719955444,-1.8635390996932983,1.2077810764312744
1776442864160640800,22.421640869140624,1.1594651937484741,-1.4379298686981201,1.0223439931869507
1776442864185656600,22.446656494140626,1.2458500862121582,-0.8078364133834839,0.6702632308006287
1776442864210673700,22.471673583984376,1.3002326488494873,-0.9865882992744446,0.5119553804397583
1776442864235690500,22.4966904296875,1.1975300312042236,-1.2685350179672241,0.5977796912193298
1776442864260706600,22.52170654296875,1.099563479423523,-0.9179956912994385,0.6257157921791077
1776442864285723600,22.5467236328125,1.1381629705429077,-1.0662469863891602,0.721545934677124
1776442864310740700,22.57174072265625,1.2607561349868774,-1.5195140838623047,0.8250243663787842
1776442864335756500,22.596756591796876,1.308382511138916,-1.6145820617675781,0.7184264659881592
1776442864360773600,22.621773681640626,1.0692578554153442,-1.2993782758712769,0.6115154027938843
1776442864385790500,22.64679052734375,0.8887022137641907,-1.0307590961456299,0.7479598522186279
1776442864410806500,22.671806640625,0.7364317178726196,-0.8128031492233276,0.7258902192115784
1776442864435823600,22.69682373046875,0.43048012256622314,-1.4648280143737793,0.9023312330245972
1776442864460839700,22.721839599609375,0.37584924697875977,-1.7735399007797241,0.9648261666297913
1776442864485856800,22.746856689453125,0.2158946394920349,-1.6472792625427246,1.024767279624939
1776442864510872300,22.771872314453127,0.07201629132032394,-1.2415165901184082,1.030434489250183
1776442864535888400,22.796888427734373,0.058355096727609634,-0.865693986415863,1.0373857021331787
1776442864560905500,22.821905517578124,0.1380784958600998,-0.8719660639762878,1.0613386631011963
1776442864585922600,22.846922607421874,0.2440102994441986,-1.2047489881515503,1.1853212118148804
1776442864610938600,22.871938720703124,0.24854660034179688,-1.5685638189315796,1.4015963077545166
1776442864635955500,22.89695556640625,0.15395133197307587,-1.4565407037734985,1.5736616849899292
1776442864660972300,22.92197216796875,0.35479262471199036,-1.1673249006271362,1.6258437633514404
1776442864685988400,22.94698828125,0.49077117443084717,-0.7361486554145813,1.5478020906448364
1776442864711005400,22.97200537109375,0.3021872639656067,-0.8083516955375671,1.4696930646896362
1776442864736021500,22.997021484375,0.2434093952178955,-0.7764254808425903,1.3962864875793457
1776442864761038600,23.02203857421875,0.11330407112836838,-0.8147087693214417,1.2547270059585571
1776442864786055700,23.0470556640625,-0.31080859899520874,-1.0211472511291504,1.2809559106826782
1776442864811071500,23.072071533203125,-0.5660468339920044,-0.6972552537918091,1.130967617034912
1776442864836088300,23.09708837890625,-0.439619243144989,-0.7286354303359985,1.004818081855774
1776442864861105400,23.12210546875,-0.39074528217315674,-1.1123950481414795,1.0410093069076538
1776442864886121500,23.14712158203125,-0.3725833296775818,-1.1719708442687988,0.9067283868789673
1776442864911138600,23.172138671875,0.17290577292442322,-0.8814727663993835,0.8168007135391235
1776442864936155600,23.19715576171875,0.7546932697296143,-1.2093092203140259,1.0967411994934082
1776442864961171500,23.22217138671875,0.48117759823799133,-1.6012585163116455,1.4294874668121338
1776442864986188300,23.247188232421873,0.1044737845659256,-1.070050597190857,1.4840750694274902
1776442865011204600,23.27220458984375,0.04316273704171181,-0.750209391117096,1.308065414428711
1776442865036221400,23.297221435546874,0.38802826404571533,-0.873704731464386,1.1429203748703003
1776442865061238500,23.322238525390624,-0.33761921525001526,-0.5840141773223877,1.0793039798736572
1776442865086254300,23.34725439453125,-0.43622875213623047,-0.6664479970932007,1.4178906679153442
1776442865111271400,23.372271484375,-0.27362728118896484,-0.6437610387802124,1.6173086166381836
1776442865136288500,23.39728857421875,-0.02640664204955101,-0.39408236742019653,1.3090898990631104
1776442865161304600,23.4223046875,0.13590066134929657,-0.8940848112106323,1.2453166246414185
1776442865186321400,23.4473212890625,0.3555859327316284,-0.638521134853363,0.9426766633987427
1776442865211338500,23.47233837890625,0.5055825114250183,-0.30642664432525635,0.5968334674835205
1776442865236354300,23.497354248046875,0.7247461080551147,-0.35569363832473755,0.5521053075790405
1776442865261371400,23.522371337890625,0.44884979724884033,-0.272767573595047,0.7508522272109985
1776442865286388500,23.547388427734376,-0.07811762392520905,0.3445143401622772,0.9210490584373474
1776442865311404500,23.572404541015626,-0.5430046916007996,0.35044723749160767,1.1516103744506836
1776442865336421400,23.59742138671875,-0.44977179169654846,0.4318857192993164,1.4485126733779907
1776442865361437400,23.6224375,-0.1720399558544159,0.037024084478616714,1.3809783458709717
1776442865386454300,23.647454345703125,-0.10595189034938812,0.0167598407715559,1.2373387813568115
1776442865411471400,23.672471435546875,-0.17240333557128906,-0.141831174492836,1.1754745244979858
1776442865436487400,23.6974873046875,-0.394091933965683,-0.15239587426185608,0.5488182306289673
1776442865461504500,23.72250439453125,-0.4818282127380371,0.6159098744392395,0.15444119274616241
1776442865486521600,23.747521484375,-0.14770375192165375,0.8841509819030762,0.2759436368942261
1776442865511537700,23.77253759765625,-0.008325442671775818,0.057881664484739304,0.735231876373291
1776442865536554800,23.7975546875,0.15440300107002258,-0.38220512866973877,0.5111205577850342
1776442865561571800,23.82257177734375,0.6775755286216736,-0.13346223533153534,0.26664549112319946
1776442865586588000,23.847587890625,0.6568513512611389,0.0812641978263855,-0.09629018604755402
1776442865611605000,23.87260498046875,0.13461631536483765,0.3432506322860718,-0.21570488810539246
1776442865636620800,23.897620849609375,-0.564885139465332,0.20585785806179047,-0.24415749311447144
1776442865661638000,23.922637939453125,-0.296174556016922,0.2332383394241333,0.5800618529319763
1776442865686654700,23.94765478515625,0.06961727142333984,-0.4264895021915436,0.7947730422019958
1776442865711670800,23.9726708984375,0.11739552766084671,-0.29603680968284607,0.6934455633163452
1776442865736687900,23.99768798828125,-0.021603673696517944,-0.22755153477191925,0.9468059539794922
1776442865761705000,24.022705078125,-0.11920002847909927,0.5157368183135986,0.8154244422912598
1776442865786720800,24.047720703125,0.6574875712394714,-0.48183032870292664,0.8431053161621094
1776442865811737900,24.07273779296875,1.16633939743042,-1.278157114982605,1.2594866752624512
1776442865836754700,24.097754638671876,1.0308724641799927,-0.9382278919219971,0.913022518157959
1776442865861770800,24.122770751953126,0.8870207071304321,-0.46830102801322937,0.24741767346858978
1776442865886787800,24.147787841796877,0.4963691234588623,-0.42064663767814636,0.7686482071876526
1776442865911805000,24.172804931640623,0.2047061175107956,-0.2813032865524292,1.4059717655181885
1776442865936820700,24.19782080078125,0.5704084038734436,0.02353273332118988,1.2963626384735107
1776442865961837800,24.222837890625,0.694518506526947,-0.7145346403121948,1.3737881183624268
1776442865986854000,24.24785400390625,-0.16121038794517517,-0.6308714747428894,1.91964590549469
1776442866011871000,24.27287109375,-0.3875043988227844,0.4791219234466553,1.3504239320755005
1776442866036887800,24.2978876953125,-0.34924548864364624,0.5834799408912659,1.58930242061615
1776442866061903600,24.322903564453124,-0.16382338106632233,0.46984419226646423,2.219496726989746
1776442866086920700,24.347920654296875,0.19910648465156555,0.9697893261909485,1.835296392440796
1776442866111937800,24.372937744140625,0.03491814807057381,0.6277776956558228,1.399133324623108
1776442866136953900,24.397953857421875,-0.09119652211666107,0.03198891878128052,1.469208836555481
1776442866161971000,24.422970947265625,-0.3885764181613922,0.654930830001831,1.6944725513458252
1776442866186987800,24.44798779296875,-0.5335217118263245,0.16423246264457703,1.500773549079895
1776442866212003600,24.473003662109374,-0.6234660148620605,-1.2159556150436401,1.2665681838989258
1776442866237020700,24.498020751953124,-0.6276667714118958,-0.7686251401901245,1.521328091621399
1776442866262036700,24.52303662109375,-0.7865729331970215,0.1781550496816635,2.1236188411712646
1776442866287053800,24.5480537109375,-0.7583487033843994,1.077311396598816,2.0847697257995605
1776442866312071000,24.57307080078125,-0.298941969871521,1.2551952600479126,1.788384199142456
1776442866337087000,24.5980869140625,0.3975977599620819,0.9283892512321472,2.2385120391845703
1776442866362104000,24.62310400390625,0.6294761300086975,0.6459264755249023,2.40932559967041
1776442866387119900,24.648119873046873,0.4626658260822296,0.4539802372455597,2.1173839569091797
1776442866412136700,24.67313671875,0.4256890118122101,0.2533063292503357,2.2395031452178955
1776442866437152800,24.69815283203125,0.24173614382743835,-0.1692413091659546,1.977283239364624
1776442866462169900,24.723169921875,0.11275774985551834,-0.7352675795555115,1.917504906654358
1776442866487186400,24.7481865234375,-0.011982183903455734,-0.7074998617172241,2.0729851722717285
1776442866512202500,24.773202392578124,-0.11966976523399353,-0.061421237885951996,1.925339698791504
1776442866537219600,24.798219482421874,-0.19714215397834778,0.1048736497759819,2.051547050476074
1776442866562236400,24.823236328125,-0.006199248600751162,0.3778116703033447,2.0282623767852783
1776442866587252500,24.84825244140625,0.2077569216489792,0.4038451611995697,1.9895423650741577
1776442866612269300,24.873269287109373,0.1445174366235733,0.37130236625671387,1.6884249448776245
1776442866637286400,24.898286376953124,-0.06204544007778168,-0.12670215964317322,1.6391741037368774
1776442866662302500,24.923302490234374,-0.023149151355028152,-0.8914896845817566,1.79824960231781
1776442866687319600,24.948319580078124,-0.013385809026658535,-1.122510313987732,1.684206247329712
1776442866712336400,24.97333642578125,-0.021954486146569252,-0.6462739706039429,1.4164539575576782
1776442866737352400,24.9983525390625,-0.3783964216709137,-0.6329001188278198,1.096294641494751
1776442866762369300,25.023369384765626,-0.5448527932167053,-0.3419116735458374,1.1024011373519897
1776442866787385300,25.04838525390625,-0.13294504582881927,0.1845865100622177,0.9185953140258789
1776442866812402400,25.07340234375,0.18748103082180023,0.09058195352554321,0.6561272740364075
1776442866837419500,25.09841943359375,0.0853927955031395,-0.378593385219574,0.46196550130844116
1776442866862435300,25.123435302734375,-0.1730199158191681,-0.5450814962387085,0.71232670545578
1776442866887452400,25.148452392578125,-0.2777840197086334,-0.5368170738220215,1.0786595344543457
1776442866912469500,25.173469482421876,-0.21275155246257782,-0.7143312096595764,0.7890844345092773
1776442866937485600,25.198485595703126,-0.17575889825820923,-1.0108895301818848,0.7784697413444519
1776442866962502400,25.22350244140625,-0.13947033882141113,-0.3952845633029938,0.8558565974235535
1776442866987519500,25.24851953125,-0.19862450659275055,0.06086423620581627,0.9367535710334778
1776442867012535300,25.273535400390625,-0.32136696577072144,0.20660829544067383,1.0499299764633179
1776442867037552400,25.298552490234375,-0.1289602667093277,-0.24970035254955292,1.510833501815796
1776442867062568400,25.323568359375,0.16744814813137054,-0.3289410173892975,1.6512761116027832
1776442867087585500,25.34858544921875,-0.0788533017039299,-0.2470134198665619,1.3017964363098145
1776442867112602400,25.373602294921874,-0.031447939574718475,-0.1756691038608551,1.098274827003479
1776442867137618200,25.3986181640625,0.20952393114566803,0.18291781842708588,0.7061429023742676
1776442867162635300,25.42363525390625,0.3843315839767456,-0.18635083734989166,0.7235015034675598
1776442867187652400,25.44865234375,0.3581193685531616,0.05492187291383743,0.9384279847145081
1776442867212668400,25.47366845703125,0.1366172730922699,0.24850013852119446,1.1839115619659424
1776442867237685500,25.498685546875,-0.052354417741298676,0.1421813666820526,1.4031835794448853
1776442867262702600,25.52370263671875,0.061848487704992294,0.3607451617717743,1.19431471824646
1776442867287718400,25.548718505859377,-0.26180604100227356,0.10723876953125,0.6223577260971069
1776442867312735200,25.5737353515625,-0.4679025411605835,0.15997010469436646,0.760638415813446
1776442867337752300,25.59875244140625,-0.811793327331543,-0.05268032103776932,1.1050370931625366
1776442867362768400,25.623768310546875,-1.0182653665542603,-0.5324122309684753,0.6603620052337646
1776442867387785500,25.648785400390626,-0.7452611923217773,-0.3428373634815216,0.7656664848327637
1776442867412801500,25.673801513671876,-0.24740837514400482,0.2506757974624634,0.6013146042823792
1776442867437818400,25.698818359375,-0.1024385616183281,0.07553093880414963,0.2951144278049469
1776442867462835200,25.723835205078124,-0.329090416431427,-0.4620302617549896,0.42721277475357056
1776442867487852500,25.7488525390625,-0.5567014813423157,-0.41473886370658875,0.7177634239196777
1776442867512869600,25.77386962890625,-0.4170604944229126,0.06732279807329178,0.9284235239028931
1776442867537886700,25.79888671875,-0.19359730184078217,0.4452722668647766,1.1524044275283813
1776442867562902800,25.82390283203125,-0.13242743909358978,0.38027438521385193,1.1377099752426147
1776442867587919600,25.848919677734376,-0.2513033151626587,-0.24943821132183075,0.7176147699356079
1776442867612936700,25.873936767578126,-0.3569945693016052,-0.7338382601737976,0.33783963322639465
1776442867637952500,25.898952392578124,-0.37773531675338745,-0.3463722765445709,0.30294859409332275
1776442867662969600,25.923969482421874,-0.2932177782058716,-0.327551931142807,0.4437592029571533
1776442867687986700,25.948986572265625,-0.025143131613731384,-0.142647847533226,0.6986545324325562
1776442867713002800,25.974002685546875,0.4238705039024353,0.3604356646537781,0.4135185778141022
1776442867738019600,25.99901953125,0.5198844075202942,0.7976645231246948,0.6609307527542114
1776442867763035600,26.02403564453125,0.4340837299823761,0.6920484900474548,0.7583460807800293
1776442867788052500,26.049052490234374,0.013037203811109066,0.3591115474700928,0.8644753694534302
1776442867813069600,26.074069580078124,-0.36823219060897827,-0.32249656319618225,0.39238062500953674
1776442867838085600,26.099085693359374,-0.49790629744529724,-0.25574323534965515,0.48171815276145935
1776442867863102700,26.124102783203124,-0.16100244224071503,0.4329014718532562,0.8642334938049316
1776442867888119800,26.149119873046875,-0.026468049734830856,0.5869178771972656,1.0315114259719849
1776442867913135900,26.174135986328125,0.13037945330142975,0.446273535490036,0.8972042798995972
1776442867938152400,26.19915234375,0.3940685987472534,0.47107988595962524,0.42487990856170654
1776442867963169500,26.22416943359375,0.38148564100265503,0.5557734966278076,-0.02152041159570217
1776442867988185600,26.249185546875,0.039187170565128326,0.4558617174625397,1.1479172706604004
1776442868013202700,26.27420263671875,-0.28100234270095825,0.05522576719522476,1.7591404914855957
1776442868038219800,26.2992197265625,-0.2551784813404083,-0.36212414503097534,1.3430874347686768
1776442868063235800,26.32423583984375,0.112220399081707,0.30238932371139526,0.9400027394294739
1776442868088252700,26.349252685546876,0.29886746406555176,0.44292357563972473,0.8689267039299011
1776442868113268700,26.374268798828126,-0.10935250669717789,-0.07221415638923645,1.2780545949935913
1776442868138285600,26.39928564453125,-0.16433152556419373,-0.2696675658226013,1.753403902053833
1776442868163302700,26.424302734375,-0.23109851777553558,-0.20649869740009308,1.7574942111968994
1776442868188318700,26.449318603515625,-0.04753982275724411,0.41294729709625244,1.784039855003357
1776442868213335800,26.474335693359375,0.15080906450748444,0.7111964225769043,1.591633915901184
1776442868238352600,26.4993525390625,0.15740972757339478,0.7720674276351929,1.5368404388427734
1776442868263368700,26.52436865234375,-0.07062550634145737,0.568395733833313,1.4370701313018799
1776442868288385500,26.549385498046874,-0.4554460942745209,0.06714500486850739,1.7070025205612183
1776442868313402600,26.574402587890624,-0.6042948365211487,-0.17285992205142975,1.837367057800293
1776442868338418700,26.599418701171874,-0.17357227206230164,-0.043797366321086884,1.648972988128662
1776442868363435800,26.624435791015625,0.0006101735634729266,0.12958122789859772,1.5559650659561157
1776442868388452900,26.649452880859375,-0.27220579981803894,0.12423287332057953,1.6149147748947144
1776442868413468700,26.67446875,-0.45165157318115234,0.35924556851387024,1.6918381452560425
1776442868438485500,26.699485595703123,-0.12630650401115417,0.02486409991979599,1.7439320087432861
1776442868463501600,26.72450146484375,0.15273617208003998,-0.224187433719635,2.019817590713501
1776442868488517600,26.749517578125,-0.062445733696222305,-0.36021628975868225,2.1533865928649902
1776442868513534200,26.7745341796875,-0.2948382496833801,-0.38077521324157715,1.788782000541687
1776442868538550300,26.79955029296875,-0.2447119802236557,-0.3884642720222473,1.489319086074829
1776442868563567400,26.8245673828125,-0.03228168934583664,-0.37734106183052063,1.4699374437332153
1776442868588584400,26.84958447265625,0.04948332905769348,-0.20841823518276215,1.4538366794586182
1776442868613600500,26.8746005859375,-0.1917656511068344,-0.3365115225315094,1.2742352485656738
1776442868638617600,26.89961767578125,-0.22776557505130768,-0.3649400472640991,1.0428988933563232
1776442868663634200,26.92463427734375,0.1119731143116951,-0.07937762886285782,1.0366857051849365
1776442868688650500,26.949650390625,0.24092347919940948,0.2767305076122284,1.0553157329559326
1776442868713667300,26.974667236328123,0.07106329500675201,0.17875193059444427,1.2828633785247803
1776442868738684400,26.999684326171874,-0.02439238131046295,-0.00454675080254674,1.3206337690353394
1776442868763700500,27.024700439453124,-0.0028496761806309223,0.019674647599458694,0.8185060620307922
1776442868788717600,27.049717529296874,0.12527915835380554,-0.05283398553729057,1.0475150346755981
1776442868813733400,27.0747333984375,0.20797529816627502,-0.2639653980731964,1.1084094047546387
1776442868838750500,27.09975048828125,-0.2540419101715088,-0.5998201966285706,1.0881400108337402
1776442868863767300,27.124767333984376,-0.7353986501693726,-0.46065831184387207,0.6973105072975159
1776442868888783400,27.149783447265627,-0.008726248517632484,0.08395613729953766,0.5757601857185364
1776442868913800400,27.174800537109373,0.5455637574195862,0.5216507315635681,1.1086781024932861
1776442868938817500,27.199817626953124,0.20427419245243073,0.6196259260177612,0.6977960467338562
1776442868963833300,27.224833251953125,-0.36145567893981934,-0.25500401854515076,0.2748860716819763
1776442868988850400,27.249850341796876,-0.2871869206428528,-0.15433135628700256,0.6146517395973206
1776442869013867300,27.2748671875,0.26883164048194885,0.5321304202079773,0.09633553773164749
1776442869038883300,27.29988330078125,0.8393818736076355,1.477758526802063,0.264469712972641
1776442869063900400,27.324900390625,0.11829221993684769,0.7073538899421692,0.5718373656272888
1776442869088916200,27.349916259765624,-0.4964343309402466,0.46027782559394836,0.002964844461530447
1776442869113933300,27.374933349609375,-0.44587716460227966,0.3235974609851837,0.4314773380756378
1776442869138950400,27.399950439453125,-0.019770288839936256,0.4546283781528473,0.9484056234359741
1776442869163966500,27.424966552734375,0.6254081130027771,1.0022326707839966,0.7278996706008911
1776442869188983600,27.449983642578125,0.4266183376312256,1.3268778324127197,0.7582919597625732
1776442869214000400,27.47500048828125,0.17818832397460938,1.2502882480621338,0.5161697864532471
1776442869239016200,27.50001611328125,0.25152334570884705,0.3203900456428528,0.7628612518310547
1776442869264033300,27.525033203125,0.24081143736839294,-0.04867233335971832,0.7777513861656189
1776442869289050400,27.55005029296875,0.2758256196975708,-0.2089000791311264,0.7924200892448425
1776442869314066400,27.57506640625,0.033094123005867004,-0.14200757443904877,1.0010108947753906
1776442869339083500,27.60008349609375,-0.013515233062207699,0.30066052079200745,1.060285210609436
1776442869364100400,27.625100341796873,0.14539937674999237,0.07535893470048904,1.2078560590744019
1776442869389116200,27.6501162109375,-0.04410155490040779,-0.1461346596479416,1.4008313417434692
1776442869414133200,27.67513330078125,-0.43426769971847534,-0.32360604405403137,1.2840242385864258
1776442869439149300,27.7001494140625,-0.5840919017791748,0.03186944127082825,1.1413145065307617
1776442869464166400,27.72516650390625,-0.7059106826782227,0.07178155332803726,1.4187631607055664
1776442869489184300,27.750184326171876,-0.9211487174034119,-0.04893125593662262,1.576857328414917
1776442869514200300,27.775200439453126,-0.2061663717031479,0.10326600819826126,1.0861209630966187
1776442869539217200,27.800217041015625,-0.4595477283000946,-0.29098832607269287,1.3471426963806152
1776442869564234200,27.825234130859375,-0.6157841682434082,-0.3755979537963867,1.2245073318481445
1776442869589250000,27.85025,-0.37856605648994446,-0.26651731133461,1.3021451234817505
1776442869614267100,27.87526708984375,-0.35713452100753784,0.36744681000709534,1.087530255317688
1776442869639284200,27.9002841796875,-0.3952485918998718,0.7677419185638428,1.1034735441207886
1776442869664300300,27.92530029296875,-0.34124332666397095,0.9038339853286743,1.22347891330719
1776442869689317000,27.950317138671874,-0.16196011006832123,0.4436880946159363,0.8133851885795593
1776442869714334200,27.975334228515624,-0.31767651438713074,0.08165017515420914,0.533886194229126
1776442869739350000,28.00035009765625,-0.1388174295425415,-0.32458409667015076,1.0648188591003418
1776442869764367000,28.0253671875,0.011839814484119415,-0.06737402081489563,0.9049862623214722
1776442869789383200,28.050383056640626,0.30362841486930847,0.25629064440727234,0.5703083276748657
1776442869814400300,28.075400146484377,0.28469371795654297,0.6434966325759888,0.7005354166030884
1776442869839417300,28.100417236328123,-0.23209401965141296,1.1442010402679443,0.9571650624275208
1776442869864433200,28.12543310546875,-0.16900302469730377,1.462437391281128,0.7324178218841553
1776442869889450000,28.150449951171876,0.16174788773059845,1.2581634521484375,0.27484264969825745
1776442869914467000,28.175467041015626,0.34353405237197876,0.2630177140235901,-0.02167571149766445
1776442869939483100,28.200483154296876,-0.024091513827443123,-0.05911222845315933,0.4059135615825653
1776442869964500200,28.225500244140626,-0.4349611699581146,0.2627513110637665,0.7197110056877136
1776442869989517300,28.250517333984376,-0.2770703434944153,0.27552446722984314,0.9315801858901978
1776442870014533000,28.275533203125,-0.008189975284039974,0.1613388955593109,0.9342585206031799
1776442870039550000,28.300550048828125,0.10055603086948395,-0.19274578988552094,0.7357949614524841
1776442870064566000,28.32556591796875,-0.031458813697099686,-0.6244997382164001,0.6140435338020325
1776442870089583000,28.3505830078125,-0.14429888129234314,-0.5129825472831726,0.7178141474723816
1776442870114600200,28.37560009765625,-0.04070247337222099,0.09393467009067535,0.9807822108268738
1776442870139616300,28.4006162109375,-0.0039364187978208065,0.27960044145584106,1.1363118886947632
1776442870164633300,28.42563330078125,0.12849856913089752,0.06714393943548203,1.347499132156372
1776442870189650200,28.450650146484374,0.3511723279953003,0.2556266188621521,1.2658275365829468
1776442870214666200,28.475666259765624,0.5050338506698608,0.35479557514190674,0.897010862827301
1776442870239683000,28.50068310546875,0.4413681626319885,0.04560204595327377,0.9133508801460266
1776442870264700200,28.5257001953125,0.3762996792793274,-0.19791071116924286,0.8907549977302551
1776442870289716200,28.55071630859375,0.36270296573638916,0.08021466434001923,0.7796509861946106
1776442870314733300,28.5757333984375,0.43835633993148804,0.27273252606391907,0.7819284200668335
1776442870339749000,28.6007490234375,0.3620906472206116,0.0841376930475235,0.779337465763092
1776442870364766200,28.62576611328125,0.10548001527786255,0.29737389087677,0.5465564727783203
1776442870389783000,28.650782958984376,0.006283082067966461,0.5239278674125671,0.24943134188652039
1776442870414799000,28.675799072265626,0.13926832377910614,1.0391446352005005,0.3252004086971283
1776442870439816200,28.700816162109376,0.13955329358577728,0.7691419720649719,0.37046292424201965
1776442870464833300,28.725833251953127,-0.055608514696359634,0.9310495257377625,0.38766831159591675
1776442870489848800,28.750848876953125,0.24223564565181732,0.8097668886184692,0.5200072526931763
1776442870514866000,28.775865966796875,0.3911643326282501,0.7145634293556213,0.5492591857910156
1776442870539883000,28.800883056640625,0.32091519236564636,0.2931913435459137,0.2652278244495392
1776442870564898800,28.82589892578125,0.48351582884788513,1.1298376321792603,0.3684234321117401
1776442870589915600,28.85091552734375,0.6342001557350159,0.7405053973197937,0.48788484930992126
1776442870614931700,28.875931640625,0.7236193418502808,1.0020272731781006,0.8021789789199829
1776442870639948800,28.90094873046875,0.8105043172836304,1.224129319190979,0.9062924385070801
1776442870664966000,28.9259658203125,0.7872305512428284,1.134886384010315,0.8311821222305298
1776442870689981700,28.950981689453126,0.5669537782669067,0.5802948474884033,0.589881181716919
1776442870714998800,28.975998779296877,0.14424695074558258,0.4583567678928375,0.5730490684509277
1776442870740015900,29.001015869140623,-0.31394895911216736,0.4554543197154999,0.63660728931427
1776442870765032000,29.026031982421873,-0.4344044029712677,0.8974813222885132,0.4075430929660797
1776442870790048800,29.051048828125,-0.09064847975969315,0.447081059217453,0.39397335052490234
1776442870815065900,29.07606591796875,0.06859589368104935,0.3149544894695282,0.15859657526016235
1776442870840081700,29.10108154296875,-0.0984283983707428,0.4845363199710846,-0.09717101603746414
1776442870865098800,29.1260986328125,-0.22144891321659088,0.20925794541835785,0.17079785466194153
1776442870890114800,29.15111474609375,-0.11193373054265976,0.4408881366252899,0.20383422076702118
1776442870915132000,29.1761318359375,0.08497272431850433,0.4788276255130768,0.06180858984589577
1776442870940148700,29.201148681640625,0.2698477804660797,-0.30448979139328003,0.2087825983762741
1776442870965164800,29.226164794921875,0.121591717004776,-0.5065155625343323,0.19969429075717926
1776442870990181600,29.251181640625,-0.06467854976654053,0.17403125762939453,0.017102906480431557
1776442871015198700,29.27619873046875,0.17708098888397217,0.3383638262748718,-0.054776813834905624
1776442871040214800,29.30121484375,0.3620069622993469,-0.06741727888584137,-0.015350310131907463
1776442871065232000,29.32623193359375,0.3152903914451599,-0.49977490305900574,0.15138021111488342
1776442871090248700,29.351248779296874,0.006223236210644245,0.2758367657661438,0.2432018220424652
1776442871115264800,29.3762646484375,-0.22178536653518677,0.4685162305831909,0.6127029657363892
1776442871140281600,29.401281494140626,-0.36914247274398804,0.3581376075744629,0.9380744695663452
1776442871165297700,29.426297607421876,-0.4372190237045288,-0.4145764112472534,1.3432321548461914
1776442871190314800,29.451314697265627,-0.4805988073348999,-0.18717411160469055,1.2926607131958008
1776442871215331800,29.476331787109373,-0.4014013111591339,-0.13631899654865265,1.1914029121398926
1776442871240348000,29.501347900390623,-0.07273101806640625,-0.5199491381645203,1.184201955795288
1776442871265365000,29.526364990234374,0.08167575299739838,-0.2882600426673889,0.8134945631027222
1776442871290381600,29.551381591796876,0.22907929122447968,-0.13633060455322266,0.4879803955554962
1776442871315397600,29.576397705078126,0.5187622904777527,-0.4380715787410736,0.5642833709716797
1776442871340414700,29.601414794921876,0.6922301054000854,-0.49102750420570374,0.699633002281189
1776442871365431800,29.626431884765626,0.4576449692249298,-0.1790757030248642,0.5966706871986389
1776442871390447900,29.65144775390625,0.36391428112983704,0.04674176871776581,0.3728243112564087
1776442871415465000,29.67646484375,0.36281147599220276,-0.3470470607280731,0.5796648263931274
1776442871440480800,29.701480712890625,0.2156468629837036,-0.33058083057403564,0.7409763932228088
1776442871465497900,29.726497802734375,-0.07963872700929642,-0.3624257743358612,0.7155678868293762
1776442871490518000,29.75151806640625,-0.33768898248672485,-0.6158647537231445,0.8360267877578735
1776442871515534000,29.7765341796875,-0.38770928978919983,-1.0569096803665161,0.961828887462616
1776442871540551200,29.80155126953125,-0.08829724788665771,-1.2134472131729126,0.8344979882240295
1776442871565568300,29.826568359375,0.20450440049171448,-1.1150721311569214,0.5353431701660156
1776442871590584000,29.851583984375,0.2710496783256531,-0.503351092338562,0.3464428782463074
1776442871615601200,29.87660107421875,0.14643079042434692,0.1458359807729721,0.5492191910743713
1776442871640618000,29.901617919921875,0.261150985956192,0.3587639331817627,0.22761665284633636
1776442871665634000,29.926634033203126,0.48822441697120667,0.45549872517585754,-0.0021590664982795715
1776442871690651100,29.951651123046876,0.20377299189567566,0.16893242299556732,-0.01872628554701805
1776442871715667200,29.976667236328126,0.21315941214561462,-0.20214563608169556,0.28198519349098206
1776442871740684300,30.001684326171876,0.3982025384902954,0.11323310434818268,0.6818846464157104
1776442871765701000,30.026701171875,0.28795865178108215,0.25147709250450134,0.6251986622810364
1776442871790717200,30.05171728515625,0.17824335396289825,-0.0975334495306015,0.6766100525856018
1776442871815734300,30.076734375,0.22333911061286926,-1.0918126106262207,0.8675563335418701
1776442871840751000,30.101751220703125,0.611957848072052,-1.1357089281082153,0.7315029501914978
1776442871865767200,30.12676708984375,0.9667073488235474,-1.6186761856079102,0.6938600540161133
1776442871890784300,30.1517841796875,1.3465564250946045,-1.3592748641967773,0.9937481880187988
1776442871915801000,30.176801025390624,1.122615098953247,-0.950591504573822,1.3379175662994385
1776442871940817200,30.201817138671874,0.3848993480205536,-0.6025372743606567,1.4321318864822388
1776442871965834200,30.226834228515624,-0.2380269467830658,0.21533247828483582,1.2990901470184326
1776442871990850300,30.251850341796874,-0.4944108724594116,0.6936636567115784,1.0233513116836548
1776442872015867100,30.2768671875,-0.29096925258636475,0.8416115641593933,1.3667291402816772
1776442872040884200,30.30188427734375,-0.1567220389842987,0.8992754220962524,1.3899511098861694
1776442872065900000,30.326900146484373,-0.018263518810272217,0.6904986500740051,1.0632230043411255
1776442872090917000,30.351917236328124,0.2575104832649231,0.7985477447509766,1.4280180931091309
1776442872115934200,30.376934326171874,0.06635463237762451,1.2817296981811523,1.3830465078353882
1776442872140950300,30.4019501953125,-0.03724483400583267,1.1926652193069458,1.029512882232666
1776442872165967000,30.426967041015626,-0.1307416558265686,1.0943571329116821,0.4963719844818115
1776442872190984200,30.451984130859376,-0.1478971689939499,0.5937764048576355,0.1397826224565506
1776442872216000000,30.477,-0.11718197166919708,0.06704621016979218,0.07160049676895142
1776442872241017000,30.50201708984375,-0.06763897836208344,-0.5662857294082642,0.24873103201389313
1776442872266033200,30.527033203125,-0.07301308959722519,-0.4881667494773865,0.24951794743537903
1776442872291050200,30.55205029296875,-0.1859147697687149,-0.19198186695575714,0.4585277736186981
1776442872316067300,30.5770673828125,-0.12502987682819366,-0.17364346981048584,1.0965701341629028
1776442872341083100,30.602083251953125,-0.5947520732879639,-0.047666121274232864,1.4489020109176636
1776442872366100000,30.627099853515624,-1.1863248348236084,-0.411424845457077,0.8911292552947998
1776442872391117000,30.652116943359374,-0.9909385442733765,-0.47088712453842163,0.4456697404384613
1776442872416133000,30.677133056640624,-0.13970217108726501,-0.10485377162694931,0.33499619364738464
1776442872441150200,30.702150146484374,0.8059907555580139,-0.06915660202503204,0.7176940441131592
1776442872466167300,30.727167236328125,1.0298224687576294,-0.4968593418598175,1.1475090980529785
1776442872491183000,30.75218310546875,0.9663735032081604,0.4078724980354309,1.2873998880386353
1776442872516196600,30.777196533203124,0.8262420296669006,0.5539456009864807,1.4338510036468506
1776442872541212700,30.802212646484374,0.5672812461853027,0.3973113000392914,1.4508596658706665
1776442872566229500,30.8272294921875,0.2445436418056488,-0.002800620160996914,1.3516647815704346
1776442872591246600,30.85224658203125,0.012405823916196823,-0.41241779923439026,1.2652533054351807
1776442872616262400,30.877262451171877,0.028002848848700523,-0.6529162526130676,1.3028576374053955
1776442872641279500,30.902279541015623,0.3090234100818634,-0.8966995477676392,1.4864890575408936
1776442872666296600,30.927296630859374,0.3453998565673828,-0.4436115324497223,1.5173381567001343
1776442872691312600,30.952312744140624,-0.048523761332035065,-0.36728549003601074,0.8348322510719299
1776442872716329500,30.97732958984375,-0.2084367573261261,-0.42893728613853455,0.025575462728738785
1776442872741345500,31.002345458984376,-0.17535270750522614,-0.25600865483283997,0.12560634315013885
1776442872766362400,31.0273623046875,-0.23218081891536713,-0.1226024329662323,0.3213251829147339
1776442872791379500,31.05237939453125,-0.08928927034139633,0.034363023936748505,0.2224021703004837
1776442872816395500,31.0773955078125,-0.0943949893116951,-0.11064910143613815,0.4762399196624756
1776442872841412600,31.10241259765625,-0.0888003557920456,0.5068963766098022,0.8678997159004211
1776442872866429400,31.127429443359375,0.09839338064193726,0.8282016515731812,0.9172366857528687
1776442872891445800,31.15244580078125,0.25106844305992126,1.47566819190979,1.083083987236023
1776442872916462300,31.17746240234375,0.31261271238327026,3.346426010131836,1.3912962675094604
1776442872941479400,31.2024794921875,-0.535018265247345,-1.7975635528564453,1.3913344144821167
1776442872966495500,31.22749560546875,-1.8878811597824097,-0.9317020773887634,-1.9404921531677246
