time,seconds_elapsed,z,y,x
1776442841817086700,0.078086669921875,-1.02978515625,-0.19537353515625,-0.0219573974609375
1776442841842103800,0.103103759765625,-0.978607177734375,-0.139312744140625,-0.1234893798828125
1776442841867119900,0.128119873046875,-0.878631591796875,-0.1214752197265625,-0.1740875244140625
1776442841892136700,0.15313671875,-0.9490966796875,-0.1339874267578125,-0.165069580078125
1776442841917152800,0.17815283203125,-0.9339599609375,-0.1352081298828125,-0.1460723876953125
1776442841942169600,0.203169677734375,-0.8355712890625,-0.1075897216796875,-0.087310791015625
1776442841967185700,0.228185546875,-0.993194580078125,-0.1096649169921875,-0.0308837890625
1776442841992202800,0.25320263671875,-1.0316314697265625,-0.1117401123046875,0.0173187255859375
1776442842017218600,0.278218505859375,-1.0235595703125,-0.114288330078125,0.0345458984375
1776442842042235600,0.303235595703125,-1.0659332275390625,-0.1037445068359375,0.0498504638671875
1776442842067251700,0.328251708984375,-0.9528961181640625,-0.098541259765625,0.0972137451171875
1776442842092268800,0.353268798828125,-0.9278564453125,-0.1453399658203125,0.1096649169921875
1776442842117284900,0.378284912109375,-1.0366973876953125,-0.1979522705078125,0.102813720703125
1776442842142301700,0.4033017578125,-1.06365966796875,-0.187744140625,0.134124755859375
1776442842167317500,0.4283173828125,-0.9351959228515625,-0.1576995849609375,0.141021728515625
1776442842192334600,0.45333447265625,-0.9657745361328125,-0.21527099609375,0.272247314453125
1776442842217350700,0.4783505859375,-1.0638580322265625,-0.241180419921875,0.25030517578125
1776442842242367700,0.50336767578125,-0.97918701171875,-0.11376953125,0.25628662109375
1776442842267383800,0.5283837890625,-0.9227447509765625,0.037506103515625,0.222686767578125
1776442842292400600,0.553400634765625,-0.9337005615234375,0.107818603515625,0.2528228759765625
1776442842317416700,0.578416748046875,-1.0953826904296875,-0.0457763671875,0.1303863525390625
1776442842342433800,0.603433837890625,-0.9134521484375,-0.2480621337890625,-0.0237274169921875
1776442842367449900,0.628449951171875,-1.007049560546875,-0.0816497802734375,-0.090545654296875
1776442842392465700,0.653465576171875,-0.9182281494140625,0.1003570556640625,0.0036468505859375
1776442842417482500,0.678482421875,-0.9990386962890625,-0.010284423828125,-0.0160064697265625
1776442842442498600,0.70349853515625,-1.0182952880859375,-0.16912841796875,-0.0076904296875
1776442842467515400,0.728515380859375,-0.9919281005859375,-0.17852783203125,0.0764617919921875
1776442842492531200,0.75353125,-0.94512939453125,-0.2070770263671875,0.16033935546875
1776442842517548300,0.77854833984375,-1.00079345703125,-0.2117156982421875,0.214111328125
1776442842542564400,0.803564453125,-1.076080322265625,-0.15716552734375,0.148651123046875
1776442842567581400,0.82858154296875,-1.103179931640625,-0.1740875244140625,0.078399658203125
1776442842592597500,0.853597412109375,-1.04168701171875,-0.2222900390625,0.0636444091796875
1776442842617614600,0.878614501953125,-1.012298583984375,-0.19696044921875,0.0361328125
1776442842642630400,0.90363037109375,-0.95721435546875,-0.10626220703125,0.08123779296875
1776442842667647500,0.9286474609375,-0.979095458984375,-0.14422607421875,0.10595703125
1776442842692663600,0.95366357421875,-0.9627227783203125,-0.17254638671875,0.052734375
1776442842717680400,0.978680419921875,-0.9789581298828125,-0.1473541259765625,0.02984619140625
1776442842742696400,1.003696533203125,-1.004150390625,-0.1445159912109375,0.09759521484375
1776442842767713300,1.02871337890625,-1.0543212890625,-0.1458740234375,0.13177490234375
1776442842792729300,1.053729248046875,-1.059661865234375,-0.1451568603515625,0.0932159423828125
1776442842817746400,1.078746337890625,-0.9599151611328125,-0.11724853515625,0.0782928466796875
1776442842842762500,1.103762451171875,-0.996002197265625,-0.1241302490234375,0.094329833984375
1776442842867779600,1.128779541015625,-0.9872589111328125,-0.119598388671875,0.0928497314453125
1776442842892795400,1.15379541015625,-0.9598388671875,-0.1089324951171875,0.090911865234375
1776442842917812200,1.178812255859375,-0.918853759765625,-0.123748779296875,0.1001739501953125
1776442842942828500,1.20382861328125,-0.948455810546875,-0.0975189208984375,0.094970703125
1776442842967845400,1.228845458984375,-0.9788970947265625,-0.0704498291015625,0.140472412109375
1776442842992861400,1.253861328125,-0.995574951171875,-0.042327880859375,0.118377685546875
1776442843017878300,1.278878173828125,-0.9393768310546875,-0.0341339111328125,0.063262939453125
1776442843042894300,1.303894287109375,-0.962066650390625,-0.027191162109375,0.0524139404296875
1776442843067911400,1.328911376953125,-1.020721435546875,-0.034515380859375,0.024566650390625
1776442843092927500,1.353927490234375,-0.9414520263671875,-0.0382080078125,-0.047088623046875
1776442843117944600,1.378944580078125,-0.8809814453125,-0.0645751953125,-0.0340576171875
1776442843142960400,1.40396044921875,-0.9691162109375,-0.0762481689453125,0.034576416015625
1776442843167977200,1.428977294921875,-0.9791717529296875,-0.0859222412109375,0.09002685546875
1776442843192993300,1.4539931640625,-0.930572509765625,-0.0943145751953125,0.0755157470703125
1776442843218010400,1.47901025390625,-0.9790191650390625,-0.1110076904296875,0.095916748046875
1776442843243026400,1.5040263671875,-1.04559326171875,-0.0205535888671875,0.1122589111328125
1776442843268043500,1.52904345703125,-1.0440521240234375,0.044403076171875,0.119293212890625
1776442843293059300,1.554059326171875,-0.9533538818359375,0.0030670166015625,0.1007232666015625
1776442843318076400,1.579076416015625,-0.9886322021484375,-0.0193939208984375,0.135772705078125
1776442843343092500,1.604092529296875,-1.03594970703125,0.0865325927734375,0.140411376953125
1776442843368109600,1.629109619140625,-1.1573486328125,0.1216888427734375,0.1079864501953125
1776442843393125400,1.65412548828125,-0.9553985595703125,0.0189208984375,-0.01983642578125
1776442843418142200,1.67914208984375,-0.9000091552734375,-0.0436553955078125,-0.027008056640625
1776442843443158300,1.704158203125,-0.9972381591796875,-0.0030517578125,0.069305419921875
1776442843468176000,1.72917578125,-0.9039459228515625,-0.0348663330078125,-0.00054931640625
1776442843493191700,1.754191650390625,-0.951812744140625,-0.029022216796875,-0.061309814453125
1776442843518208800,1.779208740234375,-1.1116180419921875,-0.00311279296875,0.0704193115234375
1776442843543224800,1.804224853515625,-1.1763763427734375,0.040008544921875,0.082550048828125
1776442843568241000,1.829240966796875,-0.932037353515625,0.0859222412109375,-0.056396484375
1776442843593258000,1.854258056640625,-0.9372100830078125,0.0896759033203125,-0.1441497802734375
1776442843618274800,1.87927490234375,-0.9670562744140625,0.0319061279296875,0.0247802734375
1776442843643291000,1.904290771484375,-1.0646514892578125,-0.0481719970703125,0.05731201171875
1776442843668307700,1.9293076171875,-1.0902862548828125,-0.008331298828125,-0.053131103515625
1776442843693323800,1.95432373046875,-0.948944091796875,0.0703887939453125,-0.1464080810546875
1776442843718340900,1.9793408203125,-0.918853759765625,0.0149993896484375,-0.1344757080078125
1776442843743356700,2.004356689453125,-0.9443817138671875,0.0043792724609375,0.0240631103515625
1776442843768373800,2.029373779296875,-0.9959259033203125,-0.03411865234375,0.0801239013671875
1776442843793389800,2.054389892578125,-1.0413818359375,-0.079010009765625,-0.056549072265625
1776442843818407000,2.079406982421875,-0.9591827392578125,-0.0856170654296875,-0.109344482421875
1776442843843423000,2.104423095703125,-1.0171661376953125,-0.0997161865234375,-0.0435791015625
1776442843868439800,2.129439697265625,-0.998748779296875,-0.028411865234375,0.10052490234375
1776442843893455600,2.15445556640625,-1.0880584716796875,0.07830810546875,0.12872314453125
1776442843918472700,2.17947265625,-0.999664306640625,0.0520172119140625,0.0258941650390625
1776442843943488800,2.20448876953125,-0.9099273681640625,0.0158843994140625,-0.0677337646484375
1776442843968505900,2.229505859375,-0.990509033203125,-0.032073974609375,0.0023956298828125
1776442843993522000,2.25452197265625,-1.0825042724609375,-0.0508270263671875,0.0748138427734375
1776442844018538800,2.279538818359375,-0.9621734619140625,0.054351806640625,-0.0366668701171875
1776442844043554800,2.304554931640625,-0.85076904296875,0.100189208984375,-0.1728057861328125
1776442844068572000,2.329572021484375,-0.8292694091796875,-0.0206146240234375,-0.1962127685546875
1776442844093588000,2.354587890625,-1.09576416015625,-0.1419219970703125,-0.133941650390625
1776442844118604800,2.379604736328125,-0.9927520751953125,-0.1179351806640625,-0.0352935791015625
1776442844143620600,2.40462060546875,-1.0465240478515625,-0.0513916015625,0.053070068359375
1776442844168637700,2.4296376953125,-1.207489013671875,-0.0226287841796875,0.084442138671875
1776442844193653800,2.45465380859375,-1.060028076171875,-0.0471343994140625,-0.005279541015625
1776442844218670800,2.4796708984375,-0.9505615234375,-0.0005645751953125,0.02301025390625
1776442844243687000,2.50468701171875,-1.0919036865234375,0.0122833251953125,0.028350830078125
1776442844268704000,2.5297041015625,-1.08843994140625,0.0797271728515625,0.0592803955078125
1776442844293719800,2.5547197265625,-0.9058990478515625,0.1240081787109375,0.018890380859375
1776442844318737000,2.57973681640625,-0.9110107421875,0.081085205078125,0.1089019775390625
1776442844343753000,2.6047529296875,-1.034942626953125,0.0065765380859375,0.196380615234375
1776442844368769800,2.629769775390625,-1.11810302734375,0.03533935546875,0.117950439453125
1776442844393785600,2.65478564453125,-0.9632720947265625,0.0902252197265625,0.0274505615234375
1776442844418802700,2.679802734375,-0.79986572265625,0.1185455322265625,-0.047332763671875
1776442844443818800,2.70481884765625,-0.8704681396484375,0.0542755126953125,-0.063262939453125
1776442844468835000,2.7298349609375,-1.0850372314453125,0.0111083984375,0.046844482421875
1776442844493851000,2.754850830078125,-1.0012664794921875,-0.06134033203125,-0.0662841796875
1776442844518868000,2.779867919921875,-0.920257568359375,-0.0123138427734375,-0.1101531982421875
1776442844543884000,2.804884033203125,-0.9887847900390625,-0.024871826171875,-0.0367584228515625
1776442844568901000,2.829901123046875,-1.0366363525390625,0.0194091796875,0.0948944091796875
1776442844593917200,2.854917236328125,-0.9721527099609375,0.0680389404296875,0.0310821533203125
1776442844618934000,2.87993408203125,-0.93798828125,0.028900146484375,0.0821685791015625
1776442844643950000,2.9049501953125,-0.987457275390625,0.0023956298828125,0.1598358154296875
1776442844668967000,2.929966796875,-0.980560302734375,0.0317230224609375,0.12640380859375
1776442844693983000,2.95498291015625,-0.9297332763671875,0.04461669921875,0.0750732421875
1776442844719000000,2.98,-1.0291595458984375,0.025604248046875,0.072601318359375
1776442844744016000,3.005015869140625,-0.96380615234375,0.0061492919921875,0.01507568359375
1776442844769033000,3.030032958984375,-0.9858551025390625,-0.024658203125,-0.081207275390625
1776442844794049000,3.055049072265625,-1.000457763671875,-0.079193115234375,-0.016845703125
1776442844819066000,3.080066162109375,-1.1704559326171875,-0.0229644775390625,0.08697509765625
1776442844844082200,3.105082275390625,-1.0816650390625,-0.0767822265625,-0.012603759765625
1776442844869099300,3.130099365234375,-1.042816162109375,-0.09222412109375,-0.0726318359375
1776442844894115800,3.15511572265625,-1.002166748046875,0.036834716796875,-0.0255279541015625
1776442844919132000,3.1801318359375,-1.009521484375,0.017547607421875,-0.0240325927734375
1776442844944149000,3.20514892578125,-0.9720611572265625,-0.02392578125,-0.1068267822265625
1776442844969165000,3.2301650390625,-0.9276123046875,0.0360260009765625,-0.12457275390625
1776442844994182100,3.25518212890625,-0.970611572265625,0.0648956298828125,0.0736846923828125
1776442845019198000,3.280197998046875,-1.0797271728515625,0.06842041015625,0.0525665283203125
1776442845044215000,3.305215087890625,-1.06732177734375,0.008941650390625,-0.1606597900390625
1776442845069231000,3.330231201171875,-0.990234375,-0.08441162109375,-0.2961883544921875
1776442845094248000,3.355248046875,-0.9257354736328125,-0.0226898193359375,-0.3226318359375
1776442845119264000,3.380263916015625,-1.0080413818359375,-0.0580902099609375,-0.3005523681640625
1776442845144281000,3.405281005859375,-1.03338623046875,-0.0608673095703125,-0.152313232421875
1776442845169297000,3.430296875,-1.020538330078125,-0.02227783203125,-0.010162353515625
1776442845194314000,3.45531396484375,-1.009490966796875,0.0572967529296875,-0.068084716796875
1776442845219330000,3.480330078125,-0.9134368896484375,-0.0063629150390625,-0.2261962890625
1776442845244347100,3.50534716796875,-0.9873809814453125,-0.093963623046875,-0.2005462646484375
1776442845269363000,3.530363037109375,-1.056488037109375,-0.03277587890625,-0.064910888671875
1776442845294380000,3.555380126953125,-1.0303497314453125,-0.0139007568359375,-0.0455322265625
1776442845319396000,3.58039599609375,-1.108062744140625,-0.0336151123046875,-0.0430908203125
1776442845344413000,3.605412841796875,-1.0452423095703125,-0.0500335693359375,-0.17486572265625
1776442845369430000,3.630429931640625,-0.9821319580078125,-0.0748748779296875,-0.2606964111328125
1776442845394446000,3.655446044921875,-0.998199462890625,0.092437744140625,-0.097412109375
1776442845419463000,3.680462890625,-0.9040679931640625,0.0997467041015625,-0.174163818359375
1776442845444479000,3.70547900390625,-0.938079833984375,0.057373046875,-0.1795501708984375
1776442845469496300,3.730496337890625,-1.04986572265625,0.03717041015625,-0.1433563232421875
1776442845494512000,3.75551220703125,-0.96051025390625,0.0109710693359375,-0.222076416015625
1776442845519529200,3.780529296875,-0.9139862060546875,0.00140380859375,-0.2455291748046875
1776442845544545300,3.805545166015625,-1.0303955078125,0.0322418212890625,-0.1111297607421875
1776442845569562000,3.83056201171875,-0.9760284423828125,0.043060302734375,-0.137786865234375
1776442845594578200,3.855578125,-0.8881378173828125,0.016937255859375,-0.2328033447265625
1776442845619595300,3.88059521484375,-1.049591064453125,-0.0473175048828125,-0.166259765625
1776442845644611000,3.905611083984375,-1.1754608154296875,-0.02288818359375,-0.0707550048828125
1776442845669628200,3.930628173828125,-0.978118896484375,0.0027923583984375,-0.1973114013671875
1776442845694644200,3.955644287109375,-0.8126983642578125,0.0270843505859375,-0.3201751708984375
1776442845719661300,3.980661376953125,-0.8665008544921875,0.0628204345703125,-0.19781494140625
1776442845744678100,4.00567822265625,-0.96405029296875,0.0532379150390625,-0.1304473876953125
1776442845769694200,4.030694091796875,-0.92694091796875,0.0424346923828125,-0.184783935546875
1776442845794711000,4.0557109375,-0.9632568359375,0.051513671875,-0.1466064453125
1776442845819727000,4.08072705078125,-1.1299285888671875,-0.0139923095703125,-0.131134033203125
1776442845844744200,4.105744140625,-1.1142730712890625,-0.0406494140625,-0.21197509765625
1776442845869760300,4.13076025390625,-1.083099365234375,0.0535430908203125,-0.342559814453125
1776442845894777300,4.15577734375,-0.7451629638671875,0.0727691650390625,-0.2650146484375
1776442845919793200,4.180793212890625,-0.832183837890625,0.1145782470703125,-0.1209259033203125
1776442845944810200,4.205810302734375,-1.0158843994140625,0.0428466796875,-0.1424102783203125
1776442845969826300,4.230826416015625,-0.9744873046875,0.0088958740234375,-0.1917572021484375
1776442845994843100,4.255843017578125,-0.9140777587890625,0.025665283203125,-0.212127685546875
1776442846019859200,4.280859130859375,-0.89068603515625,0.01361083984375,-0.1967315673828125
1776442846044876000,4.3058759765625,-0.8638153076171875,-0.04998779296875,-0.1722564697265625
1776442846069892000,4.33089208984375,-1.007598876953125,-0.02813720703125,-0.1057586669921875
1776442846094909200,4.3559091796875,-1.0802001953125,0.05645751953125,-0.1029815673828125
1776442846119926300,4.38092626953125,-0.9723968505859375,0.0228729248046875,-0.1959381103515625
1776442846144942300,4.4059423828125,-0.9975738525390625,0.0487823486328125,-0.23052978515625
1776442846169959400,4.43095947265625,-0.9609527587890625,-0.01947021484375,-0.24530029296875
1776442846194975200,4.455975341796875,-0.9716796875,-0.0015411376953125,-0.1656036376953125
1776442846219992000,4.480991943359375,-1.003326416015625,0.076019287109375,-0.0593414306640625
1776442846245008100,4.506008056640625,-1.0025787353515625,0.115966796875,0.013519287109375
1776442846270025200,4.531025146484375,-1.0012054443359375,0.1845550537109375,-0.026611328125
1776442846295041000,4.556041015625,-0.8883209228515625,0.1587982177734375,-0.0778045654296875
1776442846320058000,4.58105810546875,-0.9387969970703125,0.1218109130859375,-0.0918121337890625
1776442846345074200,4.60607421875,-0.9882659912109375,0.1044769287109375,-0.10888671875
1776442846370091300,4.63109130859375,-0.973114013671875,0.098358154296875,-0.120086669921875
1776442846395107300,4.656107421875,-0.9662322998046875,0.09930419921875,-0.1519775390625
1776442846420124400,4.68112451171875,-0.97894287109375,0.123626708984375,-0.144287109375
1776442846445141200,4.706141357421875,-0.99005126953125,0.10443115234375,-0.076904296875
1776442846470157800,4.73115771484375,-1.0533447265625,0.0980072021484375,-0.0328369140625
1776442846495175000,4.7561748046875,-1.0362396240234375,0.146575927734375,-0.0138092041015625
1776442846520190700,4.781190673828125,-1.0001678466796875,0.1388092041015625,-0.00408935546875
1776442846545207800,4.806207763671875,-1.0377349853515625,0.1263427734375,0.0203094482421875
1776442846570223900,4.831223876953125,-1.0355224609375,0.139892578125,0.0380859375
1776442846595240700,4.85624072265625,-0.99798583984375,0.131561279296875,-0.054473876953125
1776442846620256800,4.8812568359375,-0.98736572265625,0.1281585693359375,-0.025146484375
1776442846645273600,4.906273681640625,-1.0279998779296875,0.140594482421875,0.0715179443359375
1776442846670289700,4.93128955078125,-1.041107177734375,0.169708251953125,0.0988922119140625
1776442846695306800,4.956306640625,-1.0110931396484375,0.209808349609375,0.1419219970703125
1776442846720322800,4.98132275390625,-1.0135498046875,0.1958770751953125,0.1678314208984375
1776442846745340000,5.00633984375,-1.017181396484375,0.157470703125,0.163848876953125
1776442846770357000,5.03135693359375,-0.982513427734375,0.106353759765625,0.07244873046875
1776442846795372800,5.056372802734375,-0.9876251220703125,0.019073486328125,0.09271240234375
1776442846820389600,5.0813896484375,-1.0633697509765625,-0.0399322509765625,0.131561279296875
1776442846845405700,5.10640576171875,-0.995635986328125,-0.02459716796875,0.06524658203125
1776442846870422800,5.1314228515625,-0.9777984619140625,0.00518798828125,0.0208892822265625
1776442846895438600,5.1564384765625,-0.9879913330078125,-0.0501708984375,0.069549560546875
1776442846920455700,5.18145556640625,-1.0731048583984375,-0.051727294921875,0.134368896484375
1776442846945471700,5.2064716796875,-1.053070068359375,-0.247650146484375,-0.1083984375
1776442846970488800,5.23148876953125,-0.98388671875,-0.138580322265625,0.0137786865234375
1776442846995505000,5.2565048828125,-0.9900360107421875,-0.0106964111328125,0.16552734375
1776442847020522000,5.28152197265625,-1.1152801513671875,-0.01141357421875,0.1541290283203125
1776442847045537800,5.306537841796875,-1.0616455078125,-0.0661773681640625,0.089324951171875
1776442847070554600,5.3315546875,-0.9936981201171875,-0.110198974609375,0.055816650390625
1776442847095570700,5.35657080078125,-0.89892578125,-0.142791748046875,-0.0894775390625
1776442847120587800,5.381587890625,-0.89801025390625,-0.03790283203125,-0.017059326171875
1776442847145604900,5.40660498046875,-1.0577392578125,-0.046966552734375,-0.0060882568359375
1776442847170620700,5.43162060546875,-1.0790863037109375,-0.06134033203125,-0.052276611328125
1776442847195637800,5.4566376953125,-0.938507080078125,-0.0678253173828125,-0.032958984375
1776442847220653800,5.48165380859375,-0.9649505615234375,-0.0232391357421875,-0.000946044921875
1776442847245671000,5.5066708984375,-1.042724609375,0.05987548828125,0.0375518798828125
1776442847270687000,5.53168701171875,-0.9173126220703125,0.0451507568359375,-0.053741455078125
1776442847295703800,5.556703857421875,-0.7900848388671875,-0.0411376953125,-0.14312744140625
1776442847320719600,5.5817197265625,-0.9445343017578125,-0.101043701171875,-0.0917816162109375
1776442847345736700,5.60673681640625,-1.2007598876953125,-0.031036376953125,-0.0725555419921875
1776442847370752800,5.631752685546875,-0.941680908203125,-0.0532989501953125,-0.152252197265625
1776442847395769900,5.656769775390625,-0.7707672119140625,-0.122955322265625,-0.1734466552734375
1776442847420785700,5.68178564453125,-0.922393798828125,-0.17132568359375,0.0245361328125
1776442847445802800,5.706802734375,-1.1767578125,-0.189178466796875,0.22503662109375
1776442847470819600,5.731819580078125,-1.0433807373046875,-0.1960906982421875,0.1296234130859375
1776442847495836000,5.7568359375,-0.93017578125,-0.1556243896484375,0.1230010986328125
1776442847520852700,5.781852783203125,-1.0604248046875,-0.09576416015625,0.1343231201171875
1776442847545868800,5.806868896484375,-0.9658660888671875,-0.087005615234375,0.1086883544921875
1776442847570886000,5.831885986328125,-0.8857269287109375,-0.0913848876953125,0.033935546875
1776442847595901700,5.856901611328125,-0.9692535400390625,-0.0597991943359375,-0.04290771484375
1776442847620918800,5.881918701171875,-0.978240966796875,-0.0032196044921875,0.0041046142578125
1776442847645934800,5.906934814453125,-0.9781646728515625,-0.0388641357421875,0.0121917724609375
1776442847670952000,5.931951904296875,-1.180328369140625,-0.000885009765625,0.07476806640625
1776442847695968000,5.956968017578125,-1.164520263671875,0.044464111328125,0.05841064453125
1776442847720984800,5.98198486328125,-0.97747802734375,0.049407958984375,0.0754547119140625
1776442847746000600,6.007000732421875,-0.9180450439453125,-0.0091552734375,0.0728912353515625
1776442847771017700,6.032017822265625,-1.0862884521484375,-0.0376739501953125,0.0777435302734375
1776442847796034800,6.057034912109375,-1.02545166015625,-0.0330963134765625,0.0724945068359375
1776442847821051000,6.08205078125,-0.8690338134765625,-0.0524444580078125,-0.0237884521484375
1776442847846068000,6.10706787109375,-0.96270751953125,-0.0947113037109375,0.04144287109375
1776442847871083800,6.132083740234375,-1.034393310546875,-0.1491241455078125,0.11383056640625
1776442847896100900,6.157100830078125,-1.0197296142578125,-0.1279144287109375,0.1160736083984375
1776442847921117000,6.182116943359375,-0.990386962890625,-0.0875091552734375,0.098358154296875
1776442847946133800,6.2071337890625,-0.960052490234375,-0.0758209228515625,0.121246337890625
1776442847971149800,6.23214990234375,-1.0428314208984375,-0.147857666015625,0.1318817138671875
1776442847996166700,6.257166748046875,-1.051300048828125,-0.0878448486328125,0.16607666015625
1776442848021182700,6.2821826171875,-0.99920654296875,0.0255584716796875,0.0970916748046875
1776442848046199800,6.30719970703125,-0.948516845703125,0.119598388671875,-0.0835723876953125
1776442848071215900,6.3322158203125,-0.9030303955078125,0.1159210205078125,-0.1309051513671875
1776442848096233000,6.35723291015625,-0.9514923095703125,0.0409393310546875,-0.089569091796875
1776442848121249800,6.382249755859375,-0.9874725341796875,-0.0459136962890625,-0.11767578125
1776442848146265900,6.407265869140625,-0.922821044921875,-0.071533203125,-0.1751708984375
1776442848171282700,6.43228271484375,-0.9562530517578125,-0.0379638671875,-0.157806396484375
1776442848196298800,6.457298828125,-0.896392822265625,-0.0894622802734375,-0.17425537109375
1776442848221315800,6.48231591796875,-0.9632415771484375,-0.1492462158203125,-0.1043243408203125
1776442848246332000,6.507331787109375,-1.048980712890625,-0.1258392333984375,-0.031036376953125
1776442848271348700,6.5323486328125,-1.005096435546875,-0.178436279296875,-0.073974609375
1776442848296364800,6.55736474609375,-0.978485107421875,-0.1731414794921875,-0.0137481689453125
1776442848321382000,6.5823818359375,-1.0784454345703125,-0.14703369140625,0.0701904296875
1776442848346398000,6.60739794921875,-1.0296173095703125,-0.14129638671875,0.1353912353515625
1776442848371414800,6.632414794921875,-1.0297698974609375,-0.135284423828125,0.1459197998046875
1776442848396432000,6.657431884765625,-1.04669189453125,-0.1491546630859375,0.07818603515625
1776442848421447700,6.68244775390625,-1.0014801025390625,-0.2114410400390625,-0.041900634765625
1776442848446464800,6.70746484375,-0.998870849609375,-0.2191162109375,-0.0409393310546875
1776442848471480000,6.73247998046875,-1.0377197265625,-0.1776123046875,0.02532958984375
1776442848496497000,6.757496826171875,-1.0613250732421875,-0.1611480712890625,-0.069427490234375
1776442848521513000,6.782512939453125,-0.933685302734375,-0.202545166015625,-0.175933837890625
1776442848546530000,6.807530029296875,-1.058563232421875,-0.21685791015625,-0.1530303955078125
1776442848571546000,6.832546142578125,-1.0588836669921875,-0.2015380859375,-0.1868133544921875
1776442848596563200,6.857563232421875,-0.9535675048828125,-0.0763702392578125,-0.0447845458984375
1776442848621579000,6.8825791015625,-1.052703857421875,0.028839111328125,0.015869140625
1776442848646595800,6.907595947265625,-0.938262939453125,0.001251220703125,-0.1631622314453125
1776442848671612000,6.93261181640625,-0.9381103515625,-0.0446624755859375,-0.3239593505859375
1776442848696629000,6.95762890625,-0.9017181396484375,-0.10845947265625,-0.402069091796875
1776442848721646000,6.98264599609375,-0.9909515380859375,-0.074127197265625,-0.3529052734375
1776442848746662100,7.007662109375,-1.0390625,0.0240631103515625,-0.133026123046875
1776442848771679000,7.032678955078125,-1.0001983642578125,0.186309814453125,0.067840576171875
1776442848796695000,7.057695068359375,-1.058258056640625,0.2069244384765625,-0.0134735107421875
1776442848821712100,7.082712158203125,-0.910675048828125,-0.00823974609375,-0.318206787109375
1776442848846728200,7.107728271484375,-0.932220458984375,-0.085296630859375,-0.357757568359375
1776442848871745000,7.1327451171875,-0.952606201171875,-0.0308837890625,-0.37274169921875
1776442848896760800,7.1577607421875,-0.9653472900390625,0.057098388671875,-0.20550537109375
1776442848921778000,7.18277783203125,-1.0347137451171875,0.09716796875,-0.0879364013671875
1776442848946794000,7.2077939453125,-0.995391845703125,0.0616302490234375,-0.1471710205078125
1776442848971811000,7.23281103515625,-0.991912841796875,0.074462890625,-0.1659088134765625
1776442848996828200,7.257828125,-1.0104827880859375,0.0558319091796875,-0.1940460205078125
1776442849021844200,7.28284423828125,-1.023651123046875,0.0491943359375,-0.313629150390625
1776442849046861000,7.307861083984375,-0.8546905517578125,0.187225341796875,-0.5340576171875
1776442849071877000,7.332877197265625,-0.63330078125,0.109466552734375,-0.48162841796875
1776442849096894000,7.35789404296875,-0.8420257568359375,0.117431640625,-0.15899658203125
1776442849121910000,7.382909912109375,-0.9970703125,0.0910186767578125,-0.0408935546875
1776442849146927000,7.407927001953125,-1.08990478515625,0.0458221435546875,-0.112518310546875
1776442849171943000,7.43294287109375,-1.0780029296875,0.0451202392578125,0.0002899169921875
1776442849196960000,7.4579599609375,-1.0409393310546875,0.09814453125,0.070587158203125
1776442849221976000,7.48297607421875,-0.8384857177734375,0.026519775390625,-0.203369140625
1776442849246993200,7.5079931640625,-0.8882904052734375,-0.027069091796875,-0.251190185546875
1776442849272010000,7.533010009765625,-0.997406005859375,0.0166168212890625,-0.0212554931640625
1776442849297025800,7.55802587890625,-1.0196990966796875,-0.0226593017578125,-0.045379638671875
1776442849322043000,7.58304296875,-1.0213775634765625,-0.0530242919921875,-0.1579742431640625
1776442849347059000,7.608058837890625,-0.9725341796875,-0.086334228515625,-0.2400970458984375
1776442849372076000,7.633075927734375,-0.97705078125,-0.069915771484375,-0.2063751220703125
1776442849397092000,7.658092041015625,-1.0291595458984375,-0.064727783203125,-0.1976776123046875
1776442849422109200,7.683109130859375,-0.9924774169921875,-0.049591064453125,-0.2439117431640625
1776442849447125000,7.708125,-1.015625,0.0052337646484375,-0.1912994384765625
1776442849472142300,7.733142333984375,-1.044830322265625,-0.0243072509765625,-0.186187744140625
1776442849497158400,7.758158447265625,-1.0825347900390625,-0.0415802001953125,-0.2141265869140625
1776442849522175500,7.783175537109375,-0.9314727783203125,0.0146636962890625,-0.2581024169921875
1776442849547192600,7.808192626953125,-0.9100494384765625,0.110382080078125,-0.1392669677734375
1776442849572208600,7.833208740234375,-0.9521026611328125,0.0836944580078125,-0.161224365234375
1776442849597225500,7.8582255859375,-0.9147491455078125,0.0858154296875,-0.237091064453125
1776442849622241500,7.883241455078125,-0.9134979248046875,0.1381988525390625,-0.0650177001953125
1776442849647258600,7.908258544921875,-1.0235443115234375,0.1019439697265625,-0.0380859375
1776442849672274700,7.933274658203125,-0.9999847412109375,0.0505828857421875,-0.182159423828125
1776442849697291500,7.95829150390625,-0.816558837890625,0.0702056884765625,-0.2957305908203125
1776442849722307300,7.983307373046875,-0.89886474609375,0.0472869873046875,-0.177978515625
1776442849747324400,8.008324462890625,-1.147796630859375,-0.0921630859375,-0.107513427734375
1776442849772340500,8.033340576171875,-1.22998046875,-0.2838134765625,-0.2678375244140625
1776442849797357600,8.058357666015626,-0.943511962890625,-0.060302734375,-0.23114013671875
1776442849822374700,8.083374755859374,-0.9554595947265625,-0.0255889892578125,-0.1588592529296875
1776442849847390500,8.108390380859374,-1.077972412109375,-0.07489013671875,-0.16082763671875
1776442849872407600,8.133407470703125,-0.9702606201171875,-0.0145111083984375,-0.117279052734375
1776442849897423600,8.158423583984375,-0.94317626953125,0.0571136474609375,-0.0971221923828125
1776442849922440400,8.1834404296875,-0.9654998779296875,0.03057861328125,-0.206085205078125
1776442849947456500,8.20845654296875,-0.9641876220703125,-0.0130462646484375,-0.2604522705078125
1776442849972473600,8.2334736328125,-0.962158203125,0.0036468505859375,-0.2122802734375
1776442849997489400,8.258489501953125,-0.9564056396484375,-0.0302734375,-0.3625030517578125
1776442850022506500,8.283506591796876,-0.9256439208984375,-0.14501953125,-0.420989990234375
1776442850047522600,8.3085224609375,-0.9254150390625,-0.0974273681640625,-0.2492828369140625
1776442850072539600,8.33353955078125,-1.0341339111328125,-0.018890380859375,-0.0205078125
1776442850097556500,8.358556396484374,-1.05670166015625,0.0108795166015625,0.1182708740234375
1776442850122572500,8.383572509765624,-1.0715789794921875,-0.0238494873046875,0.06939697265625
1776442850147589400,8.40858935546875,-0.995574951171875,-0.0566253662109375,-0.102325439453125
1776442850172605400,8.43360546875,-0.8794097900390625,-0.049835205078125,-0.2453460693359375
1776442850197622500,8.45862255859375,-0.860260009765625,-0.02728271484375,-0.2831268310546875
1776442850222638600,8.483638671875,-0.927734375,-0.00482177734375,-0.2255401611328125
1776442850247655700,8.50865576171875,-0.9406585693359375,0.024566650390625,-0.145233154296875
1776442850272671500,8.53367138671875,-1.0110931396484375,0.0397796630859375,-0.1429595947265625
1776442850297688600,8.5586884765625,-1.015350341796875,0.0298004150390625,-0.186279296875
1776442850322705400,8.583705322265626,-1.0231475830078125,0.056884765625,-0.2208099365234375
1776442850347721500,8.608721435546874,-0.92633056640625,0.1209259033203125,-0.240814208984375
1776442850372738600,8.633738525390624,-0.897247314453125,0.1492462158203125,-0.2619171142578125
1776442850397754400,8.65875439453125,-0.9849395751953125,0.1700439453125,-0.2465057373046875
1776442850422771500,8.683771484375,-1.004547119140625,0.200592041015625,-0.1601409912109375
1776442850447787500,8.70878759765625,-1.0427093505859375,0.2097930908203125,-0.0954742431640625
1776442850472804400,8.733804443359375,-1.0205230712890625,0.2279205322265625,-0.0260772705078125
1776442850497820400,8.7588203125,-1.022796630859375,0.2089080810546875,0.0698089599609375
1776442850522837200,8.783837158203125,-1.1193389892578125,0.1928253173828125,0.13311767578125
1776442850547853300,8.808853271484375,-1.1088409423828125,0.2654571533203125,0.0800323486328125
1776442850572870100,8.8338701171875,-0.9054718017578125,0.2892913818359375,0.0379638671875
1776442850597887200,8.85888720703125,-0.9259185791015625,0.2485504150390625,-0.001922607421875
1776442850622903300,8.8839033203125,-0.9245452880859375,0.2098846435546875,-0.0359039306640625
1776442850647920400,8.90892041015625,-0.9487762451171875,0.1705474853515625,-0.0005035400390625
1776442850672936200,8.933936279296875,-0.9598388671875,0.136566162109375,0.027313232421875
1776442850697953300,8.958953369140625,-0.9845428466796875,0.084320068359375,0.1382293701171875
1776442850722969300,8.98396923828125,-0.9550018310546875,-0.00390625,0.1924896240234375
1776442850747986400,9.008986328125,-1.026824951171875,0.0211334228515625,0.1670989990234375
1776442850773002500,9.03400244140625,-0.962066650390625,0.0541839599609375,0.1398468017578125
1776442850798019000,9.05901904296875,-0.97723388671875,0.1101226806640625,0.159820556640625
1776442850823036200,9.0840361328125,-0.9360198974609375,0.1245574951171875,0.2303009033203125
1776442850848052200,9.10905224609375,-1.02227783203125,0.0177001953125,0.0753021240234375
1776442850873069300,9.1340693359375,-1.180572509765625,-0.2203369140625,0.0135345458984375
1776442850898085400,9.15908544921875,-1.0295562744140625,0.091278076171875,0.3072967529296875
1776442850923102500,9.1841025390625,-0.9599761962890625,0.105224609375,0.179229736328125
1776442850948118300,9.2091181640625,-0.91876220703125,0.0618438720703125,0.1467742919921875
1776442850973135400,9.23413525390625,-1.123931884765625,-0.0532989501953125,0.157073974609375
1776442850998151400,9.2591513671875,-1.0652923583984375,-0.0939788818359375,0.1222991943359375
1776442851023168300,9.284168212890625,-1.0059814453125,-0.0583343505859375,0.13372802734375
1776442851048185300,9.309185302734376,-1.11669921875,-0.091461181640625,0.153076171875
1776442851073201200,9.334201171875,-1.0275726318359375,-0.108673095703125,0.105712890625
1776442851098218200,9.35921826171875,-0.935577392578125,-0.0816192626953125,0.0675811767578125
1776442851123234300,9.384234375,-0.9648284912109375,-0.0629730224609375,0.02606201171875
1776442851148251400,9.40925146484375,-0.955657958984375,-0.0495758056640625,0.047637939453125
1776442851173267500,9.434267333984375,-1.003173828125,-0.065093994140625,0.0243072509765625
1776442851198284300,9.4592841796875,-1.0103607177734375,-0.0015869140625,0.026458740234375
1776442851223300000,9.484300048828125,-0.981353759765625,0.0020599365234375,0.0581207275390625
1776442851248317200,9.509317138671875,-0.9557342529296875,-0.0118255615234375,0.07391357421875
1776442851273333200,9.534333251953125,-0.9913177490234375,0.01116943359375,0.0509185791015625
1776442851298350300,9.559350341796875,-0.9747161865234375,-0.0058135986328125,0.0339508056640625
1776442851323367400,9.584367431640626,-0.97015380859375,-0.0578765869140625,0.08746337890625
1776442851348383200,9.60938330078125,-1.0217132568359375,-0.0589752197265625,0.0943603515625
1776442851373400300,9.634400390625,-0.9717559814453125,-0.07904052734375,0.095123291015625
1776442851398416400,9.65941650390625,-0.97802734375,-0.106231689453125,0.1405181884765625
1776442851423433200,9.68443310546875,-1.0345916748046875,-0.1171417236328125,0.12750244140625
1776442851448449300,9.70944921875,-0.9931793212890625,-0.0939788818359375,0.0801544189453125
1776442851473467000,9.734466796875,-0.8838653564453125,-0.1240234375,0.0682525634765625
1776442851498484000,9.75948388671875,-0.9322509765625,-0.1667633056640625,0.082733154296875
1776442851523499800,9.784499755859375,-0.9647369384765625,-0.15667724609375,0.025604248046875
1776442851548516900,9.809516845703126,-1.052337646484375,-0.156280517578125,0.042388916015625
1776442851573533000,9.834532958984376,-0.9655914306640625,-0.14697265625,0.095703125
1776442851598549800,9.8595498046875,-1.046142578125,-0.063201904296875,0.178070068359375
1776442851623565800,9.88456591796875,-0.9571075439453125,-0.0159912109375,0.1009063720703125
1776442851648583000,9.9095830078125,-1.063720703125,0.068511962890625,0.14044189453125
1776442851673598700,9.9345986328125,-0.9396514892578125,-0.1164093017578125,0.07794189453125
1776442851698615800,9.95961572265625,-1.05401611328125,-0.0945281982421875,0.1177978515625
1776442851723633000,9.9846328125,-0.99481201171875,-0.0872955322265625,0.091552734375
1776442851748649000,10.00964892578125,-1.0276031494140625,-0.050628662109375,0.0890350341796875
1776442851773665800,10.034665771484375,-0.9948272705078125,-0.0218353271484375,0.094818115234375
1776442851798681900,10.059681884765626,-0.90386962890625,-0.0247039794921875,0.154571533203125
1776442851823698700,10.08469873046875,-1.078277587890625,0.0265655517578125,0.174835205078125
1776442851848714800,10.10971484375,-0.99249267578125,-0.0175933837890625,0.118255615234375
1776442851873731800,10.13473193359375,-1.0241241455078125,-0.0464935302734375,0.1090087890625
1776442851898748000,10.159747802734374,-0.9865264892578125,-0.10986328125,0.111846923828125
1776442851923764700,10.1847646484375,-0.9518890380859375,-0.068756103515625,0.1110076904296875
1776442851948781800,10.20978173828125,-1.0232391357421875,-0.0877838134765625,0.106536865234375
1776442851973798000,10.2347978515625,-1.0597686767578125,-0.1155548095703125,0.0664825439453125
1776442851998814700,10.259814697265625,-0.9619293212890625,-0.10821533203125,0.0635528564453125
1776442852023830800,10.284830810546875,-0.958251953125,-0.0209197998046875,0.118927001953125
1776442852048848000,10.309847900390626,-0.9996795654296875,-0.044708251953125,0.133819580078125
1776442852073863700,10.33486376953125,-1.002288818359375,-0.13555908203125,0.06427001953125
1776442852098880800,10.359880859375,-0.984649658203125,-0.1470184326171875,0.0800018310546875
1776442852123896800,10.384896728515624,-0.968353271484375,-0.14178466796875,0.0989990234375
1776442852148914000,10.409913818359374,-0.977447509765625,-0.1659698486328125,0.121337890625
1776442852173931000,10.434930908203125,-0.958343505859375,-0.1849517822265625,0.078948974609375
1776442852198946800,10.45994677734375,-0.9512786865234375,-0.1685943603515625,0.0959014892578125
1776442852223963600,10.484963623046875,-1.0227813720703125,-0.1427154541015625,0.15301513671875
1776442852248979700,10.509979736328125,-1.061737060546875,-0.08428955078125,0.1294708251953125
1776442852273996800,10.534996826171875,-0.8979339599609375,-0.12542724609375,-0.006317138671875
1776442852299012900,10.560012939453125,-0.9378509521484375,-0.1186676025390625,-0.0381011962890625
1776442852324030000,10.585030029296876,-0.976776123046875,-0.09515380859375,-0.0746307373046875
1776442852349046800,10.610046875,-0.9045867919921875,-0.083648681640625,-0.0595550537109375
1776442852374062800,10.635062744140624,-0.996917724609375,-0.1289520263671875,0.007049560546875
1776442852399079700,10.66007958984375,-1.0490570068359375,-0.1787109375,0.10968017578125
1776442852424095700,10.685095703125,-1.07745361328125,-0.1962432861328125,0.1078643798828125
1776442852449112800,10.71011279296875,-1.0085906982421875,-0.2111358642578125,0.0566558837890625
1776442852474128400,10.73512841796875,-1.04150390625,-0.1395721435546875,-0.0001373291015625
1776442852499145500,10.7601455078125,-1.001251220703125,-0.0902557373046875,0.01593017578125
1776442852524161500,10.78516162109375,-0.99072265625,-0.1092071533203125,0.00836181640625
1776442852549178600,10.8101787109375,-1.0262603759765625,-0.1144561767578125,-0.0458984375
1776442852574195700,10.83519580078125,-0.96563720703125,-0.107269287109375,-0.1329193115234375
1776442852599211500,10.86021142578125,-0.8890228271484375,-0.116180419921875,-0.156982421875
1776442852624228400,10.885228271484374,-0.9563446044921875,-0.124053955078125,-0.0364990234375
1776442852649244700,10.91024462890625,-1.03662109375,-0.1072845458984375,-0.00543212890625
1776442852674261500,10.935261474609375,-1.1016845703125,-0.036041259765625,-0.0895538330078125
1776442852699277600,10.960277587890625,-0.9940185546875,-0.02001953125,-0.12664794921875
1776442852724294700,10.985294677734375,-0.9870758056640625,-0.0347442626953125,-0.0884857177734375
1776442852749311700,11.010311767578125,-0.99847412109375,-0.0604248046875,-0.0565032958984375
1776442852774327600,11.03532763671875,-1.0312347412109375,-0.028656005859375,-0.0111083984375
1776442852799344600,11.0603447265625,-0.992767333984375,-0.045379638671875,0.04583740234375
1776442852824360700,11.085360595703126,-0.991424560546875,-0.083648681640625,0.0799407958984375
1776442852849377500,11.11037744140625,-0.9339752197265625,-0.062652587890625,0.11993408203125
1776442852874393300,11.135393310546876,-0.9983673095703125,-0.053497314453125,0.087554931640625
1776442852899410400,11.160410400390624,-0.9694671630859375,-0.109649658203125,0.049407958984375
1776442852924427500,11.185427490234375,-0.996307373046875,-0.034423828125,-0.0231781005859375
1776442852949443600,11.210443603515625,-0.9311370849609375,0.001861572265625,-0.021697998046875
1776442852974460700,11.235460693359375,-0.971435546875,-0.01226806640625,-0.01947021484375
1776442852999476700,11.260476806640625,-1.0565032958984375,-0.0262908935546875,-0.0164947509765625
1776442853024493600,11.28549365234375,-0.973602294921875,-0.0744171142578125,-0.0140228271484375
1776442853049509600,11.310509521484375,-1.00140380859375,-0.0637664794921875,-0.0039215087890625
1776442853074526500,11.3355263671875,-1.001739501953125,-0.0659942626953125,0.069793701171875
1776442853099543600,11.36054345703125,-0.9970855712890625,-0.0480194091796875,0.0496063232421875
1776442853124559600,11.3855595703125,-1.038604736328125,-0.076904296875,-0.001220703125
1776442853149576700,11.41057666015625,-0.95562744140625,-0.088104248046875,-0.016693115234375
1776442853174592500,11.435592529296875,-1.0098419189453125,-0.0563812255859375,-0.0005950927734375
1776442853199609600,11.460609619140625,-1.010528564453125,-0.051422119140625,0.0298614501953125
1776442853224625700,11.485625732421875,-1.03662109375,-0.0535888671875,-0.021026611328125
1776442853249642500,11.510642578125,-1.0100250244140625,-0.0102081298828125,-0.07147216796875
1776442853274659600,11.53565966796875,-1.0069732666015625,0.028717041015625,-0.0571136474609375
1776442853299675400,11.56067529296875,-1.0175628662109375,0.0055694580078125,0.010467529296875
1776442853324692500,11.5856923828125,-1.0098114013671875,-0.0288543701171875,0.010009765625
1776442853349708500,11.61070849609375,-1.00457763671875,-0.015777587890625,-0.015045166015625
1776442853374725600,11.6357255859375,-1.055389404296875,0.0515899658203125,-0.0487213134765625
1776442853399741700,11.66074169921875,-0.917572021484375,0.03558349609375,-0.0926361083984375
1776442853424758800,11.6857587890625,-1.03192138671875,0.058013916015625,0.0091705322265625
1776442853449775400,11.710775390625,-0.9976806640625,0.0442962646484375,0.0710296630859375
1776442853474792000,11.7357919921875,-0.967498779296875,0.0042572021484375,0.0327301025390625
1776442853499808800,11.760808837890625,-0.9663543701171875,-0.0193328857421875,-0.0024261474609375
1776442853524824800,11.785824951171875,-0.9630584716796875,-0.03240966796875,-0.014984130859375
1776442853549842000,11.810842041015626,-0.95806884765625,-0.0361328125,-0.016082763671875
1776442853574858000,11.83585791015625,-0.998046875,-0.0153656005859375,0.032928466796875
1776442853599875000,11.860875,-1.0198211669921875,-0.0086212158203125,0.0249176025390625
1776442853624892000,11.885891845703124,-0.9835662841796875,-0.014678955078125,0.0028228759765625
1776442853649907700,11.91090771484375,-0.977264404296875,0.0008697509765625,0.0197906494140625
1776442853674924800,11.9359248046875,-0.958526611328125,-0.01007080078125,-0.0109710693359375
1776442853699940900,11.96094091796875,-0.9811859130859375,-0.0121002197265625,0.0091705322265625
1776442853724958000,11.9859580078125,-0.984466552734375,0.0088043212890625,0.0021514892578125
1776442853749974000,12.01097412109375,-1.0007171630859375,0.0210113525390625,-0.0281982421875
1776442853774990800,12.035990966796875,-0.9714508056640625,-0.0237884521484375,-0.044891357421875
1776442853800008000,12.061008056640626,-1.0235443115234375,-0.0381011962890625,-0.0994415283203125
1776442853825024000,12.08602392578125,-1.01336669921875,-0.0008087158203125,-0.0684051513671875
1776442853850040800,12.111040771484374,-1.0030975341796875,-0.0187530517578125,-0.0662841796875
1776442853875057000,12.136056884765624,-0.957183837890625,-0.054107666015625,-0.057708740234375
1776442853900074000,12.161073974609375,-0.9901275634765625,-0.0660552978515625,-0.0267333984375
1776442853925090800,12.1860908203125,-1.036895751953125,-0.01104736328125,0.0032806396484375
1776442853950107000,12.21110693359375,-0.947174072265625,0.012451171875,-0.0354766845703125
1776442853975124000,12.2361240234375,-1.2238616943359375,0.0963134765625,-0.0790252685546875
1776442854000140000,12.26114013671875,-0.9694671630859375,-0.039306640625,0.0009918212890625
1776442854025156900,12.286156982421875,-1.0098114013671875,-0.031494140625,0.027313232421875
1776442854050173000,12.3111728515625,-0.9243011474609375,-0.0544891357421875,-0.05303955078125
1776442854075189800,12.336189697265626,-0.907196044921875,-0.1209564208984375,-0.112396240234375
1776442854100206800,12.361206787109374,-1.0673370361328125,-0.0695953369140625,-0.02056884765625
1776442854125223000,12.386222900390624,-1.187408447265625,-0.0849609375,-0.0157623291015625
1776442854150240000,12.411239990234375,-0.900482177734375,-0.023193359375,-0.075653076171875
1776442854175256000,12.436256103515625,-0.911041259765625,-0.063629150390625,-0.16790771484375
1776442854200273000,12.46127294921875,-0.9734039306640625,-0.065948486328125,-0.1474761962890625
1776442854225289700,12.486289794921875,-0.93646240234375,-0.045989990234375,-0.0976715087890625
1776442854250305800,12.511305908203125,-1.0142669677734375,-0.002044677734375,-0.1519927978515625
1776442854275323000,12.536322998046876,-0.996612548828125,-0.0921478271484375,-0.233489990234375
1776442854300339000,12.5613388671875,-0.99371337890625,-0.1583404541015625,-0.3150177001953125
1776442854325356000,12.58635595703125,-0.933258056640625,-0.2178497314453125,-0.3109588623046875
1776442854350371800,12.611371826171874,-1.0265960693359375,-0.1975250244140625,-0.183685302734375
1776442854375389000,12.636388916015624,-1.0751953125,-0.1871185302734375,-0.1409912109375
1776442854400405800,12.66140576171875,-1.043212890625,-0.1591644287109375,-0.133544921875
1776442854425422000,12.686422119140625,-0.950927734375,-0.1332855224609375,-0.151641845703125
1776442854450439000,12.71143896484375,-1.0062713623046875,-0.1873626708984375,-0.2333984375
1776442854475454000,12.736453857421875,-0.9955902099609375,-0.1816558837890625,-0.274139404296875
1776442854500470800,12.761470703125,-0.92071533203125,-0.16046142578125,-0.28509521484375
1776442854525487900,12.78648779296875,-0.9638214111328125,-0.1612091064453125,-0.2674713134765625
1776442854550504000,12.81150390625,-0.9615631103515625,-0.155670166015625,-0.272125244140625
1776442854575521000,12.83652099609375,-0.9181976318359375,-0.1161041259765625,-0.2224884033203125
1776442854600537000,12.861537109375,-0.952789306640625,-0.1076202392578125,-0.238037109375
1776442854625554000,12.886553955078124,-0.9548797607421875,-0.0956878662109375,-0.3406982421875
1776442854650570000,12.911570068359374,-0.906219482421875,-0.158905029296875,-0.3014068603515625
1776442854675586800,12.9365869140625,-0.8834075927734375,-0.2674713134765625,-0.3084869384765625
1776442854700604000,12.96160400390625,-0.960113525390625,-0.0217742919921875,-0.3382720947265625
1776442854725620000,12.986619873046875,-0.9301300048828125,0.0283660888671875,-0.4733123779296875
1776442854750637000,13.011636962890625,-0.8282012939453125,-0.245269775390625,-0.4938507080078125
1776442854775652900,13.03665283203125,-1.036651611328125,-0.2974090576171875,-0.4838104248046875
1776442854800670000,13.061669921875,-1.020538330078125,-0.202392578125,-0.296661376953125
1776442854825687000,13.08668701171875,-0.9257965087890625,-0.1865692138671875,-0.3597869873046875
1776442854850703000,13.111703125,-0.926239013671875,-0.313690185546875,-0.496795654296875
1776442854875720000,13.136719970703124,-0.972076416015625,-0.306243896484375,-0.443634033203125
1776442854900735700,13.16173583984375,-0.939483642578125,-0.1248931884765625,-0.201873779296875
1776442854925752800,13.1867529296875,-0.879486083984375,-0.018707275390625,-0.1875762939453125
1776442854950770000,13.21177001953125,-0.8731536865234375,-0.08221435546875,-0.26324462890625
1776442854975786000,13.236785888671875,-0.9160919189453125,-0.09600830078125,-0.250762939453125
1776442855000803000,13.261802978515625,-0.904693603515625,-0.1141357421875,-0.250732421875
1776442855025819100,13.286819091796875,-0.9665374755859375,-0.1881103515625,-0.29638671875
1776442855050836000,13.3118359375,-0.9770660400390625,-0.20770263671875,-0.3281402587890625
1776442855075852000,13.33685205078125,-0.9506378173828125,-0.1533966064453125,-0.3154754638671875
1776442855100868900,13.361868896484374,-0.91070556640625,-0.0877227783203125,-0.2938690185546875
1776442855125886000,13.386885986328124,-0.8642578125,-0.058624267578125,-0.32891845703125
1776442855150902000,13.411902099609375,-0.87994384765625,-0.088897705078125,-0.39581298828125
1776442855175919000,13.436919189453125,-0.8998260498046875,-0.13092041015625,-0.41876220703125
1776442855200935000,13.461934814453125,-0.949859619140625,-0.1295928955078125,-0.3803863525390625
1776442855225952000,13.486951904296875,-0.9916229248046875,-0.080413818359375,-0.416046142578125
1776442855250968800,13.51196875,-0.9955902099609375,-0.0347442626953125,-0.414581298828125
1776442855275985000,13.53698486328125,-0.958251953125,-0.015289306640625,-0.3616790771484375
1776442855301002000,13.562001953125,-0.968048095703125,0.0048980712890625,-0.3448333740234375
1776442855326017800,13.587017822265626,-0.884735107421875,0.0067596435546875,-0.50830078125
1776442855351035000,13.612034912109374,-0.822052001953125,0.0102996826171875,-0.421600341796875
1776442855376052000,13.637052001953125,-1.016937255859375,0.02020263671875,-0.3030548095703125
1776442855401068000,13.662068115234375,-0.978424072265625,0.009124755859375,-0.368316650390625
1776442855426085000,13.687085205078125,-0.9067535400390625,-0.0157928466796875,-0.450439453125
1776442855451101200,13.71210107421875,-0.9105377197265625,0.0619964599609375,-0.320098876953125
1776442855476118300,13.7371181640625,-0.87872314453125,0.10089111328125,-0.31768798828125
1776442855501135400,13.76213525390625,-0.9079132080078125,0.0716400146484375,-0.3803863525390625
1776442855526151400,13.7871513671875,-0.9540252685546875,0.0175628662109375,-0.4051666259765625
1776442855551168500,13.81216845703125,-0.9770660400390625,0.046966552734375,-0.3499908447265625
1776442855576184600,13.8371845703125,-0.88287353515625,0.0457000732421875,-0.3642425537109375
1776442855601201400,13.862201416015624,-0.87335205078125,0.0652313232421875,-0.3864288330078125
1776442855626218200,13.88721826171875,-0.96942138671875,0.0384368896484375,-0.41522216796875
1776442855651234300,13.912234375,-0.984344482421875,0.047149658203125,-0.439666748046875
1776442855676251400,13.93725146484375,-0.910980224609375,0.104949951171875,-0.323486328125
1776442855701267500,13.962267333984375,-0.929595947265625,0.12188720703125,-0.26422119140625
1776442855726284500,13.987284423828125,-0.9193115234375,0.1132659912109375,-0.29022216796875
1776442855751301400,14.01230126953125,-0.971343994140625,0.0962677001953125,-0.357696533203125
1776442855776317400,14.0373173828125,-0.9242095947265625,0.0714111328125,-0.3871917724609375
1776442855801334300,14.062334228515626,-0.986724853515625,0.0970306396484375,-0.343505859375
1776442855826350300,14.087350341796874,-0.9889678955078125,0.0782012939453125,-0.3382568359375
1776442855851367400,14.112367431640624,-0.894317626953125,0.11651611328125,-0.3303680419921875
1776442855876384500,14.137384521484375,-0.9402313232421875,0.123321533203125,-0.3187255859375
1776442855901400300,14.162400390625,-0.8874359130859375,0.1159210205078125,-0.36090087890625
1776442855926417400,14.18741748046875,-0.9169769287109375,0.12847900390625,-0.373077392578125
1776442855951433500,14.21243359375,-0.8830108642578125,0.1117095947265625,-0.356781005859375
1776442855976450600,14.237450439453125,-0.8896636962890625,0.09698486328125,-0.37042236328125
1776442856001467400,14.26246728515625,-0.9001007080078125,0.12860107421875,-0.299285888671875
1776442856026483200,14.287483154296876,-1.0051422119140625,0.2085723876953125,-0.3108367919921875
1776442856051500300,14.312500244140624,-0.90240478515625,0.1643829345703125,-0.46795654296875
1776442856076516400,14.337516357421874,-0.817718505859375,0.1537322998046875,-0.4424285888671875
1776442856101533400,14.362533447265625,-0.8851318359375,0.230377197265625,-0.1544647216796875
1776442856126550500,14.387550537109375,-0.9706878662109375,0.215972900390625,0.05535888671875
1776442856151566600,14.412566650390625,-1.025299072265625,0.0740814208984375,-0.0538330078125
1776442856176583200,14.437583251953125,-0.985015869140625,0.0982208251953125,-0.1593780517578125
1776442856201599200,14.46259912109375,-0.965667724609375,0.177215576171875,-0.23583984375
1776442856226616300,14.4876162109375,-0.95166015625,0.2884368896484375,-0.20220947265625
1776442856251633400,14.51263330078125,-0.898345947265625,0.2519378662109375,-0.2658538818359375
1776442856276649500,14.5376494140625,-0.976806640625,0.17938232421875,-0.294708251953125
1776442856301666600,14.56266650390625,-0.983123779296875,0.2173919677734375,-0.16754150390625
1776442856326682400,14.587682373046874,-0.9415740966796875,0.201263427734375,-0.0886688232421875
1776442856351699500,14.612699462890625,-1.0348358154296875,0.1722259521484375,-0.174896240234375
1776442856376716300,14.63771630859375,-0.936553955078125,0.083038330078125,-0.196563720703125
1776442856401732400,14.662732421875,-1.0347442626953125,0.0590972900390625,-0.2784423828125
1776442856426749400,14.68774951171875,-0.8321685791015625,0.1885223388671875,-0.4161834716796875
1776442856451765200,14.71276513671875,-0.94140625,0.2750396728515625,-0.2809906005859375
1776442856476782000,14.737781982421875,-1.0059356689453125,0.2891082763671875,-0.182769775390625
1776442856501799200,14.762799072265626,-1.0116424560546875,0.26483154296875,-0.137542724609375
1776442856526815000,14.78781494140625,-0.8315887451171875,0.32647705078125,-0.0144195556640625
1776442856551832000,14.81283203125,-0.9642181396484375,0.28466796875,-0.1702880859375
1776442856576848100,14.83784814453125,-0.9514312744140625,0.3343353271484375,-0.1078948974609375
1776442856601865000,14.862864990234375,-0.9420928955078125,0.3525848388671875,-0.1681365966796875
1776442856626882000,14.887882080078125,-0.89312744140625,0.264373779296875,-0.2454986572265625
1776442856651898000,14.912898193359375,-0.912017822265625,0.1987762451171875,-0.1622467041015625
1776442856676915000,14.9379150390625,-0.9648284912109375,0.1334075927734375,-0.1290435791015625
1776442856701932000,14.96293212890625,-0.9708099365234375,0.09051513671875,-0.0930328369140625
1776442856726948000,14.987947998046875,-1.018707275390625,0.0569305419921875,-0.0608978271484375
1776442856751965000,15.01296484375,-1.0044403076171875,0.110748291015625,0.041473388671875
1776442856776981000,15.03798095703125,-1.0055694580078125,0.2213592529296875,0.175872802734375
1776442856801998000,15.062998046875,-1.01617431640625,0.2426605224609375,0.216705322265625
1776442856827015000,15.088014892578125,-0.917205810546875,0.2205047607421875,0.153076171875
1776442856852031000,15.113031005859375,-1.0740966796875,0.2288055419921875,0.18304443359375
1776442856877048000,15.138048095703125,-1.110595703125,0.1737213134765625,0.2173004150390625
1776442856902064000,15.163064208984375,-0.943695068359375,0.0863189697265625,0.018402099609375
1776442856927081200,15.188081298828125,-0.997039794921875,0.1085205078125,0.0562591552734375
1776442856952098000,15.21309814453125,-1.032257080078125,0.113983154296875,0.079803466796875
1776442856977113900,15.23811376953125,-1.0023345947265625,0.0702972412109375,-0.003509521484375
1776442857002131000,15.263130859375,-0.9608001708984375,0.0623321533203125,0.039581298828125
1776442857027147000,15.28814697265625,-0.9871826171875,0.1135406494140625,0.1046142578125
1776442857052164000,15.3131640625,-1.01129150390625,0.037506103515625,0.0335845947265625
1776442857077181200,15.33818115234375,-0.994598388671875,0.004302978515625,0.0222015380859375
1776442857102197000,15.363197021484375,-1.0395050048828125,0.000823974609375,0.0344390869140625
1776442857127214000,15.388214111328125,-1.0688018798828125,-0.002166748046875,0.173828125
1776442857152230100,15.413230224609375,-0.933074951171875,-0.062713623046875,0.017425537109375
1776442857177247000,15.4382470703125,-1.0030059814453125,0.01080322265625,0.05242919921875
1776442857202264000,15.46326416015625,-1.008056640625,0.1151885986328125,0.13226318359375
1776442857227280100,15.488280029296876,-1.066741943359375,0.0469970703125,0.090972900390625
1776442857252297000,15.513296875,-1.12237548828125,-0.035888671875,-0.050567626953125
1776442857277314000,15.53831396484375,-0.797332763671875,-0.016265869140625,0.099609375
1776442857302330000,15.563330078125,-1.0211029052734375,-0.0494232177734375,0.0183563232421875
1776442857327347000,15.588346923828125,-1.0855865478515625,-0.1188201904296875,0.09765625
1776442857352363000,15.613363037109375,-1.062042236328125,-0.08441162109375,0.1179046630859375
1776442857377380000,15.638380126953125,-1.0236968994140625,-0.0025177001953125,-0.0518035888671875
1776442857402397000,15.66339697265625,-0.9505157470703125,0.033935546875,-0.1464996337890625
1776442857427413000,15.6884130859375,-1.0196990966796875,-0.3406982421875,-0.308074951171875
1776442857452430000,15.71343017578125,-0.9223175048828125,-0.008697509765625,-0.024688720703125
1776442857477447200,15.738447265625,-0.7902069091796875,0.059967041015625,-0.196807861328125
1776442857502464300,15.76346435546875,-0.89556884765625,0.04925537109375,-0.312225341796875
1776442857527481000,15.788481201171875,-1.0797119140625,-0.0252532958984375,-0.10760498046875
1776442857552497200,15.8134970703125,-1.1017303466796875,-0.0521697998046875,0.0214996337890625
1776442857577514200,15.83851416015625,-1.1007080078125,-0.0849456787109375,-0.1303863525390625
1776442857602530300,15.8635302734375,-0.9392547607421875,-0.0663909912109375,-0.0977325439453125
1776442857627547400,15.88854736328125,-1.0172882080078125,-0.081451416015625,-0.0939483642578125
1776442857652564200,15.913564208984376,-0.9546661376953125,-0.009002685546875,-0.1557159423828125
1776442857677580000,15.938580078125,-0.914459228515625,-0.00634765625,-0.099945068359375
1776442857702597000,15.96359716796875,-0.958770751953125,-0.046600341796875,-0.110443115234375
1776442857727614200,15.9886142578125,-0.987640380859375,-0.0332489013671875,-0.0221710205078125
1776442857752630300,16.01363037109375,-1.015106201171875,-0.047943115234375,0.064849853515625
1776442857777647400,16.0386474609375,-0.884490966796875,-0.0950469970703125,0.0556182861328125
1776442857802663200,16.0636630859375,-0.935699462890625,-0.1438140869140625,0.12591552734375
1776442857827680000,16.088679931640623,-1.1125335693359375,-0.0589447021484375,0.1992034912109375
1776442857852697000,16.113697021484374,-0.996337890625,-0.06475830078125,0.089691162109375
1776442857877713200,16.138713134765624,-0.843719482421875,-0.140472412109375,-0.008575439453125
1776442857902730200,16.163730224609374,-0.9716949462890625,-0.106048583984375,0.0141143798828125
1776442857927746300,16.188746337890624,-1.076934814453125,-0.041656494140625,0.1478118896484375
1776442857952763100,16.21376318359375,-0.9713134765625,-0.0595550537109375,0.149932861328125
1776442857977780200,16.2387802734375,-0.937713623046875,-0.1042938232421875,0.08404541015625
1776442858002796300,16.26379638671875,-0.9807586669921875,-0.1308135986328125,0.079254150390625
1776442858027813000,16.288813232421877,-1.05328369140625,-0.17620849609375,0.1936187744140625
1776442858052830200,16.313830322265623,-1.0226287841796875,-0.1577911376953125,0.2120513916015625
1776442858077846300,16.33884619140625,-1.00164794921875,-0.1791534423828125,0.163665771484375
1776442858102863400,16.36386328125,-1.0854339599609375,-0.14666748046875,0.1624603271484375
1776442858127879200,16.388879150390625,-1.077301025390625,-0.1633758544921875,0.1398162841796875
1776442858152896300,16.413896240234376,-0.96246337890625,-0.16351318359375,0.14471435546875
1776442858177913000,16.4389130859375,-0.9659576416015625,-0.1741790771484375,0.1001739501953125
1776442858202929200,16.46392919921875,-1.004791259765625,-0.1381378173828125,0.080474853515625
1776442858227946200,16.4889462890625,-0.9794464111328125,-0.184051513671875,0.11199951171875
1776442858252962000,16.513962158203125,-0.9736480712890625,-0.1806182861328125,0.0488128662109375
1776442858277979100,16.538979248046875,-0.92724609375,-0.1666412353515625,-0.0220947265625
1776442858302996200,16.563996337890625,-0.9365386962890625,-0.1471099853515625,0.0207672119140625
1776442858328012300,16.58901220703125,-0.99102783203125,-0.018402099609375,0.0938873291015625
1776442858353029400,16.614029296875,-0.95648193359375,0.0407562255859375,0.0791473388671875
1776442858378046200,16.639046142578124,-0.913604736328125,0.020233154296875,0.02716064453125
1776442858403062000,16.66406201171875,-1.0330352783203125,0.1961822509765625,0.13916015625
1776442858428079000,16.6890791015625,-0.9082489013671875,0.0987091064453125,0.2063140869140625
1776442858453095200,16.71409521484375,-0.905029296875,-0.0554351806640625,0.1142120361328125
1776442858478112300,16.7391123046875,-1.002349853515625,-0.2302703857421875,-0.260040283203125
1776442858503129300,16.76412939453125,-1.0108184814453125,-0.0670623779296875,-0.1088409423828125
1776442858528145400,16.7891455078125,-0.9332122802734375,0.046234130859375,0.03289794921875
1776442858553162000,16.814161865234375,-0.9467010498046875,0.006378173828125,0.011505126953125
1776442858578179000,16.839178955078125,-1.0377655029296875,-0.0507659912109375,-0.05999755859375
1776442858603195100,16.864195068359376,-0.99664306640625,-0.0403289794921875,-0.1418609619140625
1776442858628212200,16.889212158203126,-1.0830078125,-0.0665283203125,-0.1524505615234375
1776442858653228300,16.914228271484376,-1.0213775634765625,-0.0463104248046875,-0.0762786865234375
1776442858678245400,16.939245361328126,-1.0190582275390625,0.0003204345703125,-0.12548828125
1776442858703262200,16.96426220703125,-0.9334564208984375,-0.0049591064453125,-0.221832275390625
1776442858728278300,16.9892783203125,-0.8807373046875,-0.038543701171875,-0.22979736328125
1776442858753295000,17.014295166015625,-0.9856719970703125,-0.030303955078125,-0.2256317138671875
1776442858778311200,17.039311279296875,-0.9510498046875,-0.0438079833984375,-0.2371978759765625
1776442858803328300,17.064328369140625,-0.97064208984375,-0.0904083251953125,-0.29443359375
1776442858828345300,17.089345458984376,-0.9784698486328125,-0.061431884765625,-0.338043212890625
1776442858853361200,17.114361083984374,-0.9293060302734375,-0.0150299072265625,-0.3281402587890625
1776442858878378200,17.139378173828124,-0.9257354736328125,-0.0003509521484375,-0.32049560546875
1776442858903395000,17.16439501953125,-0.8960113525390625,0.0584869384765625,-0.344573974609375
1776442858928411100,17.1894111328125,-0.9150848388671875,0.049072265625,-0.439239501953125
1776442858953428200,17.21442822265625,-0.920257568359375,0.005523681640625,-0.4418487548828125
1776442858978444000,17.239444091796877,-0.9499359130859375,0.0194244384765625,-0.3952484130859375
1776442859003461000,17.264461181640623,-0.916046142578125,0.0929107666015625,-0.3595123291015625
1776442859028478200,17.289478271484374,-0.9434051513671875,0.118743896484375,-0.2940673828125
1776442859053494300,17.314494384765624,-0.95721435546875,0.039581298828125,-0.3531341552734375
1776442859078511400,17.339511474609374,-0.9387359619140625,-0.017852783203125,-0.40032958984375
1776442859103528200,17.364528076171876,-0.9839324951171875,-0.0387725830078125,-0.3964996337890625
1776442859128544000,17.3895439453125,-0.9513092041015625,-0.0318450927734375,-0.384307861328125
1776442859153561000,17.41456103515625,-0.8880767822265625,-0.016204833984375,-0.317230224609375
1776442859178577200,17.4395771484375,-0.9674072265625,0.026275634765625,-0.244903564453125
1776442859203594200,17.46459423828125,-1.0346221923828125,-0.008331298828125,-0.220977783203125
1776442859243621000,17.50462109375,-0.9440155029296875,-0.0116729736328125,-0.2140655517578125
1776442859283647200,17.544647216796875,-0.9806060791015625,0.0325927734375,-0.24896240234375
1776442859323674000,17.584674072265624,-0.9891204833984375,0.16656494140625,-0.1904754638671875
1776442859363700200,17.6247001953125,-1.0308685302734375,-0.0312652587890625,-0.172271728515625
1776442859403727400,17.664727294921875,-1.0170135498046875,-0.040924072265625,-0.08544921875
1776442859443754200,17.704754150390624,-1.0133819580078125,-0.032257080078125,-0.0658416748046875
1776442859483779000,17.744779052734376,-0.9927978515625,0.041412353515625,0.043975830078125
1776442859523806200,17.78480615234375,-0.9181976318359375,0.12493896484375,-0.0809478759765625
1776442859563832000,17.82483203125,-0.95635986328125,-0.0929107666015625,-0.4174346923828125
1776442859603859000,17.86485888671875,-1.025238037109375,-0.07757568359375,-0.19384765625
1776442859643886000,17.904885986328125,-1.086761474609375,-0.0679168701171875,-0.1772918701171875
1776442859683912000,17.944911865234374,-1.1507110595703125,-0.179168701171875,-0.23004150390625
1776442859723938800,17.984938720703123,-1.0933685302734375,0.047637939453125,-0.0149688720703125
1776442859763965200,18.024965087890624,-0.7344207763671875,0.0804595947265625,-0.3011322021484375
1776442859803992000,18.064991943359374,-0.9106292724609375,0.0809783935546875,-0.233367919921875
1776442859844019000,18.10501904296875,-0.8424224853515625,0.066162109375,-0.1719512939453125
1776442859884045000,18.145045166015624,-1.057830810546875,-0.0455169677734375,-0.114288330078125
1776442859924072000,18.185072021484373,-0.9042205810546875,-0.0097808837890625,-0.1481475830078125
1776442859964098000,18.22509814453125,-0.9514312744140625,0.02471923828125,-0.0785675048828125
1776442860004125200,18.265125244140624,-1.015838623046875,-0.0184783935546875,-0.0885772705078125
1776442860044152000,18.305152099609376,-0.9654388427734375,0.0282745361328125,-0.11553955078125
1776442860084178000,18.345177978515625,-1.22821044921875,-0.1145477294921875,-0.0558013916015625
1776442860124205000,18.385205078125,-0.9859771728515625,-0.0221405029296875,-0.0623779296875
1776442860164231200,18.425231201171876,-0.9199981689453125,0.0467681884765625,-0.13140869140625
1776442860204258000,18.465258056640625,-0.9366302490234375,-0.000732421875,-0.1465301513671875
1776442860244285200,18.50528515625,-0.85430908203125,0.0820770263671875,-0.1691436767578125
1776442860284311000,18.54531103515625,-0.970611572265625,-0.0565948486328125,-0.1295928955078125
1776442860324338000,18.585337890625,-1.200469970703125,-0.05816650390625,0.076751708984375
1776442860364364000,18.625364013671874,-1.0754547119140625,-0.032440185546875,0.0112152099609375
1776442860404391200,18.66539111328125,-0.9584808349609375,0.0522613525390625,-0.19281005859375
1776442860444418000,18.70541796875,-0.9207916259765625,0.005126953125,-0.2886199951171875
1776442860484444400,18.7454443359375,-0.9225616455078125,0.0175933837890625,-0.2419586181640625
1776442860524471300,18.78547119140625,-1.0890655517578125,0.0415496826171875,0.000152587890625
1776442860564497200,18.8254970703125,-1.05718994140625,-0.021270751953125,0.1398773193359375
1776442860604524300,18.865524169921876,-1.016448974609375,-0.066497802734375,0.0465240478515625
1776442860644551200,18.90555126953125,-0.9366607666015625,0.180816650390625,0.0592193603515625
1776442860684577300,18.945577392578127,-1.0012969970703125,0.1461029052734375,0.0291595458984375
1776442860724604400,18.9856044921875,-1.0456085205078125,0.0296478271484375,-0.0860748291015625
1776442860764631300,19.02563134765625,-1.0142669677734375,0.0515289306640625,-0.0487213134765625
1776442860804657200,19.0656572265625,-0.9664306640625,0.1025238037109375,-0.08514404296875
1776442860844684300,19.105684326171875,-1.0088653564453125,0.0706787109375,-0.117095947265625
1776442860884710400,19.14571044921875,-1.0100860595703125,0.0478363037109375,-0.1396331787109375
1776442860924737300,19.1857373046875,-1.019989013671875,0.1164398193359375,-0.0138092041015625
1776442860964764400,19.225764404296875,-1.030029296875,0.0995941162109375,-0.055084228515625
1776442861004790300,19.265790283203124,-1.0164642333984375,0.077301025390625,-0.0989532470703125
1776442861044817200,19.305817138671873,-1.001373291015625,0.0359954833984375,-0.0611724853515625
1776442861084843500,19.345843505859374,-1.0040435791015625,0.018035888671875,-0.0139007568359375
1776442861124870400,19.385870361328124,-1.0376129150390625,-0.0645599365234375,0.0773468017578125
1776442861164897300,19.425897216796876,-1.01568603515625,-0.1290740966796875,0.0771331787109375
1776442861204923400,19.46592333984375,-0.942352294921875,-0.101104736328125,0.02740478515625
1776442861244950300,19.5059501953125,-0.956695556640625,-0.094207763671875,-0.01959228515625
1776442861284976000,19.54597607421875,-0.9598236083984375,-0.126373291015625,-0.070465087890625
1776442861325003300,19.586003173828125,-1.017669677734375,-0.0687408447265625,0.0765380859375
1776442861365030400,19.626030517578126,-0.984771728515625,-0.0213623046875,-0.032196044921875
1776442861405056300,19.66605615234375,-1.0147705078125,-0.11553955078125,-0.0686798095703125
1776442861445083400,19.70608349609375,-1.046844482421875,-0.0956573486328125,-0.0032806396484375
1776442861485109500,19.746109619140626,-0.943572998046875,-0.074798583984375,0.04638671875
1776442861525136400,19.786136474609375,-1.1899566650390625,-0.22064208984375,0.04296875
1776442861565163500,19.82616357421875,-1.0426025390625,-0.1198883056640625,-0.083892822265625
1776442861605189600,19.866189697265625,-0.8542938232421875,-0.0346527099609375,-0.0581207275390625
1776442861645216500,19.906216552734374,-0.965789794921875,0.0531158447265625,-0.03399658203125
1776442861685242400,19.946242431640623,-1.0143585205078125,0.0910797119140625,-0.09869384765625
1776442861725269500,19.98626953125,-0.9851226806640625,0.0731658935546875,-0.085296630859375
1776442861765296400,20.02629638671875,-1.0079345703125,0.0783538818359375,-0.1561279296875
1776442861805322800,20.06632275390625,-0.9898834228515625,0.088226318359375,-0.1776275634765625
1776442861845349600,20.106349609375,-0.925994873046875,0.0099029541015625,-0.1975860595703125
1776442861885376500,20.14637646484375,-0.9791412353515625,-0.0558013916015625,-0.0892486572265625
1776442861925402600,20.186402587890626,-1.0251312255859375,-0.051727294921875,0.0002288818359375
1776442861965429500,20.226429443359375,-0.9650421142578125,-0.0157470703125,0.0100250244140625
1776442862005455600,20.26645556640625,-1.032989501953125,0.021820068359375,0.090972900390625
1776442862045482800,20.306482666015626,-0.9525909423828125,0.01397705078125,0.061187744140625
1776442862085509600,20.346509521484375,-1.0048980712890625,0.034881591796875,0.0038299560546875
1776442862125535500,20.386535400390624,-0.9234619140625,0.0360565185546875,0.03009033203125
1776442862165562600,20.426562744140625,-1.0179443359375,0.0198211669921875,0.068572998046875
1776442862205588500,20.46658837890625,-1.1482391357421875,0.024932861328125,0.0992431640625
1776442862245615400,20.506615478515624,-0.9805908203125,-0.020660400390625,0.1157379150390625
1776442862285642500,20.546642578125,-1.0639801025390625,-0.0538787841796875,0.0573883056640625
1776442862325668600,20.586668701171874,-1.0205078125,0.006256103515625,0.0034942626953125
1776442862365695500,20.626695556640627,-0.937408447265625,-0.0551910400390625,0.0228424072265625
1776442862405721300,20.666721435546876,-1.0270233154296875,-0.0618896484375,0.02593994140625
1776442862445748500,20.70674853515625,-1.020111083984375,0.0738983154296875,0.0107269287109375
1776442862485775400,20.746775390625,-0.91912841796875,0.1730499267578125,-0.067108154296875
1776442862525801200,20.78680126953125,-0.984771728515625,0.03485107421875,-0.123046875
1776442862565828000,20.826828125,-1.0218963623046875,0.0101776123046875,-0.0736541748046875
1776442862605855200,20.866855224609374,-1.0337371826171875,-0.02557373046875,0.0086669921875
1776442862645881000,20.906881103515627,-1.04058837890625,-0.0328826904296875,0.02960205078125
1776442862685908000,20.946907958984376,-0.9897918701171875,0.0415496826171875,-0.0578765869140625
1776442862725934300,20.986934326171873,-1.001708984375,0.0135955810546875,-0.0572967529296875
1776442862765961200,21.026961181640626,-1.0157623291015625,0.0528717041015625,0.0076141357421875
1776442862805988000,21.066988037109375,-0.952728271484375,0.101348876953125,0.010986328125
1776442862846014200,21.10701416015625,-0.9515228271484375,0.121612548828125,0.0494842529296875
1776442862886041000,21.147041015625,-0.964599609375,0.1214447021484375,0.0694580078125
1776442862926067200,21.187067138671875,-0.916595458984375,0.090576171875,0.021240234375
1776442862966094300,21.22709423828125,-0.923126220703125,0.116180419921875,0.0278472900390625
1776442863006121200,21.267121337890625,-0.9463348388671875,-0.015228271484375,-0.0115203857421875
1776442863046147000,21.30714697265625,-1.0629730224609375,-0.0853424072265625,-0.014739990234375
1776442863086174200,21.34717431640625,-1.044158935546875,-0.1041107177734375,-0.003326416015625
1776442863126200300,21.387200439453125,-1.05133056640625,-0.035369873046875,0.100067138671875
1776442863166227200,21.427227294921874,-1.0606842041015625,-0.059600830078125,0.0654754638671875
1776442863206254300,21.46725439453125,-1.0296783447265625,-0.0771942138671875,0.0592041015625
1776442863246280200,21.5072802734375,-1.081146240234375,-0.0265655517578125,0.0588836669921875
1776442863286307000,21.54730712890625,-0.962310791015625,0.04168701171875,-0.0992279052734375
1776442863326334200,21.587334228515626,-0.9719390869140625,0.002777099609375,-0.10186767578125
1776442863366360000,21.627360107421875,-0.99847412109375,0.0142669677734375,-0.08245849609375
1776442863406387200,21.66738720703125,-1.040679931640625,0.04156494140625,-0.1267242431640625
1776442863446413000,21.7074130859375,-0.97369384765625,-0.1000518798828125,-0.2500152587890625
1776442863486441700,21.747441650390623,-0.9173126220703125,-0.0045623779296875,-0.1358642578125
1776442863526468900,21.78746875,-0.961517333984375,0.0046844482421875,-0.0722198486328125
1776442863566494700,21.82749462890625,-1.154388427734375,-0.11907958984375,0.033050537109375
1776442863606521600,21.867521484375,-1.0780029296875,-0.1501617431640625,-0.2542266845703125
1776442863646547500,21.90754736328125,-0.98101806640625,-0.2343597412109375,-0.3162841796875
1776442863686574600,21.94757470703125,-1.021453857421875,-0.1423492431640625,-0.2386627197265625
1776442863726601700,21.987601806640626,-0.9560089111328125,-0.1885986328125,-0.33990478515625
1776442863766627600,22.027627685546875,-1.06427001953125,-0.142333984375,-0.28887939453125
1776442863806654700,22.06765478515625,-0.9389190673828125,-0.0833282470703125,-0.3423004150390625
1776442863846680600,22.1076806640625,-0.918670654296875,0.047515869140625,-0.119232177734375
1776442863886707500,22.14770751953125,-0.9492340087890625,0.0924072265625,-0.1212615966796875
1776442863926734600,22.187734619140624,-0.893096923828125,0.0427093505859375,-0.2938079833984375
1776442863966760700,22.2277607421875,-0.957611083984375,0.0983428955078125,-0.1774139404296875
1776442864006787600,22.26778759765625,-0.841949462890625,0.1047210693359375,-0.34490966796875
1776442864046814700,22.307814697265623,-0.9087982177734375,0.090484619140625,-0.20831298828125
1776442864086840600,22.347840576171876,-1.0108489990234375,-0.00714111328125,-0.2501678466796875
1776442864126867700,22.38786767578125,-0.8734588623046875,-0.0221710205078125,-0.35174560546875
1776442864166893800,22.427893798828126,-0.869171142578125,-0.0471954345703125,-0.5204010009765625
1776442864206920700,22.467920654296876,-0.91302490234375,-0.040679931640625,-0.49420166015625
1776442864246947800,22.50794775390625,-0.8084716796875,-0.0126800537109375,-0.5239105224609375
1776442864286973700,22.5479736328125,-0.8382720947265625,-0.037689208984375,-0.5416107177734375
1776442864327000600,22.58800048828125,-0.89019775390625,-0.012542724609375,-0.6123199462890625
1776442864367027700,22.62802783203125,-0.7385101318359375,0.0234222412109375,-0.6616363525390625
1776442864407053800,22.6680537109375,-0.7128753662109375,0.0330963134765625,-0.62701416015625
1776442864447080700,22.708080810546875,-0.7321624755859375,0.0456085205078125,-0.6332855224609375
1776442864487105300,22.748105224609375,-0.59661865234375,0.051910400390625,-0.7420654296875
1776442864527132400,22.78813232421875,-0.5460968017578125,0.0179290771484375,-0.8203125
1776442864567159300,22.8281591796875,-0.5641021728515625,0.010162353515625,-0.8097991943359375
1776442864607185400,22.868185302734375,-0.5067901611328125,0.0019378662109375,-0.8353729248046875
1776442864647212500,22.908212646484376,-0.434783935546875,-0.0496063232421875,-0.9752960205078125
1776442864687238400,22.94823828125,-0.40972900390625,-0.082916259765625,-0.9575653076171875
1776442864727265300,22.988265380859374,-0.4588470458984375,-0.06866455078125,-0.87237548828125
1776442864767292400,23.02829248046875,-0.425079345703125,-0.08721923828125,-0.801422119140625
1776442864807318500,23.068318603515625,-0.30682373046875,-0.161224365234375,-0.8911590576171875
1776442864847345400,23.108345458984374,-0.3063507080078125,-0.1863555908203125,-0.9059906005859375
1776442864887372500,23.14837255859375,-0.2650909423828125,-0.19134521484375,-0.979248046875
1776442864927398400,23.1883984375,-0.104156494140625,-0.19091796875,-1.045257568359375
1776442864967425300,23.22842529296875,-0.0489349365234375,-0.104217529296875,-0.9197845458984375
1776442865007451600,23.26845166015625,-0.10150146484375,-0.171783447265625,-1.01904296875
1776442865047478500,23.308478515625,-0.08087158203125,-0.16656494140625,-1.016448974609375
1776442865087505400,23.34850537109375,0.054840087890625,-0.160491943359375,-1.0478973388671875
1776442865127531500,23.388531494140626,0.0623931884765625,-0.2562255859375,-1.04986572265625
1776442865167558400,23.428558349609375,0.000152587890625,-0.264923095703125,-1.0525665283203125
1776442865207585300,23.468585205078124,0.061859130859375,-0.27099609375,-1.0354766845703125
1776442865247611600,23.508611572265625,0.1937255859375,-0.1527557373046875,-0.9830474853515625
1776442865287638500,23.548638427734375,0.2010650634765625,-0.07012939453125,-0.935028076171875
1776442865327664400,23.588664306640624,0.1757049560546875,-0.097808837890625,-0.9622650146484375
1776442865367691500,23.62869140625,0.1961669921875,-0.1396484375,-0.95343017578125
1776442865407718400,23.668718505859374,0.151092529296875,-0.22235107421875,-0.9532623291015625
1776442865447744300,23.708744140625,-0.098480224609375,-0.2092437744140625,-1.0301055908203125
1776442865487771600,23.748771728515624,0.176544189453125,-0.1233367919921875,-1.099700927734375
1776442865527798800,23.788798828125,0.0020904541015625,-0.1286468505859375,-1.0011138916015625
1776442865567825000,23.828824951171875,0.048797607421875,-0.2723846435546875,-1.055816650390625
1776442865607851800,23.868851806640624,0.1174163818359375,-0.132568359375,-0.8582763671875
1776442865647878000,23.9088779296875,0.198760986328125,-0.0504608154296875,-0.95916748046875
1776442865687904800,23.94890478515625,0.0565948486328125,-0.0984344482421875,-1.0081787109375
1776442865727931600,23.988931640625,0.1195526123046875,-0.0839385986328125,-0.984466552734375
1776442865767958800,24.028958740234376,0.126312255859375,-0.108917236328125,-1.10968017578125
1776442865807985000,24.06898486328125,0.0965576171875,-0.240386962890625,-1.0189208984375
1776442865848011800,24.10901171875,0.1886138916015625,-0.13958740234375,-1.0376739501953125
1776442865888039000,24.149038818359376,0.199310302734375,-0.0343780517578125,-0.9364471435546875
1776442865928064800,24.189064697265625,0.3309478759765625,-0.0098419189453125,-0.94940185546875
1776442865968091600,24.229091552734374,0.2477264404296875,-0.0012664794921875,-0.789764404296875
1776442866008118800,24.269118896484375,0.24542236328125,0.1240997314453125,-0.9970855712890625
1776442866048145000,24.309144775390624,0.2609100341796875,0.0489501953125,-0.933563232421875
1776442866088171800,24.349171875,0.1875762939453125,-0.04620361328125,-0.9951324462890625
1776442866128198000,24.389197998046875,0.0604095458984375,-0.013427734375,-0.8963775634765625
1776442866168224800,24.429224853515624,0.1167144775390625,0.017242431640625,-0.9210357666015625
1776442866208251600,24.469251708984373,-0.013275146484375,0.019500732421875,-0.916229248046875
1776442866248278000,24.509278076171874,0.3524322509765625,0.0588531494140625,-1.03350830078125
1776442866288305000,24.549304931640624,0.21624755859375,0.0110931396484375,-1.03485107421875
1776442866328331800,24.589331787109376,0.1220550537109375,-0.0451202392578125,-1.0460205078125
1776442866368358000,24.62935791015625,0.0425872802734375,0.0289459228515625,-0.972442626953125
1776442866408383700,24.6693837890625,-0.020263671875,0.09967041015625,-1.0194854736328125
1776442866448410600,24.70941064453125,-0.066436767578125,0.085723876953125,-0.9615325927734375
1776442866488437500,24.7494375,0.0770416259765625,0.115509033203125,-1.051544189453125
1776442866528463400,24.78946337890625,0.0530242919921875,0.1261444091796875,-1.0224456787109375
1776442866568490500,24.829490478515623,0.0498199462890625,0.105010986328125,-1.07464599609375
1776442866608517400,24.869517333984376,-0.01629638671875,0.06048583984375,-0.95538330078125
1776442866648543200,24.909543212890625,-0.061981201171875,0.136383056640625,-0.952606201171875
1776442866688570600,24.949570556640627,-0.054962158203125,0.104095458984375,-1.02734375
1776442866728597500,24.989597412109376,-0.032928466796875,0.1165008544921875,-0.960784912109375
1776442866768623400,25.029623291015625,0.0452880859375,0.111236572265625,-1.1117706298828125
1776442866808650500,25.069650390625,-0.035858154296875,0.018798828125,-1.0233306884765625
1776442866848676400,25.10967626953125,0.0061187744140625,0.1019287109375,-0.9037017822265625
1776442866888703200,25.149703125,0.06890869140625,0.1016387939453125,-1.0081787109375
1776442866928730400,25.18973046875,0.0546722412109375,0.0506439208984375,-0.9342193603515625
1776442866968756500,25.229756591796875,0.1975860595703125,0.095733642578125,-1.1110382080078125
1776442867008783400,25.269783447265624,0.1280059814453125,0.1515960693359375,-0.9510650634765625
1776442867048810500,25.309810546875,0.0798797607421875,0.0483551025390625,-0.9669189453125
1776442867088836400,25.34983642578125,0.1746673583984375,0.081451416015625,-0.957916259765625
1776442867128863200,25.38986328125,0.2329254150390625,0.0450286865234375,-0.975311279296875
1776442867168889600,25.4298896484375,0.1992645263671875,0.052398681640625,-1.0211334228515625
1776442867208916500,25.46991650390625,0.226318359375,0.1899871826171875,-1.0152587890625
1776442867248943400,25.509943359375,0.056121826171875,0.130828857421875,-0.94586181640625
1776442867288969500,25.549969482421876,0.0598602294921875,0.1607208251953125,-0.9375152587890625
1776442867328996400,25.589996337890625,0.1306304931640625,0.2345428466796875,-1.0206451416015625
1776442867369023200,25.630023193359374,0.0449676513671875,0.089569091796875,-1.0354156494140625
1776442867409049600,25.670049560546875,0.15997314453125,0.00146484375,-0.9971771240234375
1776442867449076500,25.710076416015625,0.0631103515625,0.0579376220703125,-1.044952392578125
1776442867489103600,25.750103515625,0.1473541259765625,0.120269775390625,-0.954376220703125
1776442867529130800,25.790130859375,0.178253173828125,0.0422821044921875,-0.961700439453125
1776442867569157600,25.83015771484375,0.1046295166015625,0.007537841796875,-0.96502685546875
1776442867609183500,25.87018359375,0.03076171875,-0.0189208984375,-0.9712371826171875
1776442867649210600,25.910210693359375,0.202484130859375,-0.0164642333984375,-1.019073486328125
1776442867689237500,25.950237548828124,0.230072021484375,-0.049652099609375,-1.035858154296875
1776442867729263600,25.990263671875,0.2479705810546875,-0.017120361328125,-0.99066162109375
1776442867769290800,26.030290771484374,0.1309661865234375,0.0377960205078125,-0.96392822265625
1776442867809316600,26.070316650390627,-0.1433258056640625,0.142852783203125,-0.977447509765625
1776442867849343500,26.110343505859376,0.19061279296875,0.0218658447265625,-1.02130126953125
1776442867889370600,26.15037060546875,0.1566619873046875,-0.022003173828125,-1.0117340087890625
1776442867929396700,26.190396728515626,0.0089874267578125,0.02105712890625,-1.059356689453125
1776442867969424000,26.230423828125,-0.1060943603515625,0.1688385009765625,-0.9387969970703125
1776442868009450800,26.27045068359375,0.164031982421875,0.0665740966796875,-1.0439605712890625
1776442868049476600,26.3104765625,0.060943603515625,-0.040008544921875,-1.0115814208984375
1776442868089503700,26.350503662109375,-0.013580322265625,0.0392303466796875,-1.02398681640625
1776442868129529600,26.390529541015624,0.012664794921875,0.1056060791015625,-0.9446258544921875
1776442868169556700,26.430556640625,0.07568359375,-0.0083160400390625,-0.9774627685546875
1776442868209583900,26.470583984375,0.088836669921875,-0.0489654541015625,-1.048248291015625
1776442868249609700,26.510609619140624,-0.1213836669921875,0.15155029296875,-0.936737060546875
1776442868289636600,26.55063671875,-0.087921142578125,0.022674560546875,-0.9402313232421875
1776442868329663700,26.590663818359374,-0.1358642578125,-0.052032470703125,-1.055450439453125
1776442868369689600,26.630689697265623,-0.071685791015625,-0.003509521484375,-0.9906005859375
1776442868409716500,26.670716552734376,-0.058135986328125,0.0028839111328125,-0.891448974609375
1776442868449742600,26.71074267578125,-0.098052978515625,-0.1258697509765625,-1.119354248046875
1776442868489768400,26.7507685546875,-0.059356689453125,-0.0010833740234375,-0.977386474609375
1776442868529795300,26.79079541015625,-0.1627655029296875,-0.0749053955078125,-1.0087890625
1776442868569821400,26.830821533203125,-0.0826873779296875,-0.0845184326171875,-1.0863800048828125
1776442868609848600,26.8708486328125,-0.0587005615234375,-0.0080108642578125,-0.9659423828125
1776442868649875500,26.91087548828125,0.0073089599609375,-0.0702667236328125,-1.02789306640625
1776442868689901300,26.9509013671875,0.054718017578125,-0.0855255126953125,-0.9759979248046875
1776442868729928400,26.990928466796873,0.032745361328125,-0.0565338134765625,-0.9651336669921875
1776442868769954600,27.03095458984375,-0.002410888671875,-0.048004150390625,-0.963531494140625
1776442868809981400,27.0709814453125,0.04608154296875,-0.086883544921875,-1.0404815673828125
1776442868850008600,27.111008544921877,-0.0357513427734375,0.089263916015625,-0.7671051025390625
1776442868890034400,27.151034423828126,0.147430419921875,-0.1988067626953125,-1.206695556640625
1776442868930061300,27.191061279296875,0.01141357421875,-0.047607421875,-0.9195098876953125
1776442868970088400,27.23108837890625,-0.1193084716796875,0.08050537109375,-0.9602203369140625
1776442869010114300,27.2711142578125,0.02239990234375,-0.228790283203125,-1.0776824951171875
1776442869050141400,27.311141357421874,-0.0795440673828125,-0.0190887451171875,-0.9849090576171875
1776442869090167600,27.35116748046875,-0.2030181884765625,0.059783935546875,-0.7783355712890625
1776442869130194400,27.3911943359375,0.210601806640625,-0.212646484375,-1.096710205078125
1776442869170221300,27.43122119140625,0.02001953125,-0.115753173828125,-1.112823486328125
1776442869210247400,27.471247314453127,-0.2301177978515625,0.069549560546875,-0.898468017578125
1776442869250274300,27.5112744140625,-0.1551361083984375,-0.0253143310546875,-1.1049957275390625
1776442869290301400,27.551301513671874,-0.18438720703125,0.041595458984375,-0.986968994140625
1776442869330327600,27.59132763671875,-0.0782623291015625,0.058441162109375,-0.919097900390625
1776442869370354400,27.6313544921875,-0.1324310302734375,-0.027923583984375,-1.0408172607421875
1776442869410381300,27.67138134765625,-0.2106475830078125,-0.04742431640625,-0.8961029052734375
1776442869450407400,27.711407470703126,-0.1776275634765625,-0.0053253173828125,-0.8454742431640625
1776442869490435000,27.75143505859375,-0.1053314208984375,-0.1790313720703125,-0.810516357421875
1776442869530461200,27.791461181640624,-0.1545257568359375,-0.1414031982421875,-0.94122314453125
1776442869570488300,27.83148828125,-0.131103515625,-0.1417388916015625,-0.985076904296875
1776442869610515200,27.87151513671875,-0.03302001953125,-0.1521759033203125,-0.977783203125
1776442869650541000,27.911541015625,-0.0787506103515625,-0.20452880859375,-1.018829345703125
1776442869690568200,27.951568115234377,-0.293182373046875,-0.2388763427734375,-0.8983917236328125
1776442869730595000,27.991594970703126,-0.2182159423828125,-0.18939208984375,-1.1165924072265625
1776442869770621200,28.03162109375,-0.09661865234375,-0.2904052734375,-1.0162353515625
1776442869810648300,28.0716484375,-0.02117919921875,-0.2959136962890625,-0.9859619140625
1776442869850674200,28.111674072265625,-0.0859222412109375,-0.1429595947265625,-0.9677581787109375
1776442869890701000,28.151701171875,-0.2899017333984375,-0.3127593994140625,-0.809600830078125
1776442869930728200,28.191728271484376,-0.334503173828125,-0.169677734375,-0.98577880859375
1776442869970754000,28.231754150390625,-0.2479400634765625,-0.2012786865234375,-0.975067138671875
1776442870010781000,28.271781005859374,-0.282806396484375,-0.3204498291015625,-0.940460205078125
1776442870050807300,28.311807373046875,-0.2684326171875,-0.2691650390625,-0.9270172119140625
1776442870090834200,28.351834228515624,-0.188873291015625,-0.2900848388671875,-0.93243408203125
1776442870130861000,28.391861083984374,-0.1333465576171875,-0.28009033203125,-0.9563751220703125
1776442870170887200,28.43188720703125,-0.19805908203125,-0.3352813720703125,-0.878936767578125
1776442870210914000,28.4719140625,-0.1491546630859375,-0.3916168212890625,-0.883087158203125
1776442870250941000,28.51194091796875,-0.1219940185546875,-0.3015289306640625,-0.9608917236328125
1776442870290967300,28.55196728515625,0.049957275390625,-0.2950439453125,-0.9202117919921875
1776442870330994200,28.591994140625,-0.0305328369140625,-0.272857666015625,-1.009521484375
1776442870371020000,28.63202001953125,0.0549163818359375,-0.256866455078125,-0.9950408935546875
1776442870411047200,28.672047119140625,-0.0481719970703125,-0.28570556640625,-0.9959716796875
1776442870451074000,28.712073974609375,-0.1886749267578125,-0.243011474609375,-0.963287353515625
1776442870491100000,28.752099853515624,-0.29364013671875,-0.3300323486328125,-1.0394287109375
1776442870531126800,28.792126708984377,-0.2277374267578125,-0.220733642578125,-0.9366455078125
1776442870571154000,28.83215380859375,-0.190338134765625,-0.22967529296875,-0.9363861083984375
1776442870611179800,28.8721796875,-0.2588043212890625,-0.1756591796875,-0.9383544921875
1776442870651206700,28.91220654296875,-0.3371734619140625,-0.1944580078125,-0.8772735595703125
1776442870691232800,28.952232666015625,-0.498565673828125,-0.1116790771484375,-0.8051605224609375
1776442870731260000,28.992260009765626,-0.347900390625,-0.0451202392578125,-0.8904571533203125
1776442870771286800,29.032286865234376,-0.4149017333984375,-0.2007293701171875,-0.904052734375
1776442870811312600,29.072312744140625,-0.43597412109375,-0.2610626220703125,-0.86138916015625
1776442870851339800,29.11233984375,-0.3499603271484375,-0.1417083740234375,-0.8456878662109375
1776442870891366000,29.152365966796875,-0.394317626953125,-0.19586181640625,-0.852508544921875
1776442870931392800,29.192392822265624,-0.486846923828125,-0.272216796875,-0.8272705078125
1776442870971420000,29.232419921875,-0.4257049560546875,-0.166748046875,-0.8061370849609375
1776442871011445800,29.27244580078125,-0.4249420166015625,-0.2716217041015625,-0.9744415283203125
1776442871051472600,29.31247265625,-0.4538116455078125,-0.231201171875,-0.867431640625
1776442871091499800,29.352499755859377,-0.31951904296875,-0.09033203125,-0.908721923828125
1776442871131525600,29.392525634765626,-0.357269287109375,-0.1302947998046875,-0.88983154296875
1776442871171553000,29.432552978515623,-0.453277587890625,-0.23211669921875,-0.8086090087890625
1776442871211579000,29.472578857421876,-0.474822998046875,-0.3091278076171875,-0.9272003173828125
1776442871251605800,29.512605712890625,-0.4057464599609375,-0.36322021484375,-0.873748779296875
1776442871291633000,29.5526328125,-0.425872802734375,-0.4035797119140625,-0.8739013671875
1776442871331658800,29.59265869140625,-0.292449951171875,-0.31781005859375,-0.873199462890625
1776442871371685600,29.632685546875,-0.3453369140625,-0.2444610595703125,-0.8895263671875
1776442871411711700,29.672711669921874,-0.343719482421875,-0.2785491943359375,-0.9447479248046875
1776442871451739000,29.71273876953125,-0.289398193359375,-0.2154541015625,-0.87518310546875
1776442871491765800,29.752765869140624,-0.3130645751953125,-0.2545623779296875,-0.889892578125
1776442871531795200,29.792795166015626,-0.2129058837890625,-0.362060546875,-0.869720458984375
1776442871571822000,29.832822021484375,-0.2291717529296875,-0.417083740234375,-1.0020599365234375
1776442871611849000,29.872848876953125,-0.058135986328125,-0.3260955810546875,-1.0176544189453125
1776442871651875300,29.912875244140626,-0.056793212890625,-0.2866058349609375,-1.000274658203125
1776442871691902200,29.952902099609375,-0.2300872802734375,-0.2847747802734375,-0.8885955810546875
1776442871731928000,29.992927978515624,-0.0814056396484375,-0.2505340576171875,-1.0074005126953125
1776442871771955200,30.032955078125,-0.13067626953125,-0.3084259033203125,-0.8958740234375
1776442871811982000,30.072982177734374,-0.1999664306640625,-0.2684783935546875,-0.8613128662109375
1776442871852008200,30.11300830078125,-0.18536376953125,-0.2774505615234375,-1.030029296875
1776442871892035300,30.153035400390625,0.0517578125,-0.2353363037109375,-1.0498504638671875
1776442871932062200,30.193062255859374,0.096282958984375,-0.1031646728515625,-0.9629058837890625
1776442871972088000,30.233088134765627,0.1107940673828125,-0.1328125,-1.0578460693359375
1776442872012115200,30.273115234375,0.097320556640625,-0.1568603515625,-1.0111083984375
1776442872052141300,30.313141357421873,-0.097503662109375,-0.2385101318359375,-0.9965972900390625
1776442872092168200,30.353168212890626,0.08843994140625,-0.2430267333984375,-0.9716339111328125
1776442872132195300,30.3931953125,-0.0995330810546875,-0.207061767578125,-0.9569244384765625
1776442872172221200,30.43322119140625,-0.1599884033203125,-0.2625732421875,-0.9479827880859375
1776442872212248000,30.473248046875,-0.2089691162109375,-0.186431884765625,-0.885498046875
1776442872252274200,30.513274169921875,-0.1203155517578125,-0.1386260986328125,-0.9771728515625
1776442872292301000,30.553301025390624,0.026885986328125,-0.2270355224609375,-1.0009918212890625
1776442872332328200,30.593328125,-0.036712646484375,-0.1121368408203125,-0.90087890625
1776442872372354300,30.633354248046874,-0.143157958984375,-0.226470947265625,-0.9659271240234375
1776442872412381200,30.673381103515624,-0.0938568115234375,-0.3322296142578125,-1.09613037109375
1776442872452408000,30.713407958984376,0.0006256103515625,-0.3694610595703125,-1.0624847412109375
1776442872492434200,30.75343408203125,0.0980224609375,-0.1183929443359375,-0.9858856201171875
1776442872532457500,30.79345751953125,-0.0514068603515625,-0.1733245849609375,-0.9571685791015625
1776442872572483600,30.833483642578123,-0.0240936279296875,-0.1774444580078125,-0.89532470703125
1776442872612510500,30.873510498046876,-0.014404296875,-0.1661376953125,-0.92205810546875
1776442872652537600,30.91353759765625,0.115234375,-0.1740875244140625,-1.03228759765625
1776442872692563500,30.9535634765625,0.0142669677734375,-0.161285400390625,-0.98388671875
1776442872732590300,30.99359033203125,0.16192626953125,-0.2274627685546875,-0.9646148681640625
1776442872772616700,31.03361669921875,0.124114990234375,-0.1326446533203125,-1.012481689453125
1776442872812643600,31.0736435546875,0.1273956298828125,-0.1596221923828125,-0.9942169189453125
1776442872852670500,31.11367041015625,0.082977294921875,-0.2097320556640625,-0.9075164794921875
1776442872892696600,31.153696533203124,0.1294403076171875,-0.0926513671875,-1.107696533203125
1776442872932723500,31.193723388671874,-0.447265625,-0.254119873046875,-0.714630126953125
1776442872972750300,31.233750244140627,0.1657562255859375,-0.079254150390625,-0.3929443359375
1776442873012776700,31.273776611328124,0.615203857421875,-0.13232421875,-1.3978271484375
1776442873052803600,31.313803466796877,0.2071533203125,-0.2754669189453125,-1.22589111328125
1776442873092829400,31.353829345703126,-0.2152252197265625,-0.1099700927734375,-0.699859619140625
1776442873132856600,31.393856689453123,0.0816192626953125,-0.1772613525390625,-0.8315887451171875
1776442873172883500,31.433883544921876,0.1845245361328125,-0.118927001953125,-1.0233612060546875
1776442873212909600,31.47390966796875,0.1535186767578125,-0.0572967529296875,-1.050872802734375
1776442873252936700,31.513936767578127,-0.1656494140625,-0.03436279296875,-0.9859619140625
1776442873292962600,31.553962646484376,-0.253692626953125,-0.123626708984375,-1.0194091796875
1776442873332989400,31.593989501953125,-0.1847076416015625,-0.061553955078125,-0.9819488525390625
1776442873373016600,31.6340166015625,-0.241424560546875,0.0128173828125,-0.8210601806640625
1776442873413042400,31.67404248046875,0.1353607177734375,-0.0709381103515625,-0.987701416015625
1776442873453069600,31.714069580078124,-0.096099853515625,-0.2061767578125,-1.0770721435546875
1776442873493096700,31.7540966796875,-0.1948089599609375,-0.091400146484375,-1.122711181640625
1776442873533122300,31.794122314453126,-0.235565185546875,-0.01177978515625,-1.0158538818359375
1776442873573149200,31.834149169921876,-0.0653839111328125,-0.0106353759765625,-0.9422454833984375
1776442873613175300,31.87417529296875,-0.1221160888671875,-0.0402374267578125,-1.0826568603515625
1776442873653202200,31.9142021484375,0.12127685546875,-0.1323089599609375,-1.1250152587890625
1776442873693229300,31.954229248046875,0.09661865234375,-0.0612640380859375,-1.03350830078125
1776442873733255400,31.99425537109375,0.006317138671875,0.01287841796875,-0.9584503173828125
1776442873773282300,32.0342822265625,0.0251312255859375,0.137115478515625,-0.8717041015625
1776442873813308200,32.07430810546875,-0.141571044921875,0.087432861328125,-0.9637298583984375
1776442873853335300,32.11433520507813,-0.079193115234375,0.1390533447265625,-0.9359893798828125
1776442873893362200,32.15436206054687,-0.1183929443359375,0.12469482421875,-0.90911865234375
1776442873933388300,32.19438818359375,-0.195343017578125,0.136871337890625,-0.90313720703125
1776442873973415400,32.23441552734375,-0.14239501953125,0.0708770751953125,-0.9833221435546875
1776442874013442300,32.2744423828125,-0.213104248046875,0.1334381103515625,-0.8960723876953125
1776442874053468200,32.31446826171875,-0.1768341064453125,0.1317138671875,-0.883880615234375
1776442874093495300,32.35449536132813,0.1847991943359375,0.0534820556640625,-1.0824432373046875
1776442874133521400,32.394521484375,-0.062744140625,0.00360107421875,-1.01934814453125
1776442874173548300,32.43454833984375,-0.136749267578125,0.033538818359375,-1.1562652587890625
1776442874213575400,32.474575439453126,-0.0518646240234375,0.0345458984375,-0.8758697509765625
1776442874253601300,32.514601318359375,0.038238525390625,0.078826904296875,-0.9420318603515625
1776442874293628200,32.55462817382813,0.0872039794921875,-0.0030975341796875,-1.044769287109375
1776442874333654300,32.594654296875,0.2337646484375,-0.0618896484375,-0.916473388671875
1776442874373681400,32.634681396484375,0.2972259521484375,-0.06280517578125,-0.87689208984375
1776442874413708300,32.67470825195313,0.3195648193359375,-0.154144287109375,-1.0316009521484375
1776442874453734400,32.714734375,0.3431854248046875,-0.0403900146484375,-1.0879364013671875
1776442874493761300,32.75476123046875,0.5267181396484375,-0.0855865478515625,-1.042388916015625
1776442874533789400,32.79478955078125,0.4115447998046875,-0.0058746337890625,-0.915252685546875
1776442874573815300,32.83481518554687,0.3169403076171875,-0.079315185546875,-0.9765472412109375
1776442874613842200,32.87484228515625,0.4772796630859375,-0.069000244140625,-0.8743133544921875
1776442874653868500,32.91486865234375,0.2994842529296875,-0.03118896484375,-0.97607421875
1776442874693895400,32.9548955078125,0.3858795166015625,0.0044097900390625,-0.935150146484375
1776442874733922300,32.99492236328125,0.1949462890625,-0.08160400390625,-0.965118408203125
1776442874773948400,33.034948486328126,0.0846405029296875,-0.003265380859375,-0.978759765625
1776442874813975300,33.07497534179687,-0.002838134765625,0.0051116943359375,-0.97296142578125
1776442874854001400,33.11500146484375,0.0013580322265625,0.0171356201171875,-1.039794921875
1776442874894028500,33.155028564453126,0.011383056640625,0.0114288330078125,-1.0443878173828125
1776442874934055400,33.19505541992187,-0.1077423095703125,0.094757080078125,-0.93951416015625
1776442874974081300,33.23508129882813,0.04815673828125,0.0619049072265625,-1.0316162109375
1776442875014108400,33.2751083984375,0.077239990234375,-0.0220794677734375,-1.046478271484375
1776442875054134300,33.31513427734375,0.0307464599609375,-0.0012969970703125,-0.9544525146484375
1776442875094161200,33.3551611328125,0.27618408203125,-0.03948974609375,-1.0257110595703125
1776442875134188300,33.39518823242187,-0.0871734619140625,-0.0028533935546875,-1.055419921875
1776442875174214400,33.43521435546875,-0.144500732421875,0.1116943359375,-0.9073333740234375
1776442875214241300,33.4752412109375,0.0510711669921875,0.122467041015625,-1.0115509033203125
1776442875254267100,33.51526708984375,-0.05950927734375,-0.0899505615234375,-0.918975830078125
1776442875294294300,33.55529418945312,-0.145111083984375,-0.126068115234375,-0.92474365234375
1776442875334321200,33.595321044921874,-0.074066162109375,-0.03021240234375,-0.981475830078125
1776442875374347300,33.63534716796875,-0.0998687744140625,-0.068115234375,-1.117889404296875
1776442875414374400,33.67537451171875,-0.145416259765625,-0.16650390625,-0.9957122802734375
1776442875454401300,33.7154013671875,-0.1832122802734375,-0.037384033203125,-0.976654052734375
1776442875494427100,33.75542724609375,-0.321136474609375,0.00372314453125,-1.017669677734375
1776442875534453500,33.79545361328125,-0.271636962890625,0.0229644775390625,-0.969390869140625
1776442875574479600,33.835479736328125,-0.186187744140625,0.0222625732421875,-0.9355316162109375
1776442875614506800,33.8755068359375,-0.2072296142578125,-0.02777099609375,-1.0174102783203125
1776442875654533600,33.91553369140625,-0.1851654052734375,-0.0438995361328125,-1.062591552734375
1776442875694559500,33.9555595703125,-0.178466796875,0.0261383056640625,-0.997100830078125
1776442875734586600,33.99558666992188,-0.1934814453125,0.0506591796875,-0.968597412109375
1776442875774612700,34.03561279296875,-0.0438232421875,0.0178680419921875,-0.9863128662109375
1776442875814639600,34.0756396484375,-0.140869140625,0.008880615234375,-1.0193023681640625
1776442875854666800,34.11566674804688,-0.282562255859375,0.1219940185546875,-0.9261016845703125
1776442875894692600,34.155692626953126,-0.3493194580078125,0.115478515625,-0.92718505859375
1776442875934719500,34.19571948242187,-0.3306121826171875,0.0491943359375,-0.854644775390625
1776442875974745900,34.23574584960937,-0.43011474609375,0.087066650390625,-0.83880615234375
1776442876014772700,34.275772705078126,-0.382293701171875,-0.0958404541015625,-0.9814453125
1776442876054799600,34.31579956054688,-0.304351806640625,0.0131378173828125,-0.8919525146484375
1776442876094825700,34.35582568359375,-0.2612457275390625,0.0224761962890625,-0.8748626708984375
1776442876134852600,34.3958525390625,-0.1945037841796875,-0.062713623046875,-1.077056884765625
1776442876174878700,34.435878662109374,-0.393035888671875,0.018402099609375,-0.90704345703125
1776442876214905900,34.47590576171875,-0.4569244384765625,-0.0442657470703125,-0.9179534912109375
1776442876254932700,34.5159326171875,-0.4825286865234375,-0.0004730224609375,-0.9346466064453125
1776442876294958600,34.55595849609375,-0.3428192138671875,-0.0363006591796875,-0.8919677734375
1776442876334985700,34.59598583984375,-0.300079345703125,-0.1827545166015625,-0.983489990234375
1776442876375012600,34.6360126953125,-0.2851104736328125,-0.2008514404296875,-0.95855712890625
1776442876415038500,34.67603857421875,-0.2968902587890625,-0.20343017578125,-0.92144775390625
1776442876455065600,34.716065673828126,-0.2224884033203125,-0.2467041015625,-0.967254638671875
1776442876495091700,34.756091796875,-0.1793212890625,-0.24786376953125,-0.9877166748046875
1776442876535118000,34.7961181640625,-0.18792724609375,-0.186004638671875,-0.9317779541015625
1776442876575145200,34.836145263671874,-0.208740234375,-0.16131591796875,-0.871337890625
1776442876615171000,34.87617114257812,-0.307037353515625,-0.1243438720703125,-0.9076385498046875
1776442876655198200,34.9161982421875,-0.29302978515625,-0.00201416015625,-1.0283355712890625
1776442876695224000,34.95622412109375,-0.25372314453125,-0.0025177001953125,-0.9915008544921875
1776442876735251200,34.99625122070312,-0.4205474853515625,0.016815185546875,-1.0064544677734375
1776442876775278000,35.036278076171875,-0.4892425537109375,-0.138671875,-0.9631805419921875
1776442876815304000,35.076303955078124,-0.554962158203125,-0.031036376953125,-0.8246917724609375
1776442876855331000,35.1163310546875,-0.4481353759765625,0.0141448974609375,-0.8200836181640625
1776442876895357200,35.15635717773438,-0.5921478271484375,0.0623016357421875,-0.748870849609375
1776442876935384300,35.19638427734375,-0.458831787109375,0.0522613525390625,-0.8083343505859375
1776442876975411200,35.2364111328125,-0.53912353515625,0.0955047607421875,-0.8538360595703125
1776442877015437000,35.27643701171875,-0.586334228515625,0.0437164306640625,-0.888946533203125
1776442877055464200,35.31646411132812,-0.4058380126953125,0.091217041015625,-0.760162353515625
1776442877095490300,35.356490234375,-0.3477630615234375,0.09246826171875,-0.755462646484375
1776442877135517200,35.39651708984375,-0.7287445068359375,0.1894073486328125,-0.84185791015625
1776442877175544300,35.43654443359375,-0.6135711669921875,-0.0753173828125,-0.7802886962890625
1776442877215570200,35.47657006835937,-0.6821441650390625,-0.1185760498046875,-0.7501983642578125
1776442877255597000,35.51659716796875,-0.7537841796875,-0.103424072265625,-0.8326416015625
1776442877295623200,35.556623046875,-0.70648193359375,-0.103240966796875,-0.737701416015625
1776442877335650300,35.596650390625,-0.663970947265625,-0.078399658203125,-0.7531890869140625
1776442877375677200,35.63667724609375,-0.6979217529296875,0.0906219482421875,-0.7601470947265625
1776442877415703000,35.676703125,-0.6541748046875,0.0458526611328125,-0.721466064453125
1776442877455730200,35.71673022460938,-0.645172119140625,0.1280975341796875,-0.6880950927734375
1776442877495756000,35.75675610351563,-0.6535491943359375,0.1260528564453125,-0.7411346435546875
1776442877535783200,35.796783203125,-0.6417388916015625,0.0171966552734375,-0.7744140625
1776442877575810300,35.83681030273438,-0.632080078125,-0.062744140625,-0.710174560546875
1776442877615836200,35.87683618164063,-0.5720062255859375,-0.0784454345703125,-0.6834259033203125
1776442877655863000,35.91686303710937,-0.4617919921875,-0.0821685791015625,-0.9962615966796875
1776442877695889200,35.95688916015625,-0.474517822265625,-0.221221923828125,-0.90380859375
1776442877735916000,35.996916015625,-0.4754180908203125,-0.079010009765625,-0.9147186279296875
1776442877775943200,36.03694311523437,-0.483978271484375,0.05938720703125,-0.8603057861328125
1776442877815969300,36.07696923828125,-0.2020416259765625,0.07427978515625,-1.006072998046875
1776442877855996200,36.11699609375,-0.488311767578125,-0.17620849609375,-0.819610595703125
1776442877896022000,36.15702197265625,-0.3849334716796875,-0.2375335693359375,-0.962615966796875
1776442877936049200,36.19704907226563,-0.43011474609375,-0.0124053955078125,-0.9804229736328125
1776442877976076000,36.237075927734374,-0.1252593994140625,-0.1541595458984375,-1.18487548828125
1776442878016102100,36.27710205078125,-0.3214263916015625,0.02911376953125,-0.780548095703125
1776442878056129300,36.31712939453125,-0.3785400390625,-0.0707855224609375,-0.7869415283203125
1776442878096155100,36.35715502929688,-0.2792510986328125,0.025665283203125,-0.910736083984375
1776442878136182000,36.39718212890625,-0.28466796875,0.0497589111328125,-0.942901611328125
1776442878176209200,36.43720922851563,-0.639129638671875,0.008544921875,-0.819366455078125
1776442878216235300,36.4772353515625,-0.4873199462890625,0.0471649169921875,-0.9305419921875
1776442878256262100,36.51726220703125,-0.1673583984375,-0.0135955810546875,-1.06805419921875
1776442878296288300,36.55728833007812,-0.191619873046875,-0.0776824951171875,-1.07916259765625
1776442878336315100,36.597315185546876,-0.3316802978515625,-0.027008056640625,-0.8462677001953125
1776442878376342000,36.63734204101563,-0.341033935546875,-0.014007568359375,-0.9176177978515625
1776442878416368000,36.6773681640625,-0.4455718994140625,-0.1097869873046875,-1.05889892578125
1776442878456395300,36.717395263671875,-0.2352752685546875,-0.025665283203125,-1.1027374267578125
1776442878496421000,36.757421142578124,-0.1941070556640625,0.0763702392578125,-0.903656005859375
1776442878536448500,36.79744848632812,-0.22991943359375,0.0637359619140625,-0.929901123046875
1776442878576475600,36.8374755859375,-0.2460479736328125,0.0185699462890625,-1.015716552734375
1776442878616501500,36.87750146484375,-0.1856231689453125,0.0314178466796875,-1.0341796875
1776442878656528400,36.9175283203125,-0.122222900390625,0.052764892578125,-0.9893341064453125
1776442878696555500,36.957555419921874,-0.2093048095703125,0.034149169921875,-0.9363250732421875
1776442878736581600,36.99758154296875,-0.2646026611328125,0.1254119873046875,-0.8838653564453125
1776442878776608500,37.0376083984375,-0.2451324462890625,0.1528778076171875,-0.9302825927734375
1776442878816634400,37.07763427734375,-0.304656982421875,0.213714599609375,-0.865020751953125
1776442878856661500,37.11766162109375,-0.34881591796875,0.1512298583984375,-0.8636932373046875
1776442878896688400,37.1576884765625,-0.3810882568359375,0.13916015625,-0.9003448486328125
1776442878936714800,37.19771484375,-0.2389373779296875,0.1504974365234375,-0.9390106201171875
1776442878976741600,37.23774169921875,-0.1711883544921875,0.1017303466796875,-0.9114532470703125
1776442879016767500,37.277767578125,-0.169921875,-0.0186767578125,-0.964385986328125
1776442879056794600,37.317794677734376,-0.1207275390625,-0.0453948974609375,-1.07855224609375
1776442879096821500,37.35782153320312,-0.1656036376953125,0.022735595703125,-0.9788360595703125
1776442879136847600,37.39784765625,-0.1862640380859375,0.0627899169921875,-0.8685760498046875
1776442879176874800,37.437874755859376,-0.11456298828125,-0.0474395751953125,-0.929107666015625
1776442879216900600,37.477900634765625,-0.1713714599609375,-0.038330078125,-0.904815673828125
1776442879256927500,37.51792749023438,-0.1331024169921875,-0.034637451171875,-0.97998046875
1776442879296954600,37.55795458984375,0.01373291015625,-0.079803466796875,-1.057525634765625
1776442879336980500,37.59798046875,-0.0360107421875,-0.0410919189453125,-0.9839935302734375
1776442879377007400,37.63800732421875,-0.0360260009765625,-0.100006103515625,-1.0523834228515625
1776442879417033500,37.678033447265626,0.38470458984375,-0.08404541015625,-0.930267333984375
1776442879457060600,37.718060546875,0.0911712646484375,-0.2112884521484375,-0.997222900390625
1776442879497087500,37.75808740234375,0.0622711181640625,-0.0339813232421875,-0.900238037109375
1776442879537113600,37.798113525390626,-0.021148681640625,-0.004547119140625,-0.9366607666015625
1776442879577140500,37.83814038085937,0.136810302734375,-0.0784454345703125,-1.1170654296875
1776442879617166600,37.87816650390625,0.1106109619140625,-0.0639495849609375,-1.03753662109375
1776442879657193700,37.91819384765625,0.04962158203125,-0.1911468505859375,-1.0731201171875
1776442879697220600,37.958220703125,-0.00872802734375,-0.187103271484375,-1.0954437255859375
1776442879737246500,37.99824658203125,0.1013031005859375,-0.181640625,-1.0433502197265625
1776442879777273600,38.038273681640625,0.010162353515625,-0.027252197265625,-0.9454803466796875
1776442879817299700,38.0782998046875,-0.050811767578125,-0.0602874755859375,-1.045806884765625
1776442879857326600,38.11832666015625,-0.0299530029296875,-0.0138397216796875,-1.0054931640625
1776442879897353700,38.158353759765625,0.0598907470703125,0.000762939453125,-1.0635833740234375
1776442879937379600,38.198379638671874,-0.0372314453125,0.100189208984375,-1.017120361328125
1776442879977406500,38.23840649414063,-0.012481689453125,0.076019287109375,-1.009185791015625
1776442880017432600,38.2784326171875,-0.0044097900390625,0.0046844482421875,-1.0469970703125
1776442880057459700,38.31845971679687,0.028106689453125,0.071746826171875,-0.98370361328125
1776442880097486600,38.358486572265626,0.0410003662109375,0.0848846435546875,-0.9189605712890625
1776442880137512700,38.3985126953125,0.0251617431640625,0.0681610107421875,-0.95751953125
1776442880177539600,38.43853955078125,-0.1841888427734375,-0.10577392578125,-1.09039306640625
1776442880217565400,38.4785654296875,0.0383148193359375,-0.0453948974609375,-1.062957763671875
1776442880257592600,38.518592529296875,-0.011199951171875,0.06158447265625,-0.98199462890625
1776442880297619500,38.55861938476563,-0.0414581298828125,0.0595550537109375,-1.0143890380859375
1776442880337645600,38.5986455078125,-0.0184173583984375,0.072235107421875,-0.952056884765625
1776442880377672700,38.638672607421874,-0.059173583984375,0.0455474853515625,-1.0544891357421875
1776442880417698600,38.67869848632812,-0.081329345703125,0.054290771484375,-0.9587554931640625
1776442880457725400,38.718725341796876,0.001373291015625,0.0689697265625,-1.0252532958984375
1776442880497752600,38.758752685546874,-0.0832977294921875,0.15216064453125,-0.9127960205078125
1776442880537778400,38.7987783203125,0.03729248046875,0.013519287109375,-1.00634765625
1776442880577805600,38.8388056640625,-0.0335235595703125,-0.0018768310546875,-1.000640869140625
1776442880617831400,38.87883154296875,-0.073089599609375,0.0515289306640625,-1.0279388427734375
1776442880657858300,38.9188583984375,-0.049102783203125,0.01666259765625,-1.0338134765625
1776442880697885400,38.958885498046875,0.000579833984375,0.0805206298828125,-1.0026092529296875
1776442880737911600,38.99891162109375,-0.03814697265625,0.0406494140625,-1.0208892822265625
1776442880777938400,39.0389384765625,-0.073944091796875,-0.0112457275390625,-1.0449981689453125
1776442880817964300,39.07896435546875,-0.10858154296875,0.0541839599609375,-1.0505523681640625
1776442880857991400,39.118991455078124,-0.0668792724609375,0.0937347412109375,-0.94879150390625
1776442880898018300,39.15901831054688,-0.09716796875,0.0148773193359375,-0.9998779296875
1776442880938044400,39.19904443359375,-0.048248291015625,0.12274169921875,-0.9583587646484375
1776442880978071600,39.23907153320312,-0.01995849609375,-0.0028839111328125,-1.0146331787109375
1776442881018097400,39.27909741210937,-0.08489990234375,0.06280517578125,-0.98895263671875
1776442881058124300,39.319124267578125,-0.08697509765625,0.045074462890625,-0.9936370849609375
1776442881098151400,39.3591513671875,-0.1727294921875,0.0875396728515625,-0.9205322265625
1776442881138177300,39.39917724609375,-0.68206787109375,-0.1116943359375,-0.8727569580078125
1776442881178204400,39.439204345703125,-0.22186279296875,0.127655029296875,-1.051422119140625
1776442881218230500,39.47923046875,0.0045013427734375,-0.10357666015625,-1.1079864501953125
1776442881258257400,39.51925732421875,-0.089080810546875,0.0166015625,-1.1042633056640625
1776442881298284300,39.5592841796875,-0.1128997802734375,0.0933837890625,-0.863006591796875
1776442881338310400,39.599310302734374,-0.1435699462890625,0.0519866943359375,-0.9259490966796875
1776442881378337300,39.639337158203126,-0.075286865234375,0.0208587646484375,-1.0723724365234375
1776442881418363400,39.67936328125,-0.112030029296875,0.0232696533203125,-0.8937225341796875
1776442881458390500,39.719390625,-0.2486724853515625,0.0836334228515625,-0.8927001953125
1776442881498417400,39.75941748046875,-0.469696044921875,-0.5421142578125,-1.56475830078125
1776442881538442800,39.79944287109375,-0.2996368408203125,0.087554931640625,-0.8620452880859375
1776442881578470000,39.83946997070313,-0.248443603515625,-0.147735595703125,-0.9937896728515625
1776442881618496000,39.87949609375,-0.2543792724609375,-0.0189361572265625,-0.981475830078125
1776442881658523000,39.91952294921875,-0.131439208984375,-0.0118255615234375,-0.8247222900390625
1776442881698550000,39.95955004882813,-0.255523681640625,-0.12274169921875,-1.0287628173828125
1776442881738576000,39.99957592773438,-0.3134002685546875,0.0113067626953125,-0.988922119140625
1776442881778602800,40.03960278320312,-0.209869384765625,0.0290985107421875,-0.97979736328125
1776442881818629000,40.07962915039062,-0.2087249755859375,0.0456695556640625,-0.939117431640625
1776442881858656000,40.119656005859376,-0.170257568359375,-0.0283355712890625,-0.8771514892578125
1776442881898681900,40.159681884765625,-0.2093353271484375,-0.0070343017578125,-0.9505767822265625
1776442881938709000,40.199708984375,-0.3180084228515625,0.0330657958984375,-0.9803924560546875
1776442881978735900,40.23973583984375,-0.3250885009765625,-0.0220947265625,-0.989776611328125
1776442882018762000,40.279761962890625,-0.406829833984375,0.007080078125,-0.9714202880859375
1776442882058789000,40.3197890625,-0.4410552978515625,-0.017822265625,-0.91375732421875
1776442882098815000,40.35981494140625,-0.4430084228515625,-0.020416259765625,-0.890838623046875
1776442882138841900,40.399841796875,-0.3903961181640625,-0.03887939453125,-0.9307861328125
1776442882178869000,40.43986889648438,-0.3411102294921875,-0.0197601318359375,-0.9813690185546875
1776442882218894800,40.479894775390626,-0.2906036376953125,-0.0367584228515625,-0.9418487548828125
1776442882258922000,40.519921875,-0.1615447998046875,0.0136260986328125,-0.98199462890625
1776442882298948000,40.55994799804687,-0.21331787109375,-0.003570556640625,-0.9920501708984375
1776442882338975000,40.59997509765625,-0.1857147216796875,-0.0098419189453125,-0.9681854248046875
1776442882379001900,40.640001953125,-0.1254119873046875,-0.07452392578125,-1.03265380859375
1776442882419028000,40.68002807617187,-0.1206207275390625,-0.028350830078125,-1.0183563232421875
1776442882459054800,40.720054931640625,-0.1072845458984375,-0.0433197021484375,-0.99267578125
1776442882499081000,40.7600810546875,-0.0874786376953125,-0.108184814453125,-0.99151611328125
