time,seconds_elapsed,z,y,x
1776442841845856800,0.106856689453125,-0.05959259117543697,-0.45216552946493027,-0.6839706904321908
1776442841870872800,0.131872802734375,1.1288017853558063,-0.22482523895204065,-1.3118351704999804
1776442841895889700,0.1568896484375,0.4210387159258127,-0.3059758742019534,-1.3757787964917718
1776442841920905500,0.181905517578125,0.6265297243326902,-0.31017595624029637,-1.2189874485198409
1776442841945922600,0.206922607421875,1.452645616942644,-0.022863281454145908,-0.889610605790466
1776442841970938600,0.231938720703125,-0.05003799636662006,0.01773337121978402,-0.3147734766310081
1776442841995955700,0.256955810546875,-0.32823300645649434,0.03810578570626676,-0.028258765555825082
1776442842020971800,0.2819716796875,-0.3529080135077238,0.09038922291211783,0.08094881080118939
1776442842045988900,0.30698876953125,-0.8404922084867954,0.21245602511391043,0.05813179790787398
1776442842071004700,0.332004638671875,0.3407546343773603,0.32578882817476984,0.40491935577392574
1776442842096021800,0.357021728515625,0.4060246866673231,0.010401713157445192,0.3450803155567497
1776442842121037800,0.382037841796875,-0.5607131440758705,-0.5604867879740894,0.18293752355426549
1776442842146054700,0.4070546875,-0.7783429185658692,-0.5722954453200102,0.3515584985949099
1776442842171070700,0.43207080078125,0.5389350275099277,-0.24419980150759218,0.3099250502191484
1776442842196087600,0.457087646484375,0.3296627469986677,-0.8280762328974902,1.4969854016676545
1776442842221103600,0.482103515625,-0.7951566907227039,-1.2922528104126452,1.1794871397152542
1776442842246120700,0.50712060546875,-0.08545651575028895,-0.5628365659706294,1.2784652542091905
1776442842271136800,0.53213671875,0.698217242449522,1.1976453852836042,1.0276792061790823
1776442842296153900,0.55715380859375,0.709368166539073,1.6658087674126028,1.3877715782329438
1776442842321169700,0.582169677734375,-0.9760311442673206,-0.008055150031298398,0.2831814932655543
1776442842346186800,0.607186767578125,0.5175742595732212,-1.8046031978577375,-0.5909405245572328
1776442842371202800,0.632202880859375,-0.12578092735409735,0.04508548852577805,-1.3402785901740193
1776442842396219000,0.657218994140625,0.6710469114512204,1.7583862210839987,-0.5558756043842062
1776442842421235700,0.682235595703125,-0.09297580533921718,0.8265943968418985,-0.7867894060023128
1776442842446251500,0.70725146484375,-0.24771628519594668,-0.328636984147504,-0.8879045325249433
1776442842471268400,0.732268310546875,-0.010081833553314209,-0.4859679919540882,-0.14425481474287807
1776442842496284400,0.757284423828125,0.36471944733262057,-0.483572767380625,0.4402382141754031
1776442842521301500,0.782301513671875,-0.19829203681349752,-0.5166388784192503,1.0817949003133922
1776442842546317300,0.8073173828125,-0.8265431781113147,0.12074307931736111,0.6248490047041326
1776442842571334400,0.83233447265625,-1.1582885766029358,-0.09713613988906145,-0.13425072260089219
1776442842596350500,0.8573505859375,-0.6763321583777666,-0.5426682226888835,-0.1687997656736523
1776442842621367600,0.882367431640625,-0.2733592604964971,-0.3478226730674505,-0.4096418542511761
1776442842646383600,0.907383544921875,0.1784954494535923,0.37068098608553407,-0.05192534448318183
1776442842671400200,0.932400146484375,0.0763005648702383,-0.023936609774082896,0.3131394091557711
1776442842696416300,0.957416259765625,0.2624509129911661,-0.29696108535826204,-0.06086633743830025
1776442842721433300,0.982433349609375,0.07482230901122093,-0.04954904380589723,-0.2879324141196906
1776442842746449400,1.007449462890625,-0.11141980904638767,-0.02242605908066034,0.29755795527286827
1776442842771466500,1.032466552734375,-0.6926198608338833,-0.17156579632088542,0.7093572067536413
1776442842796482300,1.057482421875,-0.729853320685029,-0.2994064326837659,0.4396866812398657
1776442842821499400,1.08249951171875,0.3578431318223476,-0.0632213761318475,0.30548472968414425
1776442842846515500,1.107515380859375,0.1228600714713335,-0.16733846094943583,0.4819258038911968
1776442842871532500,1.132532470703125,0.059660395714640616,-0.17720022201128302,0.4065168175658211
1776442842896548600,1.157548583984375,0.3451034772366285,-0.14986666327528655,0.33276232044920323
1776442842921565200,1.182565185546875,0.7388070269912481,-0.3841813959106803,0.5338075649609789
1776442842946581200,1.207581298828125,0.44403848324120043,-0.3108718295499682,0.44821215219665317
1776442842971598300,1.232598388671875,0.1333475632160902,-0.08023596809040755,1.0443202521175146
1776442842996614400,1.257614501953125,-0.15437223106622694,0.016437230462022126,0.9472289742834865
1776442843021631500,1.282631591796875,0.6138304017573595,0.05504077308997512,0.46584736027158796
1776442843046647300,1.307647216796875,0.46446226258873935,0.10013086472563446,0.3644445759139955
1776442843071664400,1.332664306640625,-0.24863340004086493,0.01935384856108576,0.12701003989079035
1776442843096680400,1.357680419921875,0.34174598350226876,0.04116773056015372,-0.5121082857849076
1776442843121697500,1.382697509765625,1.1008686532914638,-0.16796726037226617,-0.6011203385923057
1776442843146713600,1.407713623046875,0.37629882596731185,-0.24483893966134637,-0.28106574322059746
1776442843171730400,1.43273046875,0.18241700681149958,-0.21166794347614049,0.24185893746986983
1776442843196746200,1.457746337890625,0.6296557473987341,-0.24193792099021375,0.02610723181143403
1776442843221763300,1.482763427734375,0.11353636280894279,-0.481738720353879,0.09903079452924429
1776442843246779400,1.507779296875,-0.3427344100177288,0.056162287933193146,0.16782061844319104
1776442843271796500,1.53279638671875,-0.497055787679553,0.7371797180503606,0.27359986431933936
1776442843296812300,1.557812255859375,0.2651046423703432,0.29744866794580593,0.15255838657729326
1776442843321829400,1.582829345703125,0.023059388548135756,0.042366767618991434,0.515461505202949
1776442843346845400,1.607845458984375,-0.46474692474901674,0.5113129341561347,0.4190209463626146
1776442843371862500,1.632862548828125,-1.517659648644924,1.2630747928537427,0.3192909905880689
1776442843396878600,1.657878662109375,0.1984808373838663,0.43095673721954225,-0.5531354022979736
1776442843421895400,1.6828955078125,0.9957014748990535,-0.3943071416709572,-0.5679542743105441
1776442843446911200,1.7079111328125,0.16385843681395054,-0.03672393942642957,0.39647469496838744
1776442843471928800,1.7329287109375,0.9899702377706766,-0.3417314800528809,-0.11750490111373364
1776442843496945000,1.75794482421875,0.7086772616654634,-0.19728618423920125,-0.6150871968854218
1776442843521962000,1.7829619140625,-1.2829612504541874,0.07683043396323919,0.7351096337780356
1776442843546977800,1.807977783203125,-2.1335019747465847,0.26006452931128443,0.9126935213446616
1776442843571993900,1.832993896484375,0.7996867353677749,0.7102130198653787,-0.47582471053712067
1776442843597011000,1.858010986328125,0.8759902228474616,0.8641535084508359,-1.2016348202459513
1776442843622027800,1.88302783203125,0.27922961383461953,0.20434766532434148,0.4443123317465186
1776442843647043600,1.908043701171875,-0.7104267356812953,-0.39798195772618056,0.8632868086189031
1776442843672060700,1.933060791015625,-0.9372878643751144,-0.08570915707079693,-0.2979854965025559
1776442843697076700,1.95807666015625,0.16624913134276867,0.5450754299610853,-1.0301689771682023
1776442843722093800,1.98309375,0.7134832006424665,0.13635408808831126,-0.9344181541576981
1776442843747110000,2.00810986328125,0.6981675580888986,0.17570362677797674,0.3335809433557093
1776442843772127000,2.033126953125,0.06915361572504043,-0.20434989381404592,1.023068278317526
1776442843797142800,2.058142822265625,-0.3410205918371677,-0.549210264743492,-0.028924883048050104
1776442843822160000,2.083159912109375,0.37562604127228255,-0.6970997096616774,-0.9775066967125982
1776442843847176000,2.108176025390625,-0.2581944245904684,-1.0067980384528636,-0.808031515995413
1776442843872192800,2.13319287109375,-0.09320084626674652,-0.1899539051223546,0.8525151661705225
1776442843897208800,2.158208740234375,-0.8317623740643262,0.7927040368735789,1.1457010438390076
1776442843922225700,2.1832255859375,0.11223346351683139,0.4643652684876695,0.14757689923713915
1776442843947241700,2.20824169921875,0.8194798155963421,0.2088856740801595,-0.5763132661266253
1776442843972258800,2.2332587890625,0.06356675550341606,-0.3268592338852584,0.25726972922729324
1776442843997275000,2.25827490234375,-0.6914309433102608,-0.5947960309416055,1.1524129625678061
1776442844022292000,2.2832919921875,0.46506315109133717,0.5152755541767925,0.2460366615459323
1776442844047307800,2.308307861328125,1.3249866207569836,1.0517075128246098,-0.7644736754283309
1776442844072324900,2.333324951171875,1.5770967569977044,-0.1499442037572153,-1.2552896919354795
1776442844097341000,2.3583408203125,-0.6540823326468468,-1.1079988704975694,-1.0395616594135761
1776442844122357800,2.383357666015625,0.13295827163755894,-0.9997603949010372,-0.16263958080979063
1776442844147373800,2.408373779296875,-0.182878779104352,-0.5756430387148633,0.31038722437079996
1776442844172391000,2.433390869140625,-2.0852602141469716,-0.25807143753161654,0.5560296989673749
1776442844197406700,2.45840673828125,-0.9861042099922895,-0.5007696205709129,-0.18104807481216265
1776442844222423800,2.483423828125,0.3943360024392605,-0.24492241669371723,-0.20454963590353725
1776442844247440000,2.50843994140625,-0.9081558779150247,-0.25096688448973,-0.29203692682906984
1776442844272457000,2.53345703125,-0.8423416357457637,0.32643479792810975,0.013818608928844333
1776442844297472800,2.55847265625,0.6193669930964708,0.7849589757047594,-0.281383723128587
1776442844322489900,2.58348974609375,0.7705109097659587,0.29853998858015984,0.4891290863335132
1776442844347506000,2.608505859375,-0.1332037708312273,-0.4810889512082562,1.1556867966067046
1776442844372522800,2.633522705078125,-1.1474480336368083,-0.15032489190418272,0.5555329284263775
1776442844397538800,2.658538818359375,0.014992401948571205,0.26066790203191337,0.07877974140010774
1776442844422556000,2.683555908203125,1.9805203212559221,0.6250451848633587,-0.6981141474012285
1776442844447571700,2.70857177734375,1.4337415945082903,0.17946871493253855,-0.9999920116998254
1776442844472588000,2.733588134765625,-0.9450392091542482,-0.2969197669671848,0.14548578130993992
1776442844497604000,2.75860400390625,-0.33298341585397717,-0.8686020122922956,-0.8440081076532602
1776442844522621000,2.783620849609375,0.8058645472198724,-0.37576607079748064,-1.498890358506143
1776442844547637000,2.808636962890625,0.2672036604762077,-0.4222949995972216,-1.1539335231985897
1776442844572654000,2.833654052734375,-0.3792541686415672,0.026015041749645022,0.27410299153588713
1776442844597670100,2.858670166015625,0.06855038913488387,0.5243266929754987,-0.301355593990162
1776442844622687000,2.88368701171875,0.5824234561026096,0.14363746829582377,0.18417488332949578
1776442844647703000,2.908703125,0.14388590836524962,-0.07450631099776364,0.9421401267118752
1776442844672720000,2.933719970703125,0.16649229244887828,0.213319875401631,0.6991895946130157
1776442844697736000,2.95873583984375,0.7105377948403359,0.23526549402158706,0.39857217870429157
1776442844722753000,2.9837529296875,-0.2566349201887846,0.16448621332347393,0.5273671201173216
1776442844747769000,3.00876904296875,0.25399638837873934,0.1090470520330593,0.2613809091394767
1776442844772786200,3.0337861328125,0.13576105409860612,-0.19626495143268255,-0.7736964809995144
1776442844797802000,3.058802001953125,0.1835842970252037,-0.7439926860008388,-0.38256712911445645
1776442844822819000,3.083819091796875,-1.687440461245179,-0.18803994299350305,1.0434384277816862
1776442844847835100,3.108835205078125,-1.1050164206206798,-0.5219551415385678,0.43365116393528874
1776442844872852000,3.13385205078125,-0.48219957933127877,-0.9382413657076656,-0.32392869685869663
1776442844897869000,3.158869140625,-0.03493862691223621,-0.023533508865907788,0.10888006143569946
1776442844922884900,3.183884765625,-0.1405360134154558,-0.22447357597015796,0.3795782860293984
1776442844947902000,3.20890185546875,0.2315723751246929,-0.7100264843173325,-0.13720248507857322
1776442844972918000,3.23391796875,0.5231166961312294,0.04790829086154699,-0.5690739625228569
1776442844997935000,3.25893505859375,0.3314239114522934,0.3828833189241588,1.0582302656568585
1776442845022951200,3.283951171875,-0.8038198896497487,0.5526387778874486,1.4499442490294574
1776442845047968300,3.30896826171875,-0.7657517325401306,0.23764550275960936,0.1050559731028974
1776442845072984000,3.333984130859375,-0.006612696138024329,-0.820672021055594,-1.4971084435254334
1776442845098001000,3.3590009765625,0.8056015123695135,-0.34501368006132543,-1.7807586502812802
1776442845123017000,3.384016845703125,-0.2082972979992628,-0.6202561239559203,-1.6792819969698787
1776442845148034000,3.409033935546875,-0.3571551495581865,-0.6892852365184575,-0.5920500201690941
1776442845173049900,3.4340498046875,-0.2858171755313873,-0.27633370973002164,0.9516358309403061
1776442845198067000,3.45906689453125,-0.28991175136864183,0.41478718125037844,0.6258737446419894
1776442845223083000,3.4840830078125,0.8103074981033802,-0.263785869655665,-1.2037899524532258
1776442845248100000,3.50910009765625,0.16474691008627415,-1.0606246865127236,-1.2476786324098705
1776442845273116200,3.5341162109375,-0.6121423025399446,-0.4849643678694963,0.12874445333480833
1776442845298133200,3.55913330078125,-0.17054945888519285,-0.2749491052375175,0.28437406405098736
1776442845323149000,3.584149169921875,-1.0965630650520324,-0.5753462111927569,0.4063379904001951
1776442845348166000,3.609165771484375,-0.8043126416027545,-0.6970092548992485,-0.30081703013405203
1776442845373183000,3.634182861328125,0.062356795191764826,-1.0778549305159597,-1.1187919941253959
1776442845398199000,3.659198974609375,-0.19479659591317175,0.12442008732967078,0.3655113283626735
1776442845423216000,3.684216064453125,0.8234457966178655,0.39166148600038136,-0.20435104459151623
1776442845448232000,3.70923193359375,0.6971300317347049,0.06077986473124474,-0.33845834013372655
1776442845473249300,3.734249267578125,-0.6192436589777469,-0.16914927323106677,0.11191183034703135
1776442845498265300,3.759265380859375,0.10648702881932258,-0.416993641786091,-0.40238983729630706
1776442845523282200,3.7842822265625,0.6542267095535993,-0.4685278680598363,-0.6387913861431181
1776442845548298200,3.80929833984375,-0.3203255943328142,-0.2128702684706077,0.5057024738632142
1776442845573315000,3.834315185546875,0.11865677456259727,-0.07210055589713156,0.3844964532092213
1776442845598331100,3.8593310546875,0.874452930277586,-0.2683828237907961,-0.4029910180598497
1776442845623348200,3.88434814453125,-0.8133376595795154,-0.8690579393662512,0.29436273942813274
1776442845648364300,3.9093642578125,-2.021748403701186,-0.700633875137195,1.2241598096564412
1776442845673381000,3.934381103515625,0.09669570264518261,-0.4651598894640803,0.10526903133168816
1776442845698397200,3.959397216796875,1.4261784657776355,-0.34254860512204466,-0.8940404049314558
1776442845723414300,3.984414306640625,0.9566694411933422,0.01179711303859949,0.24425839982703326
1776442845748431000,4.00943115234375,0.145442490157485,-0.07459741421416402,0.7552009663008153
1776442845773447200,4.034447265625,0.5445657268732785,-0.20882314850427208,0.13126578850597143
1776442845798464300,4.05946435546875,0.5638000041753053,-0.21803156022392212,0.4021539827138185
1776442845823480000,4.08447998046875,-1.5611235273182391,-0.7025606784813105,0.7094272032499312
1776442845848497200,4.1094970703125,-1.6153005231857298,-1.089824550577253,0.007786708353459835
1776442845873513200,4.13451318359375,-1.0700351236104964,-0.1090565139811486,-1.1648306917227804
1776442845898530300,4.1595302734375,1.7317741084903477,-0.053875309507176276,-0.6022745501287281
1776442845923546400,4.18454638671875,1.2880787395983935,0.4031017849579453,1.1739299439795314
1776442845948563200,4.209563232421875,-0.1507844357073307,-0.14747443437650798,0.8949809006519616
1776442845973579300,4.234579345703125,0.0050122752040624614,-0.5243949724387377,0.26239304532408714
1776442845998596000,4.25959619140625,0.5161743296474218,-0.4444088509235531,-0.07212795536071062
1776442846023612200,4.284612060546875,0.8222311601310968,-0.48138534033894537,0.11156374756172299
1776442846048629200,4.309629150390625,1.2694231389671564,-0.9734671389982104,0.16495105435624718
1776442846073645000,4.33464501953125,-0.3456920907795429,-0.7361818661194294,0.9553868540368974
1776442846098662100,4.359662109375,-1.1090776787102221,0.04205792086552828,1.1099179289266465
1776442846123679200,4.38467919921875,0.07825345250368118,-0.41558655146714296,0.10413666630089283
1776442846148695300,4.4096953125,-0.036893852633237835,-0.31623627919256686,-0.28854163205921646
1776442846173712100,4.434712158203125,0.22306524354219434,-1.109360441174358,-0.5686639569498598
1776442846198728200,4.459728271484375,0.2814420291870832,-1.2311322790175676,-0.23232260897010562
1776442846223745000,4.4847451171875,-0.16729717909097672,-0.4338980513684451,0.8222459193088114
1776442846248761000,4.509760986328125,-0.08479542149305343,-0.25264701959639785,1.3834437781617044
1776442846273778200,4.534778076171875,-0.14418109191954134,0.40889425075426694,0.9742258484110236
1776442846298794200,4.559794189453125,0.7518494639158249,0.2579910109728575,0.5727521030463278
1776442846323811300,4.584811279296875,0.36252164502739903,-0.2808005164131522,0.32123467200174927
1776442846348827100,4.6098271484375,-0.011713818669319151,-0.4194510083429515,0.11630531606562435
1776442846373844200,4.63484423828125,0.12327332844734191,-0.47001083662658927,-0.042325522293150425
1776442846398860300,4.6598603515625,0.1333119073808193,-0.3648084407903254,-0.30523433511964976
1776442846423877000,4.684877197265625,0.059711249119043346,-0.0574770603261888,-0.42775684519968926
1776442846448894200,4.709894287109375,0.008992869272828101,-0.13039287812896072,-0.12147796946316956
1776442846473910800,4.734910888671875,-0.6110872405290604,-0.19539551165439187,0.17460731944125144
1776442846498927900,4.759927978515625,-0.480729506778717,0.22084961331933736,0.19236372447675093
1776442846523943700,4.784943603515625,-0.07089724452197552,0.2005924227103591,0.08283636898030526
1776442846548960800,4.809960693359375,-0.3909884455770254,0.09653079440705478,0.10229552281307987
1776442846573976800,4.834976806640625,-0.39803544147908687,0.2839974858235568,0.24003442545644937
1776442846598993700,4.85999365234375,-0.12225509131550788,0.23435630675479768,-0.718746747193858
1776442846624009700,4.885009765625,0.05748480524122715,0.21047931821346283,-0.5729080607930198
1776442846649026800,4.91002685546875,-0.26515023507773877,0.25047902790755033,-0.010657368418946862
1776442846674042600,4.935042724609375,-0.4740922607213258,0.7487637728601694,0.41822796935401857
1776442846699059700,4.960059814453125,-0.16320318777561188,1.0777015665851533,0.7117279544729739
1776442846724075800,4.98507568359375,-0.2261824987798929,1.0438089415945113,0.9798434690970927
1776442846749092900,5.0100927734375,-0.3180605720102787,0.8345181755784898,0.9768258748415857
1776442846774110000,5.03510986328125,0.17759002504646776,0.39308834046572444,0.04957951200939715
1776442846799125800,5.060125732421875,0.36535365358293054,-0.08506167121380567,0.20998335139006374
1776442846824142600,5.085142578125,-0.591796264603734,-0.6026497401166707,0.7046722638078033
1776442846849158700,5.11015869140625,0.03393500282764435,-0.35052805956862865,0.3092465664356947
1776442846874175700,5.13517578125,0.22407997354269027,0.21263799408469347,-0.20442549806721508
1776442846899191800,5.16019189453125,0.19310031338930128,-0.0670261752422899,0.09975351931322365
1776442846924209000,5.185208984375,-0.7734042931199073,-0.029780403898842633,0.8108492768298834
1776442846949224700,5.210224609375,-0.6143880356401205,-1.7051558584168551,-1.3009101641207932
1776442846974241800,5.23524169921875,0.12116378894746303,-0.6823929197214543,-0.20200429880227894
1776442846999257900,5.2602578125,0.16738719546198844,0.5299827825084328,1.0697066223084926
1776442847024275000,5.28527490234375,-0.9577741875648498,0.5811647612784058,1.1868223049089313
1776442847049291000,5.310291015625,-0.4297206195533275,0.15730696934387087,0.8183554877415299
1776442847074307600,5.3353076171875,0.0577308889567852,-0.5282079183230176,0.45020248576365407
1776442847099323600,5.36032373046875,0.7632990786910057,-0.9930806979414075,-0.6511364153880626
1776442847124340700,5.3853408203125,0.9234504776805639,0.04679046581275761,0.09440178302172571
1776442847149357800,5.41035791015625,-0.48420098228156566,-0.07298256289605051,0.15715349581521004
1776442847174374000,5.435373779296875,-0.7284457919746636,-0.3811593446757644,-0.23862158125014973
1776442847199391000,5.460390869140625,0.35721769340038295,-0.5726805356474592,-0.0721940428668633
1776442847224406800,5.48540673828125,0.2375017651736736,-0.20318198254583403,0.2977799822594039
1776442847249423600,5.510423583984375,-0.34999943258464333,0.4515524756005034,0.8071173237599432
1776442847274440000,5.53543994140625,0.8705909941524267,0.4101058185011148,0.05043685949109494
1776442847299456800,5.560456787109375,1.8890356312572956,-0.08414013592209667,-0.5974929418753833
1776442847324472600,5.58547265625,0.338660876968503,-0.5148423503912986,0.015111936675012112
1776442847349489700,5.61048974609375,-1.9956717131584882,0.2247513334656134,0.21982764986045658
1776442847374505700,5.635505615234375,0.6558546030163764,-0.07411565857920795,-0.7158321018561721
1776442847399522800,5.660522705078125,2.0411516078293324,-0.4631801503563299,-1.1655027457654477
1776442847424539000,5.685538818359375,0.5418243192106486,-0.9129886318337171,0.537991426516883
1776442847449556000,5.710555908203125,-1.7942846329391002,-1.1067647255927324,1.6819773735336958
1776442847474572800,5.73557275390625,-0.38353462243974207,-0.9793195182882248,0.8220670556105673
1776442847499588600,5.760588623046875,0.7632581621587275,-0.5882804385025053,0.7385989371985197
1776442847524605700,5.785605712890625,-0.6592594430238008,0.006162175891548395,0.8824996047414839
1776442847549621800,5.810621826171875,0.1295002401381731,0.04986614693105221,0.8085593392618
1776442847574638800,5.835638916015625,1.0803449207007885,-0.03662241528071463,0.07046029614312574
1776442847599655000,5.860655029296875,0.40176176852583884,0.178983671361953,-0.5161424001391977
1776442847624672000,5.885672119140625,0.17777298039793968,0.7307070879701525,-0.06061491082734428
1776442847649687800,5.910687744140625,0.21577976270914076,0.35752938969805836,-0.1252587666435167
1776442847674705000,5.935704833984375,-1.9676082327127455,0.7137800646971911,0.47057793245743956
1776442847699721000,5.960720947265625,-1.880039839375019,0.9926546545490622,0.32719080392718314
1776442847724737800,5.98573779296875,0.25032208378016946,0.9413172660216689,0.4189742576766759
1776442847749753600,6.010753662109375,0.9234703514248133,0.4759922856563702,0.30645229607466606
1776442847774770700,6.035770751953125,-0.8885936838328837,0.13184621874243022,0.37127168198768046
1776442847799787800,6.060787841796875,-0.6468985586225986,0.3998795715084299,0.46566663340982045
1776442847824803800,6.085803955078125,1.2406085478931665,0.12533208760805428,-0.665266282223165
1776442847849821000,6.110821044921875,0.5963052664607763,-0.12229608091302216,-0.37985600699223576
1776442847874837000,6.1358369140625,-0.3691062841147184,-0.7267448332756757,0.34253581870570776
1776442847899853800,6.160853759765625,-0.2657563842773437,-0.6103701783008874,0.30094883982017634
1776442847924870000,6.185869873046875,0.017367314386367797,-0.20195859649702905,0.047402752492204304
1776442847949886700,6.21088671875,0.3190530901789665,-0.11389167905263602,0.22421273307688533
1776442847974902800,6.23590283203125,-0.5163911872684955,-0.9374787838373333,0.6363128672003746
1776442847999919900,6.260919921875,-0.4874357264190912,-0.8521336195070296,1.0860440091252326
1776442848024935700,6.285935791015625,0.014437690675258635,0.35864684942066666,0.576459067805484
1776442848049952800,6.310952880859375,0.39269934114813804,1.029749217386171,-0.6409213108438998
1776442848074968800,6.33596875,0.9552706803113221,1.1504784873738885,-1.1863796026427298
1776442848099986000,6.36098583984375,0.6096586690306663,0.7546255045004189,-0.7409701233092695
1776442848125002800,6.386002685546875,0.12192483644783496,-0.14421335022132842,-0.9461163368664681
1776442848150018800,6.411018798828125,0.6714017162382603,-0.24972722315955906,-1.3748337707266212
1776442848175035600,6.43603564453125,0.429538833245635,0.1508816855367273,-1.1913393439419566
1776442848200051700,6.4610517578125,0.9639975921243429,-0.1112532933730632,-1.388705644212663
1776442848225068800,6.48606884765625,0.30561727002263067,-0.6934319809343665,-0.7404321439750492
1776442848250084900,6.5110849609375,-0.5110147549271583,-0.4071397352371365,-0.24976149075534193
1776442848275102000,6.53610205078125,-0.03883037365376949,-0.9600964199673384,-0.7436241449493914
1776442848300117800,6.56111767578125,0.1444143161535263,-0.896848740350455,-0.43985506007671354
1776442848325134800,6.586134765625,-0.7976186969220638,-0.5549784728813916,0.5875494938794523
1776442848350151000,6.61115087890625,-0.27283143723011016,-0.4744475769650191,1.248344548972696
1776442848375167700,6.636167724609375,-0.34056758737266063,-0.3490566718418151,1.5378614558048544
1776442848400184800,6.661184814453125,-0.6333323900848626,-0.42374015690423544,1.2534214138455688
1776442848425201000,6.686200927734375,-0.10755495031177997,-1.0966622876428067,0.06705770289171487
1776442848450217700,6.7112177734375,-0.12436989151239394,-1.1559557497411965,0.29380349811017514
1776442848475233000,6.73623291015625,-0.5232189874619245,-0.6752862295214086,1.24774497564435
1776442848500250000,6.76125,-0.8144196095973253,-0.5159487041980028,0.8014634627167135
1776442848525266000,6.786265869140625,0.5752794295668602,-1.1008577665712684,-0.43049847205802794
1776442848550283000,6.811282958984375,-0.2988070054858923,-1.2286843013435602,-0.13454977861270306
1776442848575299000,6.836299072265625,-0.6308551863163709,-1.2719395057022571,-0.3437292662739754
1776442848600316200,6.861316162109375,0.2878215010911226,-0.45573129565510895,0.8788647553704678
1776442848625332200,6.886332275390625,-0.7379337512880564,0.665508201220259,1.7745288159810007
1776442848650349000,6.91134912109375,0.13374620714485644,0.3406220575062558,0.5190408249944448
1776442848675364900,6.93636474609375,0.4299591044843197,-0.28162911272440105,-1.2841625890679658
1776442848700382000,6.9613818359375,0.8305763791501521,-0.7566646091125905,-1.9674834372892975
1776442848725399000,6.98639892578125,-0.14406594110727308,-0.5545116590872406,-1.5841082431949673
1776442848750415000,7.0114150390625,-0.3978501480400562,-0.058432644017972046,0.2135771380983293
1776442848775432200,7.03643212890625,-0.15242694221735,1.698571219329536,2.504576051802933
1776442848800448000,7.061447998046875,-1.0030775566250085,1.923583797547221,2.142456850096583
1776442848825465000,7.086465087890625,0.6298194135278463,-0.515192223274894,-1.0210860915243625
1776442848850481200,7.111481201171875,0.3789712600469589,-1.1620344851329922,-1.1984032909788191
1776442848875498000,7.136498046875,0.172891638097167,-0.732397159948945,-1.2636704206593334
1776442848900514000,7.16151416015625,0.3343810076922178,-0.19380287216808645,0.032477351365238424
1776442848925531100,7.18653125,-0.6647106941670179,0.26309673661403354,1.4723261767074465
1776442848950547000,7.211546875,-0.31572482253909107,-0.13909633600115776,1.0825913844533264
1776442848975564000,7.23656396484375,-0.3064712565034628,-0.15319215443618595,0.8686383987799287
1776442849000581000,7.2615810546875,-0.4782330137878656,-0.4917375152662396,0.7588450218915939
1776442849025597200,7.28659716796875,-0.69687810280025,-0.7585780415184795,-0.5393357172653078
1776442849050614000,7.311614013671875,0.4626642732560634,0.4402741622716188,-2.4828148863717914
1776442849075629800,7.3366298828125,3.114365361475944,-0.16381722802072762,-2.3579085498951375
1776442849100647000,7.36164697265625,1.3194997137784956,0.10505144305825233,-0.3344292307481169
1776442849125663000,7.3866630859375,-0.18911855027675628,-0.18076558634266257,0.8072882964126765
1776442849150680000,7.41168017578125,-0.9246949247837066,-0.2449761927075684,0.0029629414588212967
1776442849175696100,7.436696044921875,-0.829504366004467,0.03688380616325885,1.16158177292943
1776442849200713000,7.461712890625,-0.6691799485355615,0.5101050562037155,2.0497810506172476
1776442849225729000,7.48672900390625,1.5139648857802153,-0.11229611695688217,-0.9154546566210686
1776442849250746000,7.51174609375,1.1886825458228587,-0.476848939018324,-1.5921978800177574
1776442849275763000,7.536762939453125,-0.08329261571466923,0.24913765976857394,0.9260013312071561
1776442849300779000,7.561779052734375,-0.2776473130792379,0.07673259961195289,0.8655469355706125
1776442849325796000,7.586796142578125,-0.2681839036852121,-0.28034935684585943,-0.307458367844671
1776442849350812000,7.61181201171875,0.06230886439681053,-0.5354468566006049,-0.901206497168541
1776442849375829000,7.6368291015625,0.07086626486182213,-0.40089156156256794,-0.54378918954283
1776442849400845000,7.661844970703125,-0.3743371705055237,-0.3840448735168204,-0.36531259092018004
1776442849425862100,7.686862060546875,-0.04171148204803467,-0.3384214421894401,-0.7906257692947983
1776442849450878200,7.711878173828125,-0.2228454633116722,0.013436610174202359,-0.30146862591058016
1776442849475895600,7.7368955078125,-0.6086152974575758,-0.303998546246998,-0.021756050864607093
1776442849500911400,7.761911376953125,-0.9869880070894956,-0.6104120446812361,-0.12447101379930972
1776442849525928400,7.786928466796875,0.5325462032556534,-0.16169168723411856,-0.4811243513152003
1776442849550945500,7.811945556640625,0.7386696643471717,0.558204120397009,0.5526366589955986
1776442849575961600,7.836961669921875,0.22272212919294831,0.2744231268683448,0.3292459828913212
1776442849600978700,7.861978759765625,0.4282628219604492,0.17228855763748288,-0.427022028119117
1776442849625994500,7.886994384765625,0.5799789855599403,0.7904170949801802,1.3974768335588275
1776442849651011600,7.912011474609375,-0.3645487669408321,0.6871759892795235,1.7479735481411218
1776442849676027600,7.937027587890625,-0.17492518975138663,0.10982811940815299,0.2245744790613651
1776442849701044500,7.96204443359375,1.3162544482469558,0.33750838246513154,-0.7008009753324091
1776442849726060500,7.987060546875,0.6562082387596369,0.28343093798197805,0.4842994742199778
1776442849751077400,8.012077392578124,-1.0661544827848672,-0.3903466405421495,1.2634846888288855
1776442849776093400,8.037093505859374,-2.371134672823548,-2.310245904357731,-0.5464576780997217
1776442849801110500,8.062110595703125,-0.03463701361715794,-0.5918748097326606,-0.42787046164199705
1776442849826127600,8.087127685546875,0.19121289220750332,-0.06843920211168006,0.33500527707040306
1776442849851143700,8.112143798828125,-0.9458008411765098,-0.5375978240894154,0.17456278617978094
1776442849876160500,8.137160400390625,0.19298750066459178,-0.01574344864473678,0.749854636836797
1776442849901176600,8.162176513671875,0.44112931779623027,0.5598944115715101,1.0532758581198751
1776442849926193400,8.187193359375,0.08849076887965202,0.286072830792889,-0.07553951736986636
1776442849951209500,8.21220947265625,0.03077858462333679,-0.07336154314312152,-0.4796034253582358
1776442849976226600,8.2372265625,0.1228121406763792,0.07157327605343888,0.041240065144002434
1776442850001242600,8.26224267578125,0.1201058043271303,0.4493949687730521,-0.924062910490483
1776442850026259500,8.287259521484375,0.5498731856316328,-1.3518091612309218,-1.811450287273526
1776442850051275500,8.312275634765625,0.6453197649985551,-1.0374221631668508,-0.6847467893712222
1776442850076292600,8.337292724609375,-0.5788140334337949,-0.16407103838501497,1.8066417179480194
1776442850101309400,8.362309326171875,-0.7701449990630149,0.08248885245057754,2.989709346498549
1776442850126325500,8.387325439453125,-0.8827630779832601,-0.3826575473442673,2.5480337929964065
1776442850151342600,8.412342529296875,-0.3713561088681221,-0.767673275187239,1.3436102188147603
1776442850176358400,8.4373583984375,0.9452841238260269,-0.8470940909698605,-0.2591124162182212
1776442850201375500,8.46237548828125,1.0340835202634333,-0.7684696131967008,-0.6155883513405919
1776442850226391600,8.4873916015625,0.3930664208948612,-0.561857345674932,-0.05982873801887035
1776442850251408600,8.51240869140625,0.33118133486807344,-0.3944561947528273,0.5137272287562489
1776442850276424700,8.5374248046875,-0.36351942389309405,-0.3189280755598098,0.5109446123003959
1776442850301441500,8.562441650390625,-0.38094226785898205,-0.530619838302955,0.1285895550340414
1776442850326458400,8.587458251953125,-0.43425534037351604,-0.45949083085171877,-0.37039383970722556
1776442850351474400,8.612474365234375,0.3700479488790035,-0.12750687436386943,-0.6130113404594362
1776442850376491500,8.637491455078125,0.772435155826807,0.11319295619875192,-1.0543195219539105
1776442850401507600,8.662507568359375,-0.04446165753901005,0.2556865334227681,-1.1979362579889594
1776442850426524700,8.687524658203126,-0.21196692642271517,0.5836049209721386,-0.5684268602583556
1776442850451540500,8.71254052734375,-0.48941433301568027,0.6748170776396989,-0.40570506279151886
1776442850476557300,8.737557373046876,-0.2912304327517748,0.907896057935059,0.056930240098387
1776442850501573400,8.762573486328124,-0.23639760332405566,0.8184770682945847,0.5622875903183594
1776442850526590500,8.787590576171874,-1.2695067255973815,0.6121915485091507,1.1810638875126838
1776442850551606300,8.812606201171874,-1.3404717746585606,1.150175412774086,0.6752273389410227
1776442850576623000,8.837623046875,0.8374830897986888,1.345379712705314,0.11610639596004038
1776442850601640200,8.86264013671875,0.6107523094862699,1.0355329884193838,-0.23141230745846406
1776442850626656300,8.88765625,0.6512474014818668,0.6353668185219168,-0.6933177799701691
1776442850651673300,8.91267333984375,0.43257776255011554,0.39649259595125913,-0.5105475758068263
1776442850676689400,8.937689453125,0.2723024449199438,0.10047880138047038,-0.37079292202740904
1776442850701706200,8.962706298828126,0.2003326027303934,-0.08783895390741527,0.32460714410953223
1776442850726722300,8.987722412109376,0.26336861235797404,-0.9721422470699995,0.9776943282391876
1776442850751739100,9.0127392578125,-0.47613107307255265,-0.6014527123518287,0.6139933372341096
1776442850776755500,9.03775537109375,0.29699557214975353,-0.1466691093429923,0.22251177437789738
1776442850801772300,9.062772216796875,0.0786141025096178,0.3526381470577791,0.27861425841525195
1776442850826789400,9.087789306640625,0.5508399848371743,0.6953565923213958,1.0132362548068166
1776442850851805200,9.11280517578125,-0.009416647642850875,0.26334621786307544,0.13928776692003011
1776442850876822300,9.137822265625,-1.798384469473362,-2.344119240126014,-1.0632413718171416
1776442850901838300,9.16283837890625,-0.6359755980700255,0.3171876981658861,1.3172199322782456
1776442850926855400,9.18785546875,0.30642507927417756,0.7671816922780126,0.26343758594095706
1776442850951871500,9.21287158203125,0.8146393898278474,0.7342703334096818,0.030275019015371798
1776442850976888000,9.23788818359375,-1.3074258296251295,-0.38919242900572715,0.24442235821709035
1776442851001904000,9.262904052734376,-0.9290729937374591,-0.5203253849122673,0.0866982594396919
1776442851026921200,9.287921142578124,-0.12824644068479538,-0.07937390790097415,0.2326720069296658
1776442851051938300,9.312938232421875,-1.0565420203089713,-0.2556345475072041,0.62787989683263
1776442851076954400,9.337954345703125,-0.30292262411117554,-0.4497011121127754,0.24324220852181314
1776442851101971500,9.362971435546875,0.4188689706712961,-0.3883260944999754,-0.03440978073254228
1776442851126987300,9.3879873046875,0.3207558024436235,-0.16701463582254944,-0.40830760997273025
1776442851152004400,9.41300439453125,0.510388731983304,-0.015057283878326415,-0.1743668252162635
1776442851177020400,9.4380205078125,-0.09180383895039558,-0.25212383597251026,-0.38815292989015576
1776442851202037200,9.463037353515626,-0.18722879100739956,0.21025582992220296,-0.3450609898017719
1776442851227053000,9.488052978515626,0.19282734166681764,0.28135685338797045,-0.00955028395988047
1776442851252070100,9.513070068359376,0.4880097269147634,0.19559576520053668,0.09421963138785212
1776442851277086200,9.538086181640624,0.0747580116033554,0.5027000041116029,-0.08787406175341457
1776442851302103300,9.563103271484374,0.1749053160071373,0.5517721511207521,-0.2880834764955565
1776442851327120400,9.588120361328125,0.20766776792407035,0.05585881147459149,0.18539806844890117
1776442851352136400,9.613136474609375,-0.2806277901947498,0.19241474227793515,0.11807831708751618
1776442851377153300,9.6381533203125,0.2503705990970135,0.1286118399310857,0.17550225898697971
1776442851402169300,9.66316943359375,0.25469664560258387,0.008474325291439891,0.5929395163547247
1776442851427186200,9.688186279296875,-0.41966041330993176,-0.08639730373173951,0.5193669151436537
1776442851452202200,9.7132021484375,-0.12791618581712244,0.11610058727376163,0.24742402425110338
1776442851477219800,9.7382197265625,1.1129191565692425,-0.1434967629171908,0.2623633443055674
1776442851502237000,9.76323681640625,0.7883359047919511,-0.46791167239025233,0.5980599281083792
1776442851527253000,9.7882529296875,0.2536503514200449,-0.45410840716101225,-0.07937675744518637
1776442851552269800,9.813269775390625,-0.7066308505296707,-0.5941815523050725,0.026310901157371697
1776442851577286000,9.838285888671875,0.2575157946765423,-0.6443298041131347,0.35893545710369945
1776442851602302700,9.863302734375,-0.17590192582905292,-0.16879085171483457,0.9839424288485199
1776442851627318800,9.88831884765625,0.39186990458667276,0.4825357524830848,0.18075732997097074
1776442851652335900,9.9133359375,-0.7306874334216118,1.3351283678039907,0.3893135711673647
1776442851677351700,9.9383515625,0.6131704765439033,-0.5910223576217889,-0.08657061447203158
1776442851702368800,9.96336865234375,-0.39870179643332954,-0.45384201130978763,0.22245507575459778
1776442851727385900,9.9883857421875,0.04082651590704918,-0.3585875204488635,0.008046089942008257
1776442851752402000,10.01340185546875,-0.2342775424301624,-0.1542510158393532,-0.03814516786858439
1776442851777418800,10.038418701171874,0.020703765332698822,0.09975918186902999,0.005769742507860064
1776442851802434800,10.063434814453124,0.82179627584517,0.03506066412301734,0.35718320660889147
1776442851827451600,10.08845166015625,-0.8248749526381493,0.5710420477254315,0.643285336561501
1776442851852467700,10.1134677734375,-0.3408464043140411,0.3843322756234556,0.16279329180046914
1776442851877484800,10.13848486328125,-0.34998657310307024,0.107472130866535,0.04533639454692602
1776442851902500900,10.1635009765625,-0.050752866637706756,-0.34406617007814344,0.18093297879882156
1776442851927518000,10.18851806640625,0.34238661949336524,0.06567892535179853,0.15620974869169293
1776442851952535000,10.21353515625,-0.22453940774798392,0.0023587650205940005,0.0931474355790764
1776442851977550800,10.23855078125,-0.634204496744275,-0.397752679014951,-0.3637843584395945
1776442852002567700,10.263567626953124,0.1508013868421316,-0.445657535810396,-0.4740699027590453
1776442852027583700,10.288583740234374,0.2969944031059742,0.5145171370249241,0.152933284304291
1776442852052600800,10.313600830078125,-0.026009470525383948,0.4546289239037782,0.375125032947585
1776442852077617000,10.338616943359375,-0.14121698141694067,-0.4097190111406147,-0.30582908614240584
1776442852102633700,10.3636337890625,-0.02486439214348793,-0.33827903804406523,-0.057430298575013874
1776442852127649800,10.38864990234375,0.16766718144714832,-0.1515939254593104,0.15236900148503482
1776442852152667000,10.4136669921875,-0.050208092236518856,-0.19521847458705305,0.45265207087285814
1776442852177683700,10.43868359375,0.2806353889793157,-0.4468345437005162,0.009905527138337492
1776442852202699800,10.46369970703125,0.352170931404829,-0.23903584287315605,0.263249369892478
1776442852227716900,10.488716796875,-0.4225818537145853,-0.01730433215275407,0.9129579444345086
1776442852252732700,10.513732666015626,-0.8198024716794491,0.35011677535399793,0.9699307815656065
1776442852277749800,10.538749755859374,0.9488742572724819,-0.0657799745734781,-0.2071590512169525
1776442852302765800,10.563765869140624,0.6939291898667812,-0.0024353373881429432,-0.2832395801283419
1776442852327783000,10.588782958984375,0.16041151123046873,0.22541860173530875,-0.6335175373934209
1776442852352800000,10.613800048828125,0.7590922746509313,0.3253679724141955,-0.6545071339301765
1776442852377815800,10.63881591796875,-0.09129881203770637,-0.08837130721844733,0.0025151794250123202
1776442852402832600,10.66383251953125,-0.6395955421328544,-0.45290641096010803,0.6160579416137189
1776442852427848700,10.6888486328125,-0.7648591676145792,-0.6089176414050161,0.8980272826105355
1776442852452865800,10.71386572265625,-0.4041775974959135,-0.7425077812053262,0.5960585982233285
1776442852477881600,10.738881591796876,-0.487596469938755,-0.10023761303573846,0.054513854005886236
1776442852502898400,10.7638984375,-0.22572423361837862,0.2111002996560186,0.2936844383077696
1776442852527914500,10.78891455078125,-0.00020049100816249847,-0.022307401137053966,0.3900145225109532
1776442852552931600,10.813931640625,-0.3712491413623094,-0.13115202593319117,0.18727182643152773
1776442852577948700,10.83894873046875,0.3022656215071678,-0.19650807600617407,-0.7318811732508241
1776442852602964700,10.86396484375,1.1509148329645396,-0.35169717641323806,-1.0265279903173445
1776442852627981600,10.888981689453125,0.37095337328612804,-0.49082566111832854,0.2831375810585916
1776442852652997400,10.913997314453125,-0.37824469933807847,-0.41093518199734386,0.592559102202393
1776442852678014500,10.939014404296875,-1.0271171883821486,0.3211431943260133,-0.24564145168326793
1776442852703030500,10.964030517578125,-0.004953823015093803,0.3025060061343014,-0.6721963006820529
1776442852728047600,10.989047607421876,0.08579670749008655,0.1118979844847694,-0.4532923415377736
1776442852753064700,11.014064697265624,0.06985971816778183,-0.17225542255286128,-0.431694148116
1776442852778080500,11.03908056640625,-0.34020576832294463,0.19153061638716606,-0.008221894033486023
1776442852803097600,11.06409765625,-0.001619125634431839,0.043521600209921595,0.27587997461315245
1776442852828113700,11.08911376953125,0.08810790704190731,-0.44012251537386327,0.6128236358676106
1776442852853130500,11.114130615234375,0.5066933845967054,-0.21036354634668677,0.848351616750285
1776442852878146600,11.139146484375,0.05575403592586517,-0.09339187532681971,0.7219200434677302
1776442852903163600,11.16416357421875,0.5183136797636747,-0.5545132665224373,0.5756196578392758
1776442852928180500,11.189180419921875,0.07625438764095306,0.14688742826879023,-0.19118907294049858
1776442852953196500,11.214196533203125,0.6416472139656544,0.4834412499554455,-0.159281082428433
1776442852978213600,11.239213623046876,0.23453064040839672,0.4652164419569075,-0.04180232040295377
1776442853003229700,11.264229736328126,-0.7170300794690847,0.41346857293248174,0.0047757447681389745
1776442853028246500,11.28924658203125,0.2616092014700174,-0.14155790380910038,-0.040690441037761045
1776442853053262600,11.3142626953125,0.03310790435373783,-0.10341343006025999,-0.054091025483934206
1776442853078279400,11.339279541015625,-0.10078852491676807,-0.10632493359278887,0.7080141946468502
1776442853103296500,11.364296630859375,-0.1420265442341566,0.04348682115748524,0.6161002463854849
1776442853128312600,11.3893125,-0.42580373837053775,-0.3334353243399411,0.058589615544816474
1776442853153329700,11.41432958984375,0.3529717263936996,-0.46759252343848345,-0.053160713230725375
1776442853178345700,11.439345703125,-0.0981295348405838,-0.20947649784646927,0.14884160367702134
1776442853203362600,11.464362548828126,-0.091092475810647,-0.22292433723416177,0.45970348722171034
1776442853228378600,11.489378662109376,-0.33369477899372574,-0.2943412765149958,0.004379311062768102
1776442853253395500,11.5143955078125,-0.0013736264407634734,-0.06528756968034431,-0.37268286395985634
1776442853278412500,11.53941259765625,-0.06272153685092925,0.37564598808176813,-0.2964229050946422
1776442853303428600,11.5644287109375,-0.12955050902068616,0.1677447767280042,0.23865926464572548
1776442853328445700,11.58944580078125,-0.06714929016530513,-0.27371477766958996,0.2762954052799381
1776442853353461500,11.61446142578125,0.03234042711257935,-0.24545171953113748,0.09663639193968847
1776442853378478600,11.639478515625,-0.5072445887386798,0.43556068735104053,-0.24827382774716242
1776442853403494700,11.66449462890625,0.7524258024990558,0.23284429475665092,-0.7724388090886175
1776442853428511700,11.68951171875,-0.30593524993062016,0.4376521797375753,0.19467899741549044
1776442853453528600,11.714528564453126,0.05334580574035644,0.3417804702937603,0.6992536728251725
1776442853478545000,11.739544921875,0.2958873186469078,-0.016966775328037326,0.3381010876612738
1776442853503562000,11.76456201171875,0.2829015803456306,-0.19201310267448424,0.07840062415571883
1776442853528577800,11.789577880859374,0.39021512311697004,-0.3420884402643889,-0.042341413982026274
1776442853553595000,11.814594970703125,0.42158641293644905,-0.40323571353591975,-0.15930238094478844
1776442853578611000,11.83961083984375,0.009103343909978866,-0.1825879063989967,0.3939510582422837
1776442853603628000,11.8646279296875,-0.12341828987598419,-0.16055097450008615,0.3551845801375806
1776442853628644900,11.889644775390625,0.15766192026138304,-0.25818238709280267,0.09727582235438749
1776442853653661000,11.914660888671875,0.02397884148061275,-0.16731274198628962,0.2582275231424719
1776442853678677800,11.939677734375,0.4329115245491266,-0.33919659128040075,-0.0026776765103451905
1776442853703693800,11.96469384765625,0.2080143894046545,-0.4309908586848527,0.1588773969983682
1776442853728711000,11.9897109375,0.14164952761530875,-0.22165095629747955,0.1454035372534301
1776442853753727000,12.01472705078125,-0.056177229773998257,-0.0793088067755103,-0.06620495851989835
1776442853778744000,12.039744140625,0.29351474429666996,-0.5030971136704087,-0.2634447280677967
1776442853803761000,12.064760986328125,-0.28665245731174943,-0.5619833466747776,-0.706420934106037
1776442853828777000,12.08977685546875,-0.1214788462460041,0.025731957341812085,-0.384128277483955
1776442853853793800,12.114793701171875,-0.11203121894299983,0.03845326570337638,-0.3895458455532789
1776442853878809900,12.139809814453125,0.37819443045556544,-0.25419357318496333,-0.28161561392201107
1776442853903827000,12.164826904296875,0.24762159264981745,-0.2626987137397751,0.005346548659726977
1776442853928844000,12.189843994140626,-0.33316637120544906,0.34110742987040427,0.36271636388190087
1776442853953859800,12.21485986328125,0.3139911306142807,0.563382619013451,0.1825508988568559
1776442853978877000,12.239876953125,-2.0060697730541226,1.4594677180476485,-0.35720888903941955
1776442854003893000,12.26489306640625,0.14279402147531509,0.2799937666075304,0.09794248783588409
1776442854028909800,12.289909912109374,-0.10230886635184287,0.18662713531982153,0.5226532798705622
1776442854053926000,12.31492578125,0.6441057130336761,0.047324024700187144,-0.18426469877110793
1776442854078943000,12.33994287109375,0.782744952917099,-0.4865135700728744,-0.977228683488816
1776442854103959800,12.364959716796875,-0.470145568922162,-0.0244827724147588,-0.34911165343206374
1776442854128976000,12.389975830078125,-1.7371598931819199,0.029343875645101068,0.16592439290042965
1776442854153993000,12.414992919921875,0.7203408114522695,0.6454548626203089,0.2924899312935769
1776442854179009000,12.440009033203125,0.7664221791476011,0.21663389532044527,-0.45290034654550254
1776442854204025900,12.46502587890625,0.2046855372428894,0.18509952389374373,-0.017452070060372353
1776442854229043000,12.49004296875,0.47777065697312354,0.42121509540602564,0.6989417573317885
1776442854254058800,12.515058837890624,-0.2583364634096622,0.7857360244918614,0.4288445673711598
1776442854279075800,12.540075927734375,-0.15244330883026122,0.04651639811173081,-0.5751204396128654
1776442854304092000,12.565091796875,-0.17487141373753545,-0.31896621561311184,-1.0834710898973048
1776442854329109000,12.59010888671875,0.4452174638926983,-0.9568485240872949,-1.0887879010058938
1776442854354125000,12.615125,-0.31081133153438567,-0.7358030228696764,-0.08279445693418383
1776442854379142000,12.640141845703125,-1.0143810409277676,-0.6394485348775982,0.5273435200460255
1776442854404158700,12.66515869140625,-0.9238631501346826,-0.4887623719129711,0.7186210019223391
1776442854429174800,12.6901748046875,0.17840484856069086,-0.2671196354545653,0.6810333218060434
1776442854454191900,12.71519189453125,-0.4082762649863958,-0.7434056068278849,0.15474617894515394
1776442854479207000,12.74020703125,-0.3134311586439609,-0.7979823426026851,-0.15693974346667527
1776442854504224000,12.76522412109375,0.23187983363866804,-0.6623981794409454,-0.20205869587063788
1776442854529240800,12.79024072265625,-0.08134265069067478,-0.6954629753053188,0.027896891707181928
1776442854554257000,12.8152568359375,-0.16107669714093206,-0.6773311062872409,0.048912791728973386
1776442854579274000,12.84027392578125,0.32194004379212854,-0.18031784257516265,0.6690846714675426
1776442854604290000,12.8652900390625,-0.01557341670691967,0.00806062992401421,0.7225143560990691
1776442854629307100,12.89030712890625,-0.14178981286883352,0.2590335788283497,-0.23569617705643175
1776442854654323000,12.915322998046875,0.23465222096145152,-0.13717647385448217,0.25012831477373837
1776442854679339800,12.94033984375,0.520172459372878,-1.276065791852027,0.18418986170291898
1776442854704356900,12.96535693359375,-0.4617676166772842,0.5583487530320882,-0.12304273456186056
1776442854729373000,12.990373046875,0.01494505567550659,1.7373666678003965,-1.311198041640222
1776442854754390000,13.01539013671875,1.0160919364988803,-0.31266981888264417,-1.3793424803227186
1776442854779405800,13.04040576171875,-1.2233815187603234,-0.939835356900841,-1.2061129885733126
1776442854804423000,13.0654228515625,-1.1755986078441143,-0.21710691965967416,0.40862025611847635
1776442854829440000,13.09043994140625,-0.047912090253829955,0.07965659729987383,-0.2542068162590265
1776442854854456000,13.1154560546875,0.05526829823553562,-1.0083246634982526,-1.42274761454612
1776442854879473000,13.140472900390625,-0.3992050697803497,-1.3015627828106284,-1.0479384426146745
1776442854904489000,13.165489013671875,-0.012163316002488135,-0.15076237000599502,0.9069304277732968
1776442854929506000,13.190506103515625,0.6302122122377157,1.093590040590614,1.2116054485097527
1776442854954523000,13.21552294921875,0.7129904486894607,0.5130652577161788,0.4996621707856655
1776442854979539000,13.2405390625,0.2483686116248369,0.2525812608838081,0.6101248252376914
1776442855004556000,13.26555615234375,0.33734570271670816,0.12274419000670313,0.6684624479159712
1776442855029572000,13.290572021484374,-0.30555355713665483,-0.632330227304995,0.2456371408343315
1776442855054589000,13.3155888671875,-0.3895136968493461,-0.9090770113479345,0.06680646807700395
1776442855079605000,13.34060498046875,-0.16796762569844723,-0.4042904832858592,0.309848331721127
1776442855104621800,13.365621826171875,0.1115969191789627,-0.041013782107457514,0.5727700770944356
1776442855129639000,13.390638916015625,0.6555863074690104,0.2366531855203211,0.26112755543291566
1776442855154655000,13.415655029296875,0.5170850147515536,-0.06545140020623803,-0.2695323956847191
1776442855179672000,13.440672119140626,0.20960253537893295,-0.6225528565909713,-0.5812520742356777
1776442855204688000,13.46568798828125,0.06066518884301185,-0.5702470614228398,0.19988193635344503
1776442855229705000,13.490705078125,-0.7270376787424087,-0.2180517262291163,-0.20670389132797717
1776442855254721800,13.5157216796875,-0.9307131621599197,-0.04565331500899046,-0.33070407274514435
1776442855279737900,13.54073779296875,-0.3450350881755352,-0.0021990626805461944,0.2056806857600808
1776442855304755000,13.5657548828125,-0.48254035559296604,0.07142652452650945,0.4744774606466293
1776442855329771000,13.59077099609375,0.3301736191302538,0.0314957838488277,-1.1057058641895652
1776442855354788000,13.6157880859375,1.1441349635660647,-0.0406096034870483,-0.35963556819707154
1776442855379805000,13.640804931640625,-0.8949363308578729,-0.04049366722349077,0.8826628324791789
1776442855404821000,13.665821044921875,-0.6549065085113048,-0.1608622141400352,0.3586225917622447
1776442855429837800,13.690837890625,0.21060732850730418,-0.5506526455715298,-0.705114016225934
1776442855454854000,13.71585400390625,0.22385785522460935,0.0833674345165491,0.44541006385535
1776442855479871500,13.74087158203125,0.46700727089643473,0.579012990071997,0.5658052065178751
1776442855504888300,13.765888427734374,0.31006314351558684,0.3569415068075061,0.04921235919743776
1776442855529904400,13.790904296875,-0.26524025144875046,-0.3161785576559603,-0.32707945250719783
1776442855554921500,13.81592138671875,-0.4218313276082277,-0.11165387353058903,0.19256459907740353
1776442855579937500,13.8409375,0.4440606950730085,-0.16844123455956578,0.1468088100746274
1776442855604954400,13.865954345703125,0.4762029692649841,-0.033577933018282054,-0.052803661687672136
1776442855629971500,13.890971435546875,-0.452635046672821,-0.30826208544299005,-0.4262380381345749
1776442855654987300,13.9159873046875,-0.6827203981101513,-0.3511279982231557,-0.7859522245258093
1776442855680004400,13.94100439453125,0.16133447129428385,0.1910320557478815,0.427313850672543
1776442855705020400,13.9660205078125,0.005532499685883522,0.2757810808159411,0.796898273693025
1776442855730037500,13.99103759765625,0.14265490526556968,0.17427732030190526,0.5049161457911133
1776442855755054600,14.0160546875,-0.3529343169927597,0.03453494148217141,-0.09812105927318333
1776442855780070400,14.0410703125,0.12260405088365077,-0.29354988867528736,-0.5248050876095891
1776442855805087200,14.066087158203125,-0.423982952684164,-0.14598887199386953,-0.26814298715293405
1776442855830103300,14.091103271484375,-0.4548872095137834,-0.41293526977337897,-0.14607465058118105
1776442855855120400,14.116120361328125,0.39532501347661014,-0.18649083212167022,-0.16013941629081963
1776442855880137500,14.141137451171875,0.0005693243205547332,-0.13914967362359165,-0.08992255524843931
1776442855905153500,14.166153564453126,0.4455260914504528,-0.27589915423765776,-0.45343467261791226
1776442855930170400,14.19117041015625,0.2199783834427595,-0.188572606831789,-0.5992816519230604
1776442855955186400,14.2161865234375,0.616447890779376,-0.4297968996599316,-0.42645460349470377
1776442855980203300,14.241203369140624,0.5131535205215215,-0.5987757482275367,-0.5638438433170319
1776442856005220400,14.266220458984375,0.5970680675268173,-0.41670360933095213,-0.05733166050612926
1776442856030236400,14.291236328125,-0.5900199025809765,0.4528355376809835,-0.19963409907221794
1776442856055253500,14.31625341796875,0.10190379268229006,0.0677161302678287,-1.566787544429302
1776442856080269300,14.341269287109375,1.2402239324897526,-0.31834245769158004,-1.709822388923168
1776442856105286400,14.366286376953125,0.8086018632292747,0.11926818445920943,0.25475188292115925
1776442856130303500,14.391303466796876,-0.16064181285500526,0.049571401768177745,2.886251017850637
1776442856155319600,14.416319580078126,-0.6641010378360748,-1.0428428730413317,2.098792626545578
1776442856180336400,14.44133642578125,-0.3283592631846666,-0.8105287396386265,0.8134021031178533
1776442856205352200,14.466352294921874,-0.17840543308258056,-0.1815413930207491,0.0762709003843367
1776442856230369300,14.491369384765624,0.04870061028301716,1.0527123790182173,0.2784055841006338
1776442856255386400,14.516386474609375,0.60428048312366,0.7836801879405975,-0.265105957544595
1776442856280402400,14.54140234375,-0.23296587530970572,-0.06860577258393168,-0.6990232981353998
1776442856305419500,14.56641943359375,-0.26618191621303555,0.276131793949753,0.35735534830540416
1776442856330435600,14.591435546875,0.12280045023858546,0.13191592297777532,1.3610016447290778
1776442856355452400,14.616452392578125,-0.7343167298346758,-0.15444515017196536,0.8533139883980154
1776442856380469200,14.64146923828125,0.04452420138120651,-1.2214843068368733,0.6511635225906968
1776442856405485300,14.6664853515625,-1.1688754370689391,-1.6313164229631423,0.07531886035650968
1776442856430502400,14.69150244140625,0.9807266086071729,-0.38569384630024434,-1.5803601427078247
1776442856455518500,14.7165185546875,0.3251028917372227,0.09349734499529004,-0.8794665206559001
1776442856480535000,14.74153515625,-0.49778585551977156,0.28806553898006676,-0.04076178010776639
1776442856505552100,14.76655224609375,-0.6622171237856149,-0.12885229762345551,-0.14335282440185546
1776442856530568200,14.791568115234375,1.1601169610738753,0.48093905787616964,1.0698203118160365
1776442856555585000,14.8165849609375,0.027186113089323043,0.10130144287496805,-0.4098254671897739
1776442856580601000,14.84160107421875,0.06885375599563122,0.6385077468961476,0.1078549561716616
1776442856605618000,14.866617919921875,0.06802724204361438,0.9484598312526941,-0.2003393247321248
1776442856630635000,14.891635009765626,0.70267831351161,0.04304448421746492,-1.1291745641909539
1776442856655651000,14.916651123046876,0.8435410746634006,-0.23204379202872513,-0.4734728867139667
1776442856680668200,14.941668212890624,0.14152502445280551,-0.8640493174239993,-0.3852347774211317
1776442856705685200,14.966685302734374,0.27094226248264314,-1.065678243575245,-0.48104511206652967
1776442856730701000,14.991701171875,-0.38630525619685646,-1.2749201289482415,-0.521779492710717
1776442856755718000,15.0167177734375,-0.18827742327749727,-0.7632439875029027,-0.17924908083248883
1776442856780734000,15.04173388671875,-0.23082418710589409,0.47661388815343375,0.8269316659722477
1776442856805751000,15.0667509765625,-0.2961912700295448,0.6600267741344868,0.9877167597554624
1776442856830768000,15.09176806640625,0.5942407351464033,0.6658784227721393,0.21702654789984224
1776442856855784000,15.116783935546875,-0.7293038701087236,0.9232035171821713,0.4350793701075017
1776442856880801000,15.141801025390626,-1.1735685633212327,0.43239393041580915,0.9989178796622902
1776442856905817000,15.166817138671876,0.18164309982955454,-0.20981647039055823,-0.6188529791597277
1776442856930834200,15.191834228515624,-0.10365618930757045,-0.011028978210315107,-0.2039638719048351
1776442856955851000,15.21685107421875,-0.38433366386294365,0.10237893591336905,0.16710896304249762
1776442856980867000,15.2418671875,-0.05616437029242515,-0.2574754626661539,-0.627888883856684
1776442857005884000,15.2668837890625,0.3210392955601215,-0.2639945622365922,-0.25563239208273586
1776442857030900000,15.29189990234375,0.12195581610798835,0.5279729770559817,0.6449564115788787
1776442857055917000,15.3169169921875,-0.09604396073818207,0.08695183234196156,0.10387900174539536
1776442857080934100,15.34193408203125,0.008807575833797454,-0.2653722437979653,-0.14482048580162227
1776442857105950200,15.3669501953125,-0.5110498262405395,-0.2578703620015643,-0.16695052107777444
1776442857130967000,15.391967041015626,-0.7635469159722328,-0.3070124141754582,0.9997368678949773
1776442857155982800,15.41698291015625,0.4188210398763418,-0.7824578796040266,-0.44836409135535354
1776442857181000000,15.442,-0.0092412910759449,0.06838793771532364,0.0006464812099933624
1776442857206017000,15.46701708984375,0.19294833769798278,1.0440705882053822,0.6900991101846099
1776442857231033000,15.492033203125,-0.6674982790589332,0.5167671809740364,0.33196031988393515
1776442857256050200,15.51705029296875,-1.0818103170782327,-0.025270981916692106,-0.6472552631057799
1776442857281067000,15.54206689453125,1.9532360084891318,0.02791113942824304,0.7076330133095383
1776442857306083000,15.5670830078125,-0.3775800979495048,0.43321229759398844,0.06373033030098303
1776442857331100000,15.592099853515625,-0.9086357703864574,-0.6408369935613125,1.124019665645808
1776442857356116000,15.617115966796876,-0.797595900568366,-0.3359924614768475,1.700178654526174
1776442857381133000,15.642133056640626,-0.26054654067456723,0.5048074612522497,0.15472045998200773
1776442857406150100,15.667150146484374,0.3645990358233452,0.6635831514418125,-0.34139417438991365
1776442857431166000,15.692166015625,-0.4854495210379362,-3.3513030630260703,-1.57724011099115
1776442857456183000,15.71718310546875,-0.25345161397755145,-0.8313600768737495,1.059678418638557
1776442857481200000,15.7422001953125,1.8053876262336968,0.6862252644259482,-0.6300476693257689
1776442857506217200,15.76721728515625,0.7606032637357711,0.738318001365289,-2.036421510567516
1776442857531234300,15.792234375,-0.9092769908994436,0.03130695587899536,-0.07157521684877574
1776442857556250000,15.81725,-0.9491530742138624,-0.10085015544351189,0.757326726283133
1776442857581267200,15.84226708984375,-1.127672489064932,-0.45787886561043556,-0.7804932284675538
1776442857606283300,15.867283203125,-0.023928572598099707,-0.5212358142880723,-0.39812100087068975
1776442857631300000,15.892300048828124,-0.16305062756240368,-0.5576725342709571,0.03533690551482141
1776442857656317200,15.917317138671875,0.28328561122715473,0.03491040546474978,-0.6914169878501445
1776442857681333200,15.942333251953125,0.8355839781790971,0.07106699333200231,-0.25373781050778926
1776442857706350000,15.96735009765625,0.45345746897161004,-0.2344491178710945,-0.5745376347562298
1776442857731367200,15.9923671875,0.10529460416436194,-0.09390190720818936,0.06401864572307095
1776442857756383200,16.01738330078125,-0.09268003726303577,-0.20934651479125022,0.6731796856962144
1776442857781400300,16.042400390625,1.151098372837901,-0.6629743718937039,0.3782726467909291
1776442857806416400,16.06741650390625,0.9076771544873714,-0.9917945305883884,0.6872210705302655
1776442857831433200,16.09243310546875,-1.2312532750487326,-0.022605397702939806,1.4037158740788698
1776442857856450000,16.117449951171874,-0.6028296997934579,-0.03973729589823633,0.5262415501534938
1776442857881466000,16.142466064453124,1.4632289702773094,-0.6957927917815745,-0.5904216883148997
1776442857906483200,16.167483154296875,0.5467179364711046,-0.25543190107457336,-0.6880849938832223
1776442857931499300,16.192499267578125,-0.7733487635403871,0.44939431118592615,0.6137438925176859
1776442857956516400,16.217516357421875,0.08411036183834075,0.44894788259267804,0.6203890296205878
1776442857981533200,16.242533203125,0.48531449648141856,0.09986819520145654,-0.1327819652225822
1776442858006549000,16.267549072265624,0.0734901836246252,0.0680327950015664,-0.3620337884452194
1776442858031566000,16.292566162109374,-0.6907207492142915,-0.2998508154504001,0.821044946021214
1776442858056583200,16.317583251953124,-0.5370861847728491,-0.10064473253190517,1.0910353146065026
1776442858081599200,16.34259912109375,-0.19307985512316225,-0.25542627505138515,0.6014343729775399
1776442858106616300,16.3676162109375,-0.9782353763133287,0.02278919330462813,0.7394407948501408
1776442858131632000,16.392632080078126,-0.851446148699522,-0.15413710713610052,0.6765936588581651
1776442858156649200,16.417649169921877,0.33955519545972346,-0.29725466147735713,0.7831469578467309
1776442858181666000,16.442666015625,0.28954584066569805,-0.25619652877151966,0.5545178696323186
1776442858206682000,16.46768212890625,-0.0689198069691658,-0.035383740331232545,0.23067129809912293
1776442858231699200,16.49269921875,0.08809154042899608,-0.49094022740870713,0.5755777549263089
1776442858256715300,16.51771533203125,0.12452946598827838,-0.5942684999361634,0.14023330414183438
1776442858281732000,16.542732177734376,0.6479851848155259,-0.6255961698096245,-0.6444795878473669
1776442858306749200,16.567749267578126,0.48784898339509963,-0.8308520542863755,-0.37939072756804526
1776442858331765200,16.59276513671875,0.040922962018847465,0.2874898945165798,0.36972755781821903
1776442858356782000,16.617781982421874,0.3057669076263904,0.6313089214332401,0.2983945887601003
1776442858381799200,16.642799072265625,0.7940250563442707,0.3735273154273629,-0.3178452852917835
1776442858406815200,16.667815185546875,-0.3838987795770168,1.7842042606905102,0.5372912058256566
1776442858431832300,16.692832275390625,0.8930997630804777,1.0778894903726874,1.6217270491018891
1776442858456848100,16.71784814453125,0.844237824755907,0.03776606889050454,1.2276358152039348
1776442858481865200,16.742865234375,-0.06209843651652336,-1.8504444731868803,-2.7143025058224794
1776442858506882300,16.76788232421875,-1.1446879212737082,-0.21291798006985335,-1.283087945573777
1776442858531898400,16.7928984375,0.6542594427794217,0.7816074733197689,0.6172462015502155
1776442858556915200,16.817915283203124,0.7321709499776363,0.5289041204262525,0.6511348079528659
1776442858581932300,16.842932373046875,-0.38241584754288194,-0.06139642572700977,-0.01065682042967528
1776442858606948000,16.867947998046876,-0.10002513932883739,0.12788392751533537,-0.5137798357263207
1776442858631965200,16.892965087890627,-0.8783230497092008,-0.20373864831421523,-0.4326429367408156
1776442858656981200,16.917981201171877,-0.22220307375490664,-0.1652510967487469,0.5004597509041429
1776442858681998300,16.942998291015623,-0.2670563609600067,0.28419841522313655,0.31952392256110906
1776442858707015200,16.96801513671875,0.47060032695233817,0.27030728904735296,0.0012356792747974395
1776442858732031200,16.99303125,0.8356026828795671,-0.1443569599431008,0.039110359638929365
1776442858757048000,17.018048095703126,-0.12685352502167224,-0.1308755470793694,0.3157221921905875
1776442858782064000,17.043064208984376,0.05664776989519596,-0.2729290158530697,0.4894157943204045
1776442858807081200,17.068081298828126,-0.22584990582466125,-0.7688806782156229,0.29500469059348106
1776442858832098300,17.093098388671876,-0.3409375897288322,-0.5865025055771693,0.10525894832909106
1776442858857114400,17.1181142578125,0.10030220270454883,-0.3304571122467518,0.38626580096930263
1776442858882131200,17.143131103515625,0.052046998101472855,-0.3834322945764288,0.5113847572833299
1776442858907148000,17.16814794921875,0.2387444587111473,-0.03283412891365588,0.3068473963394761
1776442858932164000,17.1931640625,0.16360943048894405,-0.13478406229261308,-0.738898504666984
1776442858957181200,17.21818115234375,0.2268979535728693,-0.41474443808719513,-0.8812535502031446
1776442858982197200,17.243197265625,-0.12718027275800703,-0.3852704697890207,-0.37581893349587914
1776442859007214300,17.26821435546875,0.07614099039435386,0.1837066082306206,-0.23467940122932193
1776442859032231200,17.293231201171874,-0.06289981602728366,0.5756588938711211,0.4630576564878225
1776442859057247200,17.318247314453124,-0.08525719378590584,0.030175504163652656,-0.07340542795062065
1776442859082264000,17.34326416015625,0.086073770865798,-0.6252341315641999,-0.8366036766156554
1776442859107281200,17.36828125,-0.26248013908565043,-0.7589860377974808,-0.933282428126037
1776442859132297200,17.393297119140627,0.09911445422470569,-0.7706250376649201,-0.9113540894344448
1776442859157314300,17.418314208984373,0.6814017167270183,-0.6686113548673689,-0.5937491522371768
1776442859182330000,17.443330078125,-0.07113572945296764,-0.24022125326544044,0.09321750514060258
1776442859207347200,17.46834716796875,-0.5856260515362024,-0.41842064238190646,0.14123568611741066
1776442859232364300,17.4933642578125,0.20964637452065943,-0.9425384053144603,0.2728245690979063
1776442859257380400,17.51838037109375,0.2424123335689306,-0.42394068444501604,-0.046117461922019716
1776442859282397200,17.543397216796876,-0.052103112202882766,-0.10840181293208151,-0.4461953690141439
1776442859307414300,17.568414306640626,-0.08213760046064854,-0.2660126605933532,-0.6290704948566853
1776442859332430000,17.59343017578125,0.4135492369532585,1.3299027421101928,-0.2639250771969557
1776442859357447200,17.618447265625,-0.03035071460008621,0.4510673954972997,-0.38229309794604777
1776442859382463200,17.643463134765625,-0.6422130311548709,-0.9380338604368269,-0.17666501915603874
1776442859407480300,17.668480224609375,-0.3943687356650829,-0.8005340729121119,0.11743410089984535
1776442859432497200,17.6934970703125,-0.6847352450639009,-0.361773018617183,0.49999476374089713
1776442859457513200,17.71851318359375,-0.2073340059250593,-0.7502803879681974,0.503574083532393
1776442859482529000,17.743529052734374,-0.14756255105137825,-0.0912771299288608,1.5696357734672723
1776442859507545900,17.7685458984375,0.2363566867917776,0.8528720898494124,2.3529279850035905
1776442859532562000,17.79356201171875,0.6926046632647513,0.9343891472589224,0.2599509128689766
1776442859557579000,17.8185791015625,0.8059826206415891,-0.2353875312323682,-1.7000652572795747
1776442859582595000,17.843594970703126,0.022369652718305585,-0.9603232144605368,-1.470851720240712
1776442859607612200,17.868612060546877,-0.3837555717140436,-0.6349103069260716,-0.25701208293810485
1776442859632629000,17.89362890625,-0.6195119545251131,-0.1989282340914942,0.4466378520846367
1776442859657645000,17.91864501953125,-1.0566700306028127,-0.7506559432823211,-0.5360935204736889
1776442859682662000,17.943661865234375,-1.4839537783980368,-1.7836245611064134,-1.080914829543233
1776442859707679000,17.968678955078126,-1.881322864922881,-1.0528305255051702,0.5438410658605396
1776442859732695000,17.993695068359376,-0.5635539204597473,0.4990535373680293,1.4156917046852409
1776442859757712100,18.018712158203126,1.4979711978346109,0.5598051623854786,0.08075272197350859
1776442859782728000,18.04372802734375,1.5737340025663376,0.19565880223307758,-0.6617343087047338
1776442859807745000,18.0687451171875,0.688465079241991,0.41161088930182155,-0.11426336190924048
1776442859832762000,18.09376220703125,1.5738853937357664,0.5207996878931298,0.09333820891082287
1776442859857778200,18.118778076171875,0.9988099623084068,0.19691015400104223,0.07290697690919042
1776442859882795000,18.143794921875,-0.5415542700976133,-0.5022805000578985,0.32429844348654147
1776442859907812000,18.16881201171875,-0.5942541791498661,-0.4939874130848795,0.5180518139570951
1776442859932828000,18.193827880859374,1.1087468393206596,-0.19283789959345013,-0.26124606724604965
1776442859957845000,18.218844970703124,1.2001684009552,-0.03734051868850365,-0.08612316296547651
1776442859982861000,18.243861083984374,-0.27609073128700257,-0.04550312028280459,0.6564747807413339
1776442860007878100,18.268878173828124,-0.32951603200435636,-0.2757624491807073,0.4624351406753063
1776442860032895000,18.29389501953125,0.5320516977369785,-0.007236874184664338,-0.07650120200887323
1776442860057911000,18.3189111328125,-0.19504852484762666,0.16339047224232925,0.19753405805304644
1776442860082927900,18.343927978515627,-2.2739280980467793,-1.132518321660906,0.4602170262344181
1776442860107945000,18.368945068359373,-1.9920769035369157,-1.1417737143274396,0.8017266436975449
1776442860132961000,18.3939609375,0.41010815658867356,-0.12321052887681871,0.621752865319699
1776442860157978000,18.41897802734375,0.7474521057397127,0.23734717740016056,0.2699640651002526
1776442860182994200,18.443994140625,0.5198451271146536,-0.16887273957831783,-0.09620645782351493
1776442860208011000,18.469010986328126,0.5704752441555261,-0.2984007993051782,-0.1816284867823124
1776442860233027800,18.49402783203125,1.4610983879894017,0.5489567649064585,-0.09067768446467817
1776442860258044000,18.5190439453125,1.15615448718369,0.942324104976654,-0.6074379242412745
1776442860283061000,18.54406103515625,0.5798708490103482,-0.324343670867756,-0.49046194237247104
1776442860308078000,18.569078125,-0.7963976306945085,-1.2018810500919819,-0.0694862086802721
1776442860333094100,18.59409423828125,-1.8200918588906525,-0.46623752863295376,1.6637809148468077
1776442860358111200,18.619111328125,-1.0179378566265105,-0.5526570076638833,1.7389048371531068
1776442860383127000,18.644126953125,-0.0888052416563034,-0.23461077470621092,0.2910375405281782
1776442860408144000,18.669143798828124,0.23793255780637262,0.25168226621747014,-0.4042721439115703
1776442860433161000,18.694160888671874,0.7557885569304227,0.029913017302565275,-1.1084640768565237
1776442860458177000,18.719177001953124,0.7547118676096201,-0.4543388549160212,-1.711307366783917
1776442860483194000,18.744194091796874,0.695173636969924,-0.2531314421124756,-1.5072211106084286
1776442860508211500,18.76921142578125,0.45224224796295165,-0.3038040831208229,-0.4566260890703648
1776442860533227300,18.794227294921875,-0.8312263674914836,-0.11074888751488178,0.8041618349552154
1776442860558244400,18.819244384765625,-0.6188327400892972,-0.40662732873558993,1.4851790824092923
1776442860583260400,18.844260498046875,-0.570285274541378,-0.9371631420169025,1.7297854188911617
1776442860608277200,18.86927734375,-0.29915654957592486,-1.2403256392985582,1.0385204797975718
1776442860633294300,18.89429443359375,0.330258959326148,-0.23491036044098434,0.40794180886764075
1776442860658310400,18.919310302734374,0.9098340402603149,1.2587433395206928,1.1760145682338625
1776442860683327500,18.944327392578124,0.24727263308167455,0.8442172934245318,1.0033887414660305
1776442860708344300,18.96934423828125,0.0007253916651010513,0.4791808525646105,0.4432350579038262
1776442860733360400,18.9943603515625,-0.600130962228775,-0.41528946821670976,-0.2557536073096096
1776442860758377200,19.019377197265626,-0.3462631686657667,-0.1759030583402142,0.010869111473485826
1776442860783394300,19.044394287109377,-0.21776655261218547,0.26445348498523236,0.33079949594363567
1776442860808410400,19.069410400390623,0.13519348334372042,0.4250647931041196,-0.12724427790492773
1776442860833427500,19.094427490234374,0.09899988793432712,0.4235597588360309,-0.3239444058844819
1776442860858443300,19.119443359375,-0.08341828792095184,0.06336644715834408,-0.7416109054308384
1776442860883460400,19.14446044921875,-0.18203823662698268,-0.05592226863224059,-0.9729052673317491
1776442860908477200,19.169477294921876,-0.07493862886726856,0.36730869664084165,-0.7196546558190137
1776442860933493200,19.1944931640625,-0.316250892239809,0.7446125714648515,0.24216482508126644
1776442860958510300,19.21951025390625,-0.16436872442364692,0.711367888988927,0.08230683781402186
1776442860983526100,19.244526123046874,-0.19095453353226183,0.6075506639007479,-0.5915898553114384
1776442861008543200,19.269543212890625,-0.26932021423876285,0.6628269262470304,-0.6969860932193697
1776442861033560300,19.294560302734375,-0.05287234300971031,0.45886484444048253,-0.44159846967794
1776442861058576400,19.319576416015625,0.07997896112203598,0.4091428917530924,-0.29345574411842973
1776442861083593500,19.344593505859375,-0.13970248520076273,0.44978031482882797,0.022012710773106663
1776442861108610300,19.3696103515625,0.29689912603795526,0.22649200312048196,0.32857009292375294
1776442861133626000,19.394626220703124,-0.5801046577662229,-0.1369992906566709,0.896197875226289
1776442861158643200,19.419643310546874,-0.4227694852411747,-0.737941934594512,1.0058384727057068
1776442861183660300,19.444660400390624,0.10274959585666656,-0.3887263458639383,0.6667833357226103
1776442861208676400,19.46967626953125,0.5030009598195553,-0.3036712505213916,0.4824793095881119
1776442861233693400,19.494693359375,0.6781710642427206,-0.4077233072787523,0.24426998066697267
1776442861258709500,19.51970947265625,0.3237450473874807,-0.2081020676881075,-0.22901631570002062
1776442861283726300,19.544726318359373,0.3182850284159183,-0.5038089882668108,-0.5903045282086357
1776442861308743200,19.5697431640625,0.12686053928434848,-0.4896302407886833,0.28355144082279876
1776442861333759200,19.59475927734375,-0.4971522337913513,0.3100273415498435,0.9669436555135995
1776442861358776300,19.6197763671875,-0.4273702570348978,0.5908987312421202,0.4906680594038218
1776442861383793400,19.64479345703125,0.44080549266934393,0.18005283496342597,-0.6289524214349687
1776442861408809500,19.6698095703125,-0.028991116684675217,-0.27355471000336107,-0.5292018612638115
1776442861433826300,19.694826416015626,-0.6354162106215954,-0.6050869772009552,-0.07678723414232953
1776442861458842400,19.71984228515625,-0.28816578448414804,0.07394969089515507,0.20075550431758163
1776442861483859200,19.744859130859375,0.5751350526601076,0.30212292510084804,0.5925763821307569
1776442861508876500,19.76987646484375,0.06298164909183979,-0.3306359759449959,0.7290338209956884
1776442861533892600,19.794892578125,-2.311993917068839,-1.2725816029980779,0.6465719570167362
1776442861558909400,19.819909423828125,-1.3040291729241609,-0.5246124876469374,0.6821533388119191
1776442861583926500,19.844926513671876,1.0847779347121715,-0.551291454931721,-0.33078846309296783
1776442861608942600,19.869942626953126,1.3648235411047935,-0.3683739512521773,0.13958105077818037
1776442861633959400,19.89495947265625,0.9358183763444423,0.4473267476642504,0.9292700506795197
1776442861658976500,19.9199765625,-0.17649696911275387,0.12367071200078353,0.3012335750456899
1776442861683992600,19.94499267578125,-0.5282002830058335,0.5632105138495564,0.015826880011335014
1776442861709009700,19.970009765625,0.39931905154883857,0.3726942256040871,0.24149017722271382
1776442861734025500,19.995025390625,-0.31012977901101113,0.3152242160731926,0.17059395561404525
1776442861759042600,20.02004248046875,-0.614717121464014,0.35519261731356383,-0.24916253848150371
1776442861784059600,20.0450595703125,0.22437691066265106,0.2936375669587403,0.0100723350726068
1776442861809075700,20.07007568359375,0.20921733545362947,0.5611326115969568,-0.3502538457371294
1776442861834092500,20.095092529296874,0.39994039831757544,0.3150755648501217,-0.8676168006472289
1776442861859109600,20.120109619140624,0.765635412684083,-0.06997198746979702,-0.7264271456286311
1776442861884125400,20.14512548828125,0.20191081183254717,-0.5805816276282072,-0.326508009294793
1776442861909142500,20.170142578125,-0.05287058944404125,-0.5630114841461181,0.3675816318307072
1776442861934158600,20.19515869140625,-0.03518120349645614,-0.5099122735779732,0.08400041692415251
1776442861959175700,20.22017578125,0.130934656855464,-0.44318117229212073,0.09930254240902141
1776442861984192500,20.245192626953123,0.3050876931905746,-0.11908097305772826,0.3211823572926223
1776442862009208300,20.270208251953125,-0.17697276993095873,-0.03848084783004597,0.46311735078580674
1776442862034225400,20.295225341796876,0.2605284204959869,0.0028941140063107012,0.4643170819643885
1776442862059242500,20.320242431640626,0.6115396604716777,-0.1574712199948728,0.3104699707508087
1776442862084258600,20.345258544921876,-0.18556874884068963,0.0064782561033964155,-0.18086875445619224
1776442862109275600,20.370275634765626,0.2679793210238218,-0.08047894653342663,-0.6825749982900917
1776442862134291700,20.395291748046876,0.6893588132113218,0.014611805133149027,-0.13496555633936078
1776442862159308500,20.42030859375,0.39404140340685845,-0.054629525407962495,-0.08920432397648692
1776442862184325400,20.445325439453125,-0.7154337501883506,-0.3135984780348837,-0.4178337824046612
1776442862209341400,20.470341552734375,-1.7314187191814183,0.3435191671872511,0.17894670035243032
1776442862234358500,20.495358642578125,0.7256710665643215,0.061966846026107664,0.4664796668257564
1776442862259375600,20.520375732421876,-0.1746481263756752,-0.10532594915069639,0.4678506629180163
1776442862284391700,20.5453916015625,-0.5064455473154783,-0.31017412960939106,0.10915683255046606
1776442862309408500,20.570408447265624,-0.8693868790596723,0.15712722886279223,-0.2442652679592371
1776442862334425300,20.59542529296875,0.015194646522402763,0.04617063514767215,-0.424525681258738
1776442862359441400,20.62044140625,-0.6530307777673006,0.011982516075484454,-0.23737035734634845
1776442862384458500,20.64545849609375,0.0966699836820364,-0.6525391948580741,-0.3896982231033966
1776442862409474600,20.670474609375,-0.2377431727141142,-0.6473016595307737,0.11265238304864615
1776442862434491600,20.69549169921875,-0.4285182580262422,-0.25877584120761604,0.5315907656943425
1776442862459508500,20.720508544921874,-0.21894728682935236,0.46686413609869776,-0.01617251511123031
1776442862484524500,20.745524658203124,0.8200994087994098,1.3820574383698403,-0.05810611547734588
1776442862509541400,20.770541259765626,0.8902952270537614,0.5693090499203651,-0.4563592182951048
1776442862534558000,20.795557861328124,-0.03412964861690998,-0.13035130400955677,-0.7223745092369616
1776442862559574000,20.820573974609374,-0.23427345077693462,-0.26590993087124076,-0.6822935510002076
1776442862584591000,20.845591064453124,-0.3693202191263437,-0.4890479473887011,-0.4216504911486059
1776442862609608200,20.870608154296875,-0.3909177184283733,-0.6755379392601549,-0.11032830574894323
1776442862634624300,20.895624267578125,-0.5424141017973423,-0.7842338763006031,0.22151746611092238
1776442862659641300,20.920641357421875,-0.32916473434865473,-0.656147667678818,0.30539730712901797
1776442862684657200,20.9456572265625,0.10475275237262248,-0.15166936531569808,-0.38940910396371037
1776442862709674200,20.97067431640625,0.015015198302268981,-0.1627525213986635,-0.7998072199422865
1776442862734691000,20.995691162109374,-0.22649346442520618,-0.42249329864829777,-0.4181769332865253
1776442862759707100,21.02070703125,-0.42215515273511406,-0.17926248830333352,0.026114629666600376
1776442862784724200,21.04572412109375,0.2695090148091316,-0.1209164631228894,0.2106574512593448
1776442862809741300,21.0707412109375,0.3618009295374155,0.18883761444352565,0.07004819907774217
1776442862834757000,21.095757080078126,0.37115269525051114,0.5212172191854566,0.22813264646697787
1776442862859774200,21.120774169921877,0.43207565824687477,0.41329365475699303,0.47153519664965565
1776442862884790300,21.145790283203127,0.3440858246266842,0.38706360028348863,0.6223727507837117
1776442862909807000,21.17080712890625,0.5504851800501346,0.22874022043868897,0.410761944322288
1776442862934824200,21.19582421875,0.9099035983651876,0.12235438697151839,0.24328117055902257
1776442862959840000,21.220840087890625,0.7819038259178399,0.2799053942043334,0.32240031824763865
1776442862984857000,21.245857177734376,0.835647691065073,0.19283895903937517,0.16567779772821814
1776442863009874200,21.270874267578126,0.5673603270053863,-0.4381825602872297,-0.090842766232742
1776442863034890200,21.29589013671875,-0.46503684760630126,-1.0966994047828018,-0.23645200039241462
1776442863059907000,21.320906982421874,-0.5284592262029647,-1.2176293849743902,-0.28092069046040996
1776442863084924200,21.345924072265625,-0.4584381799936294,-1.3381388016663491,-0.2866828889826312
1776442863109940000,21.37093994140625,-0.26424305710494517,-1.1072115925773978,0.1456987482071854
1776442863134957000,21.39595703125,-0.5710714564830064,-0.45568734691552815,0.7285413613036275
1776442863159973000,21.42097314453125,-0.8510083418041468,-0.4364441556546837,0.5794537926420569
1776442863184990200,21.445990234375,-0.31860242380201814,-1.0201003684226424,0.14678433322049678
1776442863210007300,21.47100732421875,-0.24149697228968142,-0.9030207069836557,0.3276427124131471
1776442863235023400,21.4960234375,-0.735349580013752,-0.5643495278168469,0.8764337288312614
1776442863260040000,21.5210400390625,-0.8226350647568702,-0.2777199764566496,0.36569947134591635
1776442863285057000,21.54605712890625,0.30623627870380876,0.15584318040162323,-0.5205406716307625
1776442863310073000,21.571072998046876,0.3358668623358011,0.0772588337094523,-0.703781452447921
1776442863335090200,21.596090087890627,0.23478256934285163,-0.11932376883765682,-0.41003173035159707
1776442863360106200,21.621106201171877,0.16237784286737442,0.03139204034656286,-0.27518804682623593
1776442863385123300,21.646123291015623,-0.11188801108002662,0.10376328467754646,-0.252253709429875
1776442863410140200,21.67114013671875,-0.4422480926930904,0.47991782506965097,-0.4311071785409003
1776442863435156200,21.69615625,-0.24437223546504974,-0.6176360045854001,-1.183377644347772
1776442863460173000,21.721173095703126,0.11822539740800857,-0.9849033097699283,-1.5537389700248836
1776442863485190100,21.746190185546876,0.5605296042025089,0.04153574188863858,-0.30165961843803524
1776442863510207700,21.771207763671875,0.9973352135807275,0.6693833621531724,0.292395677138865
1776442863535224600,21.796224609375,0.08693126447796821,0.6483542373236268,0.8271111872576177
1776442863560241700,21.82124169921875,-0.7837813102275133,-0.03299165756292641,1.5559721359044312
1776442863585257700,21.8462578125,-2.0586913561731577,0.08469576051086188,1.5740768246546386
1776442863610274600,21.871274658203124,-1.366944771042466,-0.13008819609396158,-0.16899419226720927
1776442863635290600,21.89629052734375,0.4729220478981733,-1.5605170858576893,-1.6078651124879717
1776442863660307700,21.9213076171875,-0.24252806890308856,-1.1333964927349238,-0.6281083718262612
1776442863685324500,21.946324462890626,-0.6786024413973093,-0.48527328768819566,-0.07715893526524305
1776442863710340900,21.9713408203125,-0.015642974811792373,-0.8836258322924375,-0.4710620992451906
1776442863735357700,21.996357666015626,-0.03333879050016403,-1.3452439574964343,-0.7604135863825678
1776442863760374500,22.02137451171875,-0.5944739593803883,-1.2425180347763,-0.17541180422455072
1776442863785390600,22.046390625,-0.6446124935120344,-0.891142783793807,-0.8049547388985753
1776442863810407700,22.07140771484375,0.25615268962979315,-0.8868840303707868,-1.0652800380378962
1776442863835424800,22.0964248046875,0.6327560515016317,-0.45552810123320664,0.0750840286873281
1776442863860440800,22.12144091796875,0.6359235756218433,0.27258995662443336,1.3865215781718492
1776442863885457700,22.146457763671876,0.20887246753871438,0.5142972837291657,1.2358642759755254
1776442863910473500,22.171473388671874,0.41440848413109777,0.1606170802725479,0.1183612987473607
1776442863935490600,22.196490478515624,0.7423994985252619,-0.057408159808441994,-0.11137421633899211
1776442863960507600,22.221507568359375,0.12011574119925499,0.445998896593973,0.9014587183639406
1776442863985523700,22.246523681640625,0.06640811640918254,0.29760479008927937,0.7652849918112158
1776442864010540800,22.271540771484375,0.7955605953484773,0.37533969861157235,-0.05711304931938648
1776442864035557600,22.2965576171875,1.5528630639731884,0.36355065928157415,0.3643932841181755
1776442864060573700,22.32157373046875,-0.15994623180627823,0.3489764096798375,1.5283485081806778
1776442864085590500,22.346590576171874,-0.9076151951670646,-0.42244317589625713,1.1884689030721782
1776442864110607600,22.371607666015624,-0.001264320847392082,-0.4335821172870695,0.9042971566602587
1776442864135623700,22.396623779296874,0.19661738159954548,-0.3116858128139749,0.6288511530175804
1776442864160640800,22.421640869140624,0.07100012037456035,-0.13709523444497027,0.17724574165344237
1776442864185656600,22.446656494140626,-0.05769757120907306,-0.5318947536095977,-0.5539660079032183
1776442864210673700,22.471673583984376,-0.5551905812621116,-0.5083214972551912,0.02895779893696308
1776442864235690500,22.4966904296875,-0.3501543308854103,-0.2526171359147876,0.41549511032402514
1776442864260706600,22.52170654296875,0.2860223427146673,-0.24833226166982203,0.2596539757490158
1776442864285723600,22.5467236328125,-0.19894377872049807,-0.45467827947083855,0.43532969160676
1776442864310740700,22.57174072265625,-0.29020693492293353,-0.4509356223437935,0.5796311950355768
1776442864335756500,22.596756591796876,-0.7515180400043725,-0.29174289405224846,0.14673019188046454
1776442864360773600,22.621773681640626,-0.7888999684154987,0.032088260716106744,0.16917407887876032
1776442864385790500,22.64679052734375,-0.008853753063082694,-0.07001631523529067,0.03211889331638813
1776442864410806500,22.671806640625,0.08183306455612183,-0.00418609004560858,0.59933835054636
1776442864435823600,22.69682373046875,-0.59016252592206,0.36167496507018804,1.3719360034584998
1776442864460839700,22.721839599609375,-0.3032943800330162,0.15938333722651005,0.9458739064127206
1776442864485856800,22.746856689453125,0.3081348058015108,0.4227825273858383,0.3886754924595356
1776442864510872300,22.771872314453127,0.4190852437704801,0.4413686795100569,0.26228198616504667
1776442864535888400,22.796888427734373,0.352954190737009,0.33134624310620125,-0.15740823776125906
1776442864560905500,22.821905517578124,0.10500117417573929,0.3913415333310142,-0.027543255963921546
1776442864585922600,22.846922607421874,-0.05106675489246845,0.4256739014457911,0.247667185357213
1776442864610938600,22.871938720703124,-0.08030337077081202,0.5191765436707064,0.28593232634365556
1776442864635955500,22.89695556640625,0.17234452560842037,0.5531749305907636,-0.4534001858264208
1776442864660972300,22.92197216796875,0.0724795452773571,0.15422127828821539,-0.970651789316535
1776442864685988400,22.94698828125,0.035787352696061134,0.004782265840470791,-0.6991863797426223
1776442864711005400,22.97200537109375,-0.6056204995557666,0.3316367504853755,0.2041974614650011
1776442864736021500,22.997021484375,-0.764326083651185,0.25586305903345347,0.38749534276425834
1776442864761038600,23.02203857421875,-0.7784522241592406,0.23566439367868006,0.6719552584677935
1776442864786055700,23.0470556640625,-0.6728060300782323,0.11514686674550174,1.2735200528919697
1776442864811071500,23.072071533203125,-0.09890227277874945,-0.10797273733243345,0.6197668060690165
1776442864836088300,23.09708837890625,-0.45295068849325176,-0.1401343007467687,0.041321021425724025
1776442864861105400,23.12210546875,-0.6152312084659933,-0.07101677924841641,0.5083627791136502
1776442864886121500,23.14712158203125,-0.5811506596878171,0.009454057043790817,-0.04065349742770195
1776442864911138600,23.172138671875,0.0847790548801422,-0.03881327638849616,-1.0681418572098016
1776442864936155600,23.19715576171875,0.58671209320724,0.1912055856838822,-0.4013894280821085
1776442864961171500,23.22217138671875,0.16788228550255296,0.6723258453458547,0.6282002878934144
1776442864986188300,23.247188232421873,0.5078981572765857,0.5060483646914362,0.21470307338833808
1776442865011204600,23.27220458984375,-0.35045185252726074,0.20668971667215227,-0.20611118613183496
1776442865036221400,23.297221435546874,-0.926063290527463,-0.3743015146702528,-0.3898895444244146
1776442865061238500,23.322238525390624,-0.7225596565455198,0.4373799021348357,-0.43325171628892417
1776442865086254300,23.34725439453125,0.4920025959432125,0.3828234054304659,-0.5546627579957246
1776442865111271400,23.372271484375,0.19241879739854484,-0.11079714710339904,-1.1357505815804003
1776442865136288500,23.39728857421875,-0.25518472138047216,-0.547617077267915,-0.5361375057458877
1776442865161304600,23.4223046875,-1.2110393390595913,-0.5759582056112588,-0.4384662360668182
1776442865186321400,23.4473212890625,-0.7624737337827682,-1.0225475423790513,-1.0358978762090205
1776442865211338500,23.47233837890625,-0.7209389234758913,-1.0269535222530364,-0.682409432464838
1776442865236354300,23.497354248046875,0.18387889605760574,-0.4083296026088297,-0.23848200838267802
1776442865261371400,23.522371337890625,0.6023613516293466,0.06781652190238237,-0.022618659043312072
1776442865286388500,23.547388427734376,0.6561176378667354,0.3733084119796753,0.47009120838642116
1776442865311404500,23.572404541015626,0.6780326786853372,0.35353213675543665,0.4746685993045568
1776442865336421400,23.59742138671875,1.34586764235273,-0.6428864003717899,0.5457575670063496
1776442865361437400,23.6224375,0.43985593685954805,0.1280624624200165,0.4504144480139017
1776442865386454300,23.647454345703125,0.004581482571363449,0.6558456890575587,0.03580547287464142
1776442865411471400,23.672471435546875,0.27454759349823,-0.3427222811885178,0.13540157313644885
1776442865436487400,23.6974873046875,-2.25721661722064,-1.7047538534872233,0.7278139238119125
1776442865461504500,23.72250439453125,-0.960736398371309,-0.4403301302425563,-1.0956132169812918
1776442865486521600,23.747521484375,0.3131936235610395,0.5020477507479488,-1.4559832369327543
1776442865511537700,23.77253759765625,0.6290158420599997,0.03682064126655459,-0.12932020739614963
1776442865536554800,23.7975546875,-0.7032686806201934,-0.1962543935060501,-0.42576223731637
1776442865561571800,23.82257177734375,-0.3539573764301836,-1.561253145047277,-1.1438158146142958
1776442865586588000,23.847587890625,-0.563044363502413,-0.9045917556926607,0.11972528057694434
1776442865611605000,23.87260498046875,-0.20829203730225562,-0.11641995542123913,1.0567974563747644
1776442865636620800,23.897620849609375,0.21671514386311172,1.134679591348022,0.9996388143479823
1776442865661638000,23.922637939453125,1.3789829993605613,0.3714128074914217,0.14579437233507633
1776442865686654700,23.94765478515625,-0.5643558844923973,0.35802214165106416,-0.31765199120938775
1776442865711670800,23.9726708984375,0.14193375138416886,0.2224789680868387,0.4272428312629461
1776442865736687900,23.99768798828125,-0.0779822343468666,0.6471047487191856,-0.41027474532723424
1776442865761705000,24.022705078125,0.5836076974511146,0.5319375698380172,-1.0415367588788271
1776442865786720800,24.047720703125,-1.018117889368534,-0.59442398275882,-0.7961217363625764
1776442865811737900,24.07273779296875,-0.901706994036585,-1.4781336939424274,-0.3926017259925604
1776442865836754700,24.097754638671876,-0.3901370894446969,-1.0380908562086522,-0.7033657112538814
1776442865861770800,24.122770751953126,-0.02402121931761503,-0.8095446970373391,-0.3521761921018362
1776442865886787800,24.147787841796877,-0.1916808019801974,-0.3533719046924263,0.4348217420846224
1776442865911805000,24.172804931640623,0.04130991550981998,0.16962310128789393,-0.1263794777691364
1776442865936820700,24.19782080078125,0.8509379069164394,-0.09435518566733225,0.40926878315508364
1776442865961837800,24.222837890625,-0.15599924774616955,-0.000316299407556653,1.216642565894127
1776442865986854000,24.24785400390625,1.1762214159175752,-0.6933783510509878,1.1505477532178163
1776442866011871000,24.27287109375,0.4431956026762724,0.3099110947590321,-0.18590777153670787
1776442866036887800,24.2978876953125,0.24691475955471395,0.2958171394875273,0.18292554085552692
1776442866061903600,24.322903564453124,0.5433847003951668,-0.43818303521126506,0.2001052237153053
1776442866086920700,24.347920654296875,0.1296110070362687,-1.2552657265380025,-0.3066957129091024
1776442866111937800,24.372937744140625,0.10787278408929706,-1.3437041807085275,0.9611807811379433
1776442866136953900,24.397953857421875,-0.6721906746588647,-0.7554425199717283,0.6289981602728366
1776442866161971000,24.422970947265625,0.597936813185364,-0.8652530671905726,0.4659714981079101
1776442866186987800,24.44798779296875,-1.0511902840174734,-0.609552505242452,1.027614616510272
1776442866212003600,24.473003662109374,-1.729109419325739,-0.5713298882234841,0.7676561048567294
1776442866237020700,24.498020751953124,1.2092753981269895,-0.016504487011954186,0.06301438231766224
1776442866262036700,24.52303662109375,1.8640227705538273,-0.05156973597854376,-0.5608879161208867
1776442866287053800,24.5480537109375,1.094086007414013,-0.4009832219013944,-0.42019992701411246
1776442866312071000,24.57307080078125,0.7770867810249328,-0.9730727328531443,-0.1916787561535835
1776442866337087000,24.5980869140625,0.14052483443431554,-0.789144736956805,-0.6206219615936279
1776442866362104000,24.62310400390625,0.41895255730152126,-0.8714483416341244,-0.3227788327038288
1776442866387119900,24.648119873046873,-0.2632428670864552,-0.5561215785019099,0.6149234576910734
1776442866412136700,24.67313671875,-0.7368284934598952,0.049433162341266865,-0.20538813255429267
1776442866437152800,24.69815283203125,-1.0606710829377173,-0.1469214766688645,0.17754443233907222
1776442866462169900,24.723169921875,-0.6522445958256721,0.028019860499724745,0.05338029253184795
1776442866487186400,24.7481865234375,-0.013853168785572051,0.08117167803794145,-0.5671814633071423
1776442866512202500,24.773202392578124,0.3850794407289475,0.0953994522895664,-0.4037222549438476
1776442866537219600,24.798219482421874,-0.1780734246492386,0.05308598576039075,-0.3880079684615135
1776442866562236400,24.823236328125,0.08003390617966652,-0.12408793276585638,-0.8436147244215011
1776442866587252500,24.84825244140625,-0.1317664680371061,-0.3466756219241768,-0.6973860523223877
1776442866612269300,24.873269287109373,-0.36207273221611974,-0.5750350994169712,0.48441316372752186
1776442866637286400,24.898286376953124,-0.6581576192617415,-0.1955037212692201,0.532740849044919
1776442866662302500,24.923302490234374,-0.9113689947426319,-0.2850463372893631,0.00573474425971508
1776442866687319600,24.948319580078124,-1.0155120907843111,-0.23347280191853642,-0.3399024014621973
1776442866712336400,24.97333642578125,-0.5867010238239542,-0.22376608528792857,-0.032004327026009555
1776442866737352400,24.9983525390625,-0.8979413578927516,0.00731309949234128,0.32365269292891025
1776442866762369300,25.023369384765626,-0.25502814257927237,-0.010214885348454118,-0.9350397931873797
1776442866787385300,25.04838525390625,-0.28160284577198325,-0.8219142762016505,-1.2891267873466015
1776442866812402400,25.07340234375,-1.050664068186283,-0.7514695246875286,-0.01580956355035305
1776442866837419500,25.09841943359375,-1.0389946731805801,-0.4540303734887391,0.7025269223421812
1776442866862435300,25.123435302734375,0.019387495102360843,0.3757820355515927,0.24518881254494188
1776442866887452400,25.148452392578125,-0.0006627747576683759,0.06567300706766545,-0.22923078043460846
1776442866912469500,25.173469482421876,-0.2703926657758653,-0.7512395153239368,0.7823018853247166
1776442866937485600,25.198485595703126,-0.41513679840564727,-0.5424284225836395,-0.09194061707258223
1776442866962502400,25.22350244140625,0.6329388607226312,-0.12089132868163287,-1.4738754519760608
1776442866987519500,25.24851953125,1.1281205250933766,0.13875081049911678,0.10855798987448215
1776442867012535300,25.273535400390625,-0.2993276683591306,0.42628297325484454,-0.0030184710383415222
1776442867037552400,25.298552490234375,-0.6008148528397083,-0.2705016060430556,-0.04409574683606624
1776442867062568400,25.323568359375,-0.4123369385540485,-0.47291349926553666,-0.2317296115130186
1776442867087585500,25.34858544921875,0.3214182118751108,-0.47123994003012776,0.1714227345883846
1776442867112602400,25.373602294921874,-0.21352350821495056,-0.31184147829972203,-0.12257891644239426
1776442867137618200,25.3986181640625,0.38139585684537886,-0.5314215100746601,-0.22146073095500468
1776442867162635300,25.42363525390625,0.4738194351293146,-0.6738188603825866,-0.4101338755518198
1776442867187652400,25.44865234375,1.0379704446993767,-0.5836762326426804,-0.1779676261872053
1776442867212668400,25.47366845703125,0.9282489640034735,0.49000689208135007,-0.3256511732697487
1776442867237685500,25.498685546875,-0.193808607789129,0.4817155952066183,-0.3208703687340021
1776442867262702600,25.52370263671875,-0.9222354028023779,-0.35287571867331863,0.9366367069900036
1776442867287718400,25.548718505859377,-0.7450164760906249,0.18628303458988665,0.5875830308228731
1776442867312735200,25.5737353515625,-0.04741882684417069,1.462565537932515,-0.5677028568327427
1776442867337752300,25.59875244140625,0.5457727645754814,0.6434057480707764,0.2706073314398527
1776442867362768400,25.623768310546875,-0.7538333312094211,-0.18961437096968292,-0.5000953015059233
1776442867387785500,25.648785400390626,0.9585773206412792,-0.11247267910018563,-0.14640695127546785
1776442867412801500,25.673801513671876,0.5742518400847911,-0.908116495752707,-0.07902911305129527
1776442867437818400,25.698818359375,-0.20083470703363418,-0.5841506452213973,-0.3601403028488159
1776442867462835200,25.723835205078124,0.0015058014530688524,0.17070786431729792,-0.1886947719067335
1776442867487852500,25.7488525390625,0.3966694138228893,0.5514991063330322,0.3025929537653923
1776442867512869600,25.77386962890625,0.4579517116509378,0.48520091657172887,0.20002982039153575
1776442867537886700,25.79888671875,0.9146526925884186,-0.23877503651250154,0.231486450406909
1776442867562902800,25.82390283203125,0.32648009837456043,-0.3733612381454557,0.2556879947274923
1776442867587919600,25.848919677734376,-0.5077344180822372,-0.5827141461448744,0.08426642918288707
1776442867612936700,25.873936767578126,-0.4613233800411224,-0.4117137651544064,0.33311493327915664
1776442867637952500,25.898952392578124,0.9074082013528794,-0.21162445139428598,0.5453957479566335
1776442867662969600,25.923969482421874,0.4825380175054073,-0.25048143906034526,-1.3726035274565218
1776442867687986700,25.948986572265625,1.2694868518531321,-0.6189839851282537,-0.4972247145056724
1776442867713002800,25.974002685546875,1.1091244404613971,-0.7561752912256866,-0.25193127254247666
1776442867738019600,25.99901953125,1.5214789146721361,-0.09956756828706712,0.1307020171433687
1776442867763035600,26.02403564453125,0.4760941751282662,-0.3247698969231918,0.19249299514591692
1776442867788052500,26.049052490234374,-0.11326273349933326,0.6093212172372267,0.6113777479082345
1776442867813069600,26.074069580078124,-1.9868425100147722,0.8185917076501995,0.12241057413816452
1776442867838085600,26.099085693359374,0.014187588371708987,0.32134375839941204,0.1897492493957281
1776442867863102700,26.124102783203124,1.520509777379036,-0.7277591248847544,-0.3950204775720835
1776442867888119800,26.149119873046875,1.0433809985060245,-0.619914982368052,-0.14210662373304367
1776442867913135900,26.174135986328125,0.1742378285417333,-0.5053504820877686,-0.33399463872313495
1776442867938152400,26.19915234375,-0.029866767008043825,-0.25215061438158154,-0.5098059636592864
1776442867963169500,26.22416943359375,-1.08741062130332,1.0446852129723876,0.4385936618387699
1776442867988185600,26.249185546875,0.923659151995182,-0.14464615214802323,0.857509394261241
1776442868013202700,26.27420263671875,1.0186386983722449,-0.15371055228710173,-0.4495166223913431
1776442868038219800,26.2992197265625,-0.08999182109236717,-0.9917343978989869,-0.3382072879821062
1776442868063235800,26.32423583984375,1.2426824315577745,-0.7796557547301054,-0.1188122573852539
1776442868088252700,26.349252685546876,0.33197277750670906,-0.5268810171008109,-0.45052083099782464
1776442868113268700,26.374268798828126,-0.016032266390323638,0.9270980404026806,0.5042167653501034
1776442868138285600,26.39928564453125,0.2647708986376412,0.14853004437666387,0.09962766444385052
1776442868163302700,26.424302734375,0.68710548132658,-0.492022871546261,0.20923253302276132
1776442868188318700,26.449318603515625,1.6590268521875142,-0.6341876917399466,0.02185702702105045
1776442868213335800,26.474335693359375,0.6422422572493552,-0.7697958933643996,-0.4971475576162338
1776442868238352600,26.4993525390625,0.007385507141426205,0.4570305416854098,0.09841419700086117
1776442868263368700,26.52436865234375,-0.9356838632445782,0.8868369032934308,0.7453881589472293
1776442868288385500,26.549385498046874,-0.4277092066656798,0.11515789959616958,0.6713198831737041
1776442868313402600,26.574402587890624,-0.15359657051861286,-0.15373095575431361,0.218457457485795
1776442868338418700,26.599418701171874,-0.49527533400356766,-0.5554120785256847,-0.7637228570610284
1776442868363435800,26.624435791015625,0.1584750632751733,-0.043256227272003886,-0.115997784486413
1776442868388452900,26.649452880859375,0.08040558903627097,-0.024738596639619206,0.5779319899022579
1776442868413468700,26.67446875,0.23293021947443485,0.14137220851127058,0.6988187154740094
1776442868438485500,26.699485595703123,-0.43663960516154765,-0.48178033100590106,-0.6284627382218837
1776442868463501600,26.72450146484375,0.24641521253474055,-0.6548465950176119,-0.5728425578087568
1776442868488517600,26.749517578125,0.22017712088525293,0.22259846628066152,0.1462000305265188
1776442868513534200,26.7745341796875,-0.7722702475886791,0.14801131773218512,0.06629822629392147
1776442868538550300,26.79955029296875,-0.6659516341388225,-0.02426430735848844,-0.15936930870115756
1776442868563567400,26.8245673828125,-0.43174942196719346,-0.10274364103991537,-0.8148311130076646
1776442868588584400,26.84958447265625,0.18575638036727904,-0.10329232443124055,-0.15412965448200702
1776442868613600500,26.8746005859375,-0.36907296636700626,0.5660113966144621,0.3388385716229677
1776442868638617600,26.89961767578125,-0.16953650071667506,0.3368551427207887,0.33008243371546264
1776442868663634200,26.92463427734375,0.27904958109259603,0.13844210987612604,-0.7733399957120418
1776442868688650500,26.949650390625,0.6081079324573279,-0.21004143825285135,0.010626023432612418
1776442868713667300,26.974667236328123,0.6117933429718018,-0.20195859649702905,0.33226562297344203
1776442868738684400,26.999684326171874,0.21434941937876864,0.26812252888679505,0.2208680257588625
1776442868763700500,27.024700439453124,-0.24920387513888997,0.31920974204540253,0.314967866691947
1776442868788717600,27.049717529296874,0.4849807344824075,0.19329693193994463,-0.046566520863771436
1776442868813733400,27.0747333984375,0.46291678671240805,-0.03312233473788947,-0.3537409572005272
1776442868838750500,27.09975048828125,-0.12591653643250464,1.1182863096255808,1.3744418487995862
1776442868863767300,27.124767333984376,-0.6513081917583942,0.9461468050699681,0.9243658389598131
1776442868888783400,27.149783447265627,0.5439490562796593,-0.8130299088045955,-1.953914638403058
1776442868913800400,27.174800537109373,1.3604934029459952,-0.9203152483947574,-1.0557640216737985
1776442868938817500,27.199817626953124,-0.5663233851730823,0.46496984678469594,1.3263397889316082
1776442868963833300,27.224833251953125,-1.7061550985872744,1.6249916038557886,0.3134025170713663
1776442868988850400,27.249850341796876,0.30238837110400196,0.0440218778822571,0.03780687582492828
1776442869013867300,27.2748671875,-0.21392332118749618,-1.4636384278610348,-0.7744535099118948
1776442869038883300,27.29988330078125,1.353669694405794,-1.729591503754258,-1.383590200895071
1776442869063900400,27.324900390625,-2.339409162738919,1.7136995226174592,0.9751438400387763
1776442869088916200,27.349916259765624,-1.7511719057910142,1.571078373491019,2.034233206743002
1776442869113933300,27.374933349609375,1.6848732411056755,-1.1606843126330524,0.3106915045469999
1776442869138950400,27.399950439453125,2.872991723304987,-1.478394098444283,-1.430351367548108
1776442869163966500,27.424966552734375,1.1438801850873976,-0.908296017038077,-1.5854589271515607
1776442869188983600,27.449983642578125,0.997798739439249,1.0054279191434383,0.7231447629570961
1776442869214000400,27.47500048828125,-0.8548438283137977,0.21924071681797502,0.052390112450718875
1776442869239016200,27.50001611328125,-0.4078429881356656,-0.8074605111744254,-1.099642910888791
1776442869264033300,27.525033203125,-0.5905355970181524,0.5441868470909074,-0.8449526950269937
1776442869289050400,27.55005029296875,-0.2869511479973793,0.7865299513485282,-0.06889584157168865
1776442869314066400,27.57506640625,0.5468927085161209,1.1650695419799535,0.5052034382998943
1776442869339083500,27.60008349609375,0.6786860280275344,0.7648204430393875,0.5608598590701818
1776442869364100400,27.625100341796873,0.01575359557941556,-0.044070247068628665,-0.5883499235421419
1776442869389116200,27.6501162109375,0.05177914094552397,0.34982246858254074,-0.48274902990758417
1776442869414133200,27.67513330078125,-0.7567666081823408,0.26283275191560385,1.064698438757658
1776442869439149300,27.7001494140625,-0.46292073223516345,0.5538639357682317,1.21296241607666
1776442869464166400,27.72516650390625,0.40359000686630603,0.6505466328013688,1.6945272046357391
1776442869489184300,27.750184326171876,0.32440263451337814,-0.2987351092934608,1.8452151942312716
1776442869514200300,27.775200439453126,-1.3240313658587635,-1.7053046192377805,-1.3906728526324033
1776442869539217200,27.800217041015625,0.41182957355380057,0.5800663715824484,0.6419955890119076
1776442869564234200,27.825234130859375,-0.38981691757962106,0.24837635653987525,0.033411855736374854
1776442869589250000,27.85025,0.002819733595848083,0.5722103973850607,-0.8356897766411304
1776442869614267100,27.87526708984375,0.33661388131082054,0.3912329218573868,-0.03439735964238643
1776442869639284200,27.9002841796875,0.4427718243062496,0.19102467615902421,-0.03287526464164257
1776442869664300300,27.92530029296875,-0.06344649012461304,-0.0059619771443307394,-0.5525935505062342
1776442869689317000,27.950317138671874,-1.4296826745063065,-0.032011925810575485,0.47607145183980465
1776442869714334200,27.975334228515624,-1.7001047125071287,0.6356872826479375,-0.010247837769985198
1776442869739350000,28.00035009765625,-0.312995543705672,0.5507128513261675,-1.7814783428579568
1776442869764367000,28.0253671875,0.2185539035975933,-0.03483165940642357,-0.6201087513744831
1776442869789383200,28.050383056640626,0.48678924520909783,-0.8166299791231751,-0.6352338397920131
1776442869814400300,28.075400146484377,1.0635411584813148,-0.157958565120399,-0.27541093232929703
1776442869839417300,28.100417236328123,0.8102578137427568,1.1545566965982317,-0.14675240371227263
1776442869864433200,28.12543310546875,-0.2649721020318568,0.3423664534881711,0.37712183278799055
1776442869889450000,28.150449951171876,-0.8589654382884502,-0.4844704468727112,1.2963742742568254
1776442869914467000,28.175467041015626,-2.2481962754189966,-0.21961685665398833,0.3472030798643827
1776442869939483100,28.200483154296876,-0.8549769531741738,1.466728210569918,-0.5341255814015865
1776442869964500200,28.225500244140626,-0.3784723706141114,0.8589631002008914,-0.2810024687260389
1776442869989517300,28.250517333984376,-0.6481978046528994,-0.13686141655594108,-0.645695028051734
1776442870014533000,28.275533203125,-0.8357555353537202,-0.35240766277015206,0.047373161071538925
1776442870039550000,28.300550048828125,-1.0279007399752735,-0.20111352397501467,0.25970073750019074
1776442870064566000,28.32556591796875,-0.5888936750300229,0.4628220941662788,0.23648352804183959
1776442870089583000,28.3505830078125,-0.3640998541295528,0.16429390562176704,0.2261877594769001
1776442870114600200,28.37560009765625,0.233668470621109,0.2795776966199279,-0.647886400616169
1776442870139616300,28.4006162109375,-0.1470141233883798,0.15918752239346504,-0.0933189196884632
1776442870164633300,28.42563330078125,-0.5414356121540069,-0.17253303391784428,0.602057546377182
1776442870189650200,28.450650146484374,-0.10897577689513563,-0.6189212951555848,0.5043588041692972
1776442870214666200,28.475666259765624,-0.23819340069964526,-0.7052209837317467,0.5169149188816548
1776442870239683000,28.50068310546875,-0.1835141543984413,0.09865735810697078,0.1260796180397272
1776442870264700200,28.5257001953125,0.6788754131197929,0.07788520371317863,-0.26148294474184514
1776442870289716200,28.55071630859375,1.6581559145718812,-0.23709289211183784,0.2921668368190527
1776442870314733300,28.5757333984375,1.10700445263274,-0.26709669297039507,0.04367196846604347
1776442870339749000,28.6007490234375,0.9687871644884347,0.00750672236829996,-0.7952320940464734
1776442870364766200,28.62576611328125,1.5368717141151427,0.24881430956572292,-0.5424842444241047
1776442870389783000,28.650782958984376,0.760988609791547,0.5003825940147042,-0.8345400220841169
1776442870414799000,28.675799072265626,0.8890642239540815,-0.27109160782545805,-0.4466711698323488
1776442870439816200,28.700816162109376,0.018069909697771072,0.041562428966164584,-0.25615795032680033
1776442870464833300,28.725833251953127,0.39045711517930026,0.1838631139665842,0.4185848930329084
1776442870489848800,28.750848876953125,-0.8758438001140951,-0.4046835011914372,-1.1190326710134744
1776442870514866000,28.775865966796875,0.5495101975381375,-0.09583996259868144,0.019700141248106956
1776442870539883000,28.800883056640625,-0.2941545035049319,0.35475934046283364,0.06354162106215953
1776442870564898800,28.82589892578125,0.8039028917580843,0.2229636828638613,0.26605975113809105
1776442870589915600,28.85091552734375,-2.691196355523169,-0.023290859216451642,-0.8205483216106891
1776442870614931700,28.875931640625,0.2102124839708209,0.11508856068700551,0.14632862534224986
1776442870639948800,28.90094873046875,-0.0887464972063899,-0.3691046766795218,0.21822364872992037
1776442870664966000,28.9259658203125,-1.0319421243205666,0.10845350658670067,0.8248632622003554
1776442870689981700,28.950981689453126,-1.5457465099662542,0.5226544854469597,1.083797691503167
1776442870714998800,28.975998779296877,-0.1603571506947279,0.9582876900449394,0.4407762665748596
1776442870740015900,29.001015869140623,0.3139016987651586,1.4138915233954787,0.3244377058267593
1776442870765032000,29.026031982421873,-0.3571343990311026,0.250046043317765,0.07319850720167159
1776442870790048800,29.051048828125,-0.5957452944904565,-0.6093712303914129,0.10079904631078243
1776442870815065900,29.07606591796875,-0.393411873331666,-0.4240780836217105,0.39676702897846694
1776442870840081700,29.10108154296875,0.3225824333488941,0.3678384561359882,0.33547640171349047
1776442870865098800,29.1260986328125,-0.05416296734213829,0.747335785883665,0.5267196890592575
1776442870890114800,29.15111474609375,0.13090835337042808,0.37470980321019887,0.461204722097516
1776442870915132000,29.1761318359375,-0.44155017355680465,-0.8594296947993337,0.09701426707506179
1776442870940148700,29.201148681640625,-0.6186714120477438,-0.362830418715626,0.5773135657429694
1776442870965164800,29.226164794921875,-0.3831143512010574,0.364897726508975,0.836125245448947
1776442870990181600,29.251181640625,0.30478081919848915,0.5950584812700748,0.4497247121840715
1776442871015198700,29.27619873046875,-0.23689093979895112,-0.5931506018221377,-0.8019301303803921
1776442871040214800,29.30121484375,-0.322491247934103,-0.3685046649597585,0.0035649990051984785
1776442871065232000,29.32623193359375,0.02930500493943691,0.2680664147853851,-0.06602934622466564
1776442871090248700,29.351248779296874,0.6311535847410559,0.9465469833686947,-0.09432079020738601
1776442871115264800,29.3762646484375,0.26233868478834627,1.0818351592585445,-0.18709961166977881
1776442871140281600,29.401281494140626,0.6007441256910562,0.6498886803492904,0.20971476358175276
1776442871165297700,29.426297607421876,-0.41595629809498785,0.19318521519377826,0.6982429614126682
1776442871190314800,29.451314697265627,-0.7110328848809003,0.12614800710082053,0.551133414825797
1776442871215331800,29.476331787109373,-0.6831120277762412,-0.3874363060534,-0.5330214195519686
1776442871240348000,29.501347900390623,-0.6073693890497088,-0.47321313979923724,-0.39668227330446243
1776442871265365000,29.526364990234374,-1.0963669579580426,-0.6478317478194833,0.24954642323255538
1776442871290381600,29.551381591796876,-1.069181721651554,-0.8691495631724595,0.16714754148721694
1776442871315397600,29.576397705078126,-0.019236615389585494,-0.4429720230534672,0.2619938168734312
1776442871340414700,29.601414794921876,0.39727527076154945,0.05461217241436243,0.30569267334640027
1776442871365431800,29.626431884765626,-0.5451908730342984,0.5127110374510288,0.1617068117380142
1776442871390447900,29.65144775390625,-0.7923021780744195,0.061677580755949014,-0.023159341791272162
1776442871415465000,29.67646484375,-0.2676169174522161,0.21801351311057804,-0.19852643009126186
1776442871440480800,29.701480712890625,0.28364772253781556,0.663278323276341,0.4047434146851301
1776442871465497900,29.726497802734375,-0.7599816247060894,0.44599429348409175,0.5021387900322676
1776442871490518000,29.75151806640625,-0.8210618240907788,0.3883995981276035,0.38730829575955866
1776442871515534000,29.7765341796875,-0.2964677488833666,-0.07506956177055835,0.4179886807054281
1776442871540551200,29.80155126953125,-0.5260404746234416,-0.39986090334057806,0.5964467207580805
1776442871565568300,29.826568359375,-1.044124583414942,-1.0082534979581832,-0.47508594793379305
1776442871590584000,29.851583984375,-0.46502048099339005,-0.8647630186513066,-1.2767261554569005
1776442871615601200,29.87660107421875,0.6302076091278344,0.1848582624837756,-0.7115946104168891
1776442871640618000,29.901617919921875,0.5143254869103432,0.319126739937067,-1.0466554170668125
1776442871665634000,29.926634033203126,0.33596637718752026,-0.091997023434937,0.30102234344780443
1776442871690651100,29.951651123046876,-0.6902921485386788,-0.1877192048728466,0.5142483300209045
1776442871715667200,29.976667236328126,-0.3915378961533308,0.6265902223482728,-0.859928145840764
1776442871740684300,30.001684326171876,0.6819014829427004,0.1928019149646163,-0.4156880025476217
1776442871765701000,30.026701171875,0.09121931706070899,-0.3984355467125773,0.3830827870190143
1776442871790717200,30.05171728515625,-0.32644963017106055,-0.16506810486465692,0.7390525261849165
1776442871815734300,30.076734375,-0.8595308170862496,-0.04989303493797779,0.8899445139199494
1776442871840751000,30.101751220703125,-0.6634004152860492,-0.04590688791126012,0.02303483862876892
1776442871865767200,30.12676708984375,-0.7288876905232667,-0.3814724292129278,-0.4933148475855589
1776442871890784300,30.1517841796875,0.38452012634575367,-0.28379794466346503,-0.678448127618432
1776442871915801000,30.176801025390624,0.5606172459533437,0.2985295037187636,-0.5962514904469252
1776442871940817200,30.201817138671874,0.4964846732607111,0.6938590472400188,0.46215807729959485
1776442871965834200,30.226834228515624,0.6297884338676929,0.35917277299091216,-0.5219277786076069
1776442871990850300,30.251850341796874,-0.021656609078124164,0.16722732872515916,-1.0762234568566083
1776442872015867100,30.2768671875,0.5208440750241279,0.1477694718003273,-0.20793781703710554
1776442872040884200,30.30188427734375,-0.32334234833810477,-0.3190171420827508,0.06232523100972175
1776442872065900000,30.326900146484373,-0.9595780221164226,-0.6743409845605493,-0.372137614634633
1776442872090917000,30.351917236328124,0.5766589012265205,-0.6830116361416876,-0.04253039721548557
1776442872115934200,30.376934326171874,-0.19672668719291686,-0.20967750031128524,0.27087095081210133
1776442872140950300,30.4019501953125,-0.6679419311732053,-0.359748380921781,0.3285919028967619
1776442872165967000,30.426967041015626,-0.8753811510384082,-0.8208242159426212,0.33860651643276213
1776442872190984200,30.451984130859376,-0.8447966276824473,-0.771535138247162,0.7081850942343473
1776442872216000000,30.477,-1.024055389658734,0.13548092198297382,0.8723790466129779
1776442872241017000,30.50201708984375,-0.877774841241911,0.42659006644263864,0.6206313139438628
1776442872266033200,30.527033203125,-0.4880472093809396,-0.19713979803845286,-0.2152548620522022
1776442872291050200,30.55205029296875,0.41581667042858894,-0.42537922934815287,-0.3567757948517799
1776442872316067300,30.5770673828125,0.318966617471911,1.1227733188465236,0.5022849205046892
1776442872341083100,30.602083251953125,-0.26478023272156714,0.7431507552839816,0.6399760658830403
1776442872366100000,30.627099853515624,-1.562205477336049,0.2790400826118886,-0.04617021502256393
1776442872391117000,30.652116943359374,-1.249738779810071,-0.5764014193341136,0.1441401753872633
1776442872416133000,30.677133056640624,-0.5848498064666986,-0.45440936286896466,-1.8341192151993513
1776442872441150200,30.702150146484374,-0.3885544964283705,-0.7381716516971588,-1.6929279527455567
1776442872466167300,30.727167236328125,0.2991197246968746,-0.9132112616084516,-0.19418869314789772
1776442872491183000,30.75218310546875,0.9874737447798252,0.7446813258521259,-0.14641513458192348
1776442872516196600,30.777196533203124,-0.40159108813405037,0.34774683135226364,0.09527648349702357
1776442872541212700,30.802212646484374,-0.54109425137043,-0.04714578205645084,0.4437853852629661
1776442872566229500,30.8272294921875,-0.48952422313094135,-0.10588117188066244,0.8412865737348795
1776442872591246600,30.85224658203125,-0.5100912103414535,-0.1615311629101634,1.397678347480297
1776442872616262400,30.877262451171877,-0.5362590497663244,-0.13321151574626564,0.18438216940462587
1776442872641279500,30.902279541015623,-0.1587526381075382,-0.38944910718053577,-0.6679086134254932
1776442872666296600,30.927296630859374,0.48920741226673126,-0.025312282041460275,0.000042670097947120666
1776442872691312600,30.952312744140624,-0.6422879960872232,-0.17523703217953443,0.05034954653382301
