time,seconds_elapsed,z,y,x
1776442196020545800,0.0745458984375,-0.9279937744140625,-0.3791046142578125,-0.004852294921875
1776442196045562600,0.099562744140625,-0.942108154296875,-0.362823486328125,0.025390625
1776442196070579700,0.124579833984375,-0.945892333984375,-0.363494873046875,0.036346435546875
1776442196095596800,0.1495966796875,-0.9437713623046875,-0.362884521484375,0.026824951171875
1776442196120614000,0.17461376953125,-0.95086669921875,-0.3445281982421875,0.00958251953125
1776442196145630700,0.199630615234375,-0.9604339599609375,-0.3345947265625,-0.0080108642578125
1776442196170647800,0.224647705078125,-0.955078125,-0.3286895751953125,-0.0053863525390625
1776442196195666000,0.249666015625,-0.9484405517578125,-0.329254150390625,0.0166168212890625
1776442196220682800,0.274682861328125,-0.94049072265625,-0.32421875,0.018218994140625
1776442196245699600,0.299699462890625,-0.938446044921875,-0.308837890625,0.0414276123046875
1776442196270716700,0.324716552734375,-0.944000244140625,-0.30322265625,0.0513153076171875
1776442196295733800,0.349733642578125,-0.95941162109375,-0.3152618408203125,0.043121337890625
1776442196320750600,0.37475048828125,-0.9696044921875,-0.3065948486328125,0.0428466796875
1776442196345767700,0.399767578125,-0.9801788330078125,-0.2866058349609375,0.05419921875
1776442196370784800,0.42478466796875,-0.9810028076171875,-0.2647552490234375,0.053924560546875
1776442196395801900,0.4498017578125,-0.9871368408203125,-0.266265869140625,0.048736572265625
1776442196420818700,0.474818603515625,-0.9808502197265625,-0.26654052734375,0.0472564697265625
1776442196445835800,0.499835693359375,-0.9741058349609375,-0.2707061767578125,0.04302978515625
1776442196470854000,0.52485400390625,-0.9554290771484375,-0.270751953125,0.058380126953125
1776442196495870700,0.54987060546875,-0.954315185546875,-0.260528564453125,0.07818603515625
1776442196520887800,0.5748876953125,-0.951507568359375,-0.2606658935546875,0.0847320556640625
1776442196545904600,0.599904541015625,-0.95526123046875,-0.258697509765625,0.0863800048828125
1776442196570921700,0.624921630859375,-0.9593048095703125,-0.249420166015625,0.0882720947265625
1776442196595938600,0.6499384765625,-0.96917724609375,-0.2451324462890625,0.0859222412109375
1776442196620955600,0.67495556640625,-0.97503662109375,-0.235931396484375,0.1052398681640625
1776442196645972700,0.69997265625,-0.9697723388671875,-0.24267578125,0.1325531005859375
1776442196670989800,0.72498974609375,-0.953125,-0.2035980224609375,0.164794921875
1776442196696007700,0.750007568359375,-0.952117919921875,-0.18792724609375,0.151092529296875
1776442196721024800,0.775024658203125,-0.967559814453125,-0.1627960205078125,0.1747283935546875
1776442196746041900,0.800041748046875,-0.999603271484375,-0.0943450927734375,0.1249542236328125
1776442196771058700,0.82505859375,-1.0306396484375,-0.11920166015625,0.0850372314453125
1776442196796075800,0.85007568359375,-0.961700439453125,-0.1848297119140625,0.219207763671875
1776442196821092900,0.8750927734375,-1.06561279296875,-0.2085723876953125,0.3269805908203125
1776442196846110000,0.90010986328125,-0.9275970458984375,-0.184722900390625,0.2523040771484375
1776442196871126500,0.92512646484375,-0.9031829833984375,-0.193450927734375,0.2699432373046875
1776442196896143600,0.9501435546875,-0.9144744873046875,-0.1934356689453125,0.2801513671875
1776442196921161700,0.97516162109375,-0.9229278564453125,-0.179595947265625,0.2718963623046875
1776442196946178300,1.00017822265625,-0.9343109130859375,-0.203857421875,0.2418060302734375
1776442196971195100,1.025195068359375,-0.938262939453125,-0.127777099609375,0.25830078125
1776442196996212200,1.050212158203125,-0.964691162109375,-0.124755859375,0.2440643310546875
1776442197021229300,1.075229248046875,-0.991790771484375,-0.1434478759765625,0.2728271484375
1776442197046246400,1.100246337890625,-0.975006103515625,-0.1779022216796875,0.23114013671875
1776442197071263200,1.12526318359375,-0.984619140625,-0.1781005859375,0.177459716796875
1776442197096280300,1.1502802734375,-0.9638214111328125,-0.182708740234375,0.1698455810546875
1776442197121297400,1.17529736328125,-0.9120941162109375,-0.1614837646484375,0.218170166015625
1776442197146315300,1.200315185546875,-0.945587158203125,-0.187347412109375,0.24298095703125
1776442197171332400,1.225332275390625,-0.9508209228515625,-0.2592010498046875,0.2076263427734375
1776442197196349200,1.25034912109375,-0.9212493896484375,-0.2364959716796875,0.1874542236328125
1776442197221366300,1.2753662109375,-0.924224853515625,-0.2427215576171875,0.1461639404296875
1776442197246383000,1.300383056640625,-0.9406280517578125,-0.2008056640625,0.2207183837890625
1776442197271400200,1.325400146484375,-0.96966552734375,-0.1676177978515625,0.2799530029296875
1776442197296417300,1.350417236328125,-0.959686279296875,-0.1324005126953125,0.266265869140625
1776442197321434400,1.375434326171875,-0.9326629638671875,-0.0836181640625,0.2591705322265625
1776442197346452200,1.4004521484375,-0.869415283203125,-0.140228271484375,0.2241058349609375
1776442197371469300,1.42546923828125,-0.9448394775390625,-0.255340576171875,0.2306976318359375
1776442197396486400,1.450486328125,-0.924072265625,-0.28570556640625,0.2353973388671875
1776442197421503200,1.475503173828125,-0.9899139404296875,-0.454803466796875,0.1770782470703125
1776442197446520300,1.500520263671875,-0.9462890625,-0.4076080322265625,0.23724365234375
1776442197471537400,1.525537353515625,-0.9897918701171875,-0.3896026611328125,0.2225189208984375
1776442197496554200,1.55055419921875,-0.97259521484375,-0.356353759765625,0.245635986328125
1776442197521571000,1.575571044921875,-0.972259521484375,-0.310882568359375,0.206817626953125
1776442197546589200,1.600589111328125,-0.944091796875,-0.2440643310546875,0.274078369140625
1776442197571606300,1.625606201171875,-0.9546966552734375,-0.0783233642578125,0.460601806640625
1776442197596623000,1.650623046875,-0.8856048583984375,-0.0061187744140625,0.4214935302734375
1776442197621640200,1.67564013671875,-0.8966522216796875,-0.0951385498046875,0.229705810546875
1776442197646657300,1.7006572265625,-0.9381866455078125,-0.2016448974609375,0.15618896484375
1776442197671674400,1.72567431640625,-0.987274169921875,-0.18841552734375,0.213897705078125
1776442197696691200,1.750691162109375,-1.12640380859375,-0.1677093505859375,0.3037872314453125
1776442197721708300,1.775708251953125,-1.0440521240234375,-0.1697998046875,0.2447357177734375
1776442197746726400,1.800726318359375,-0.97119140625,-0.1599578857421875,0.1907806396484375
1776442197771743200,1.8257431640625,-1.0113372802734375,-0.162139892578125,0.271820068359375
1776442197796760300,1.85076025390625,-1.0292816162109375,-0.1324920654296875,0.30938720703125
1776442197821777400,1.87577734375,-0.97442626953125,-0.0638885498046875,0.2584686279296875
1776442197846794200,1.900794189453125,-0.958953857421875,-0.0475311279296875,0.2325286865234375
1776442197871811000,1.92581103515625,-0.9346466064453125,-0.0128936767578125,0.2086334228515625
1776442197896828200,1.950828125,-0.9637451171875,0.0478668212890625,0.244659423828125
1776442197921846300,1.97584619140625,-0.96087646484375,-0.04864501953125,0.1871185302734375
1776442197946863000,2.000863037109375,-0.9169464111328125,-0.0333709716796875,0.1769866943359375
1776442197971880200,2.025880126953125,-0.9512939453125,-0.0556640625,0.1333770751953125
1776442197996897300,2.050897216796875,-0.9854888916015625,-0.136566162109375,0.1135101318359375
1776442198021914400,2.075914306640625,-0.9928741455078125,-0.0756988525390625,0.1900787353515625
1776442198046931200,2.10093115234375,-1.0319061279296875,-0.1293792724609375,0.1529388427734375
1776442198071948300,2.1259482421875,-1.016326904296875,-0.1857147216796875,0.1272735595703125
1776442198096965400,2.15096533203125,-0.9631500244140625,-0.1390533447265625,0.08233642578125
1776442198121983200,2.175983154296875,-0.9573974609375,-0.115692138671875,0.0703125
1776442198147000300,2.201000244140625,-0.9326629638671875,-0.1272735595703125,0.1369781494140625
1776442198172017400,2.226017333984375,-0.973480224609375,-0.0796356201171875,0.0640411376953125
1776442198197034200,2.2510341796875,-0.96685791015625,-0.0926513671875,0.0347442626953125
1776442198222051000,2.276051025390625,-0.9821319580078125,-0.1113128662109375,0.027008056640625
1776442198247068200,2.301068115234375,-0.99755859375,-0.13385009765625,0.1172027587890625
1776442198272085200,2.326085205078125,-0.9533233642578125,-0.135833740234375,0.09014892578125
1776442198297103000,2.35110302734375,-0.9510040283203125,-0.1641387939453125,0.0182037353515625
1776442198322120200,2.3761201171875,-1.0221710205078125,-0.046661376953125,0.08380126953125
1776442198347137300,2.40113720703125,-1.0283355712890625,0.0041656494140625,0.098785400390625
1776442198372154000,2.426154052734375,-1.0123748779296875,-0.0813140869140625,0.039398193359375
1776442198397171200,2.451171142578125,-0.9814605712890625,-0.1169891357421875,0.1069183349609375
1776442198422188300,2.476188232421875,-0.96954345703125,-0.1051177978515625,0.052825927734375
1776442198447205400,2.501205322265625,-0.9742584228515625,-0.056121826171875,0.022613525390625
1776442198472222200,2.52622216796875,-1.0307769775390625,-0.015411376953125,0.0762176513671875
1776442198497240300,2.551240234375,-1.0443115234375,-0.00537109375,0.1398773193359375
1776442198522257400,2.57625732421875,-0.969482421875,-0.0665130615234375,0.0990753173828125
1776442198547274200,2.601274169921875,-0.946685791015625,-0.02166748046875,0.0628662109375
1776442198572291000,2.626291015625,-0.9824981689453125,0.0287017822265625,0.0728912353515625
1776442198597308200,2.65130810546875,-0.9972076416015625,0.02191162109375,0.1055755615234375
1776442198622325200,2.6763251953125,-1.00286865234375,-0.0125885009765625,0.1695098876953125
1776442198647342000,2.701342041015625,-1.0117034912109375,-0.0676727294921875,0.1160430908203125
1776442198672360200,2.726360107421875,-1.005615234375,-0.0344085693359375,0.08319091796875
1776442198697377300,2.751377197265625,-1.0216064453125,0.0108642578125,0.088714599609375
1776442198722394000,2.77639404296875,-1.03692626953125,0.03863525390625,0.10638427734375
1776442198747411200,2.8014111328125,-0.9964599609375,-0.0026092529296875,0.10528564453125
1776442198772428300,2.82642822265625,-1.0142974853515625,-0.0006256103515625,0.08856201171875
1776442198797445400,2.8514453125,-0.9802703857421875,-0.0322418212890625,0.10821533203125
1776442198822462200,2.876462158203125,-0.966339111328125,-0.0125579833984375,0.1307830810546875
1776442198847480300,2.901480224609375,-0.980804443359375,0.021575927734375,0.13958740234375
1776442198872497400,2.926497314453125,-0.9901123046875,-0.015777587890625,0.100189208984375
1776442198897514200,2.95151416015625,-0.9790496826171875,-0.050537109375,0.082061767578125
1776442198922531300,2.97653125,-0.978790283203125,-0.075225830078125,0.1264495849609375
1776442198947549200,3.001549072265625,-0.98046875,-0.106475830078125,0.196075439453125
1776442198972566000,3.02656591796875,-0.98687744140625,-0.110809326171875,0.1777191162109375
1776442198997583000,3.0515830078125,-0.9637908935546875,-0.1133270263671875,0.1285552978515625
1776442199022601200,3.076601318359375,-0.97076416015625,-0.1160430908203125,0.14599609375
1776442199047618000,3.1016181640625,-0.985198974609375,-0.110260009765625,0.154022216796875
1776442199072635100,3.12663525390625,-0.9778289794921875,-0.143646240234375,0.1756744384765625
1776442199097652200,3.15165234375,-0.965118408203125,-0.1783294677734375,0.1677398681640625
1776442199122669000,3.1766689453125,-0.953338623046875,-0.1823272705078125,0.123291015625
1776442199147686000,3.201685791015625,-0.96881103515625,-0.177001953125,0.15234375
1776442199172704000,3.2267041015625,-0.970367431640625,-0.176971435546875,0.1925201416015625
1776442199197721000,3.25172119140625,-0.9704742431640625,-0.2006683349609375,0.1751861572265625
1776442199222738000,3.276738037109375,-0.98919677734375,-0.19036865234375,0.175689697265625
1776442199247755000,3.301755126953125,-0.957061767578125,-0.2105865478515625,0.184478759765625
1776442199272772000,3.326772216796875,-0.9818572998046875,-0.1984710693359375,0.1501312255859375
1776442199297789200,3.3517890625,-0.935455322265625,-0.1867828369140625,0.1359100341796875
1776442199322806000,3.376805908203125,-0.9462890625,-0.131744384765625,0.0848541259765625
1776442199347824000,3.40182421875,-0.9410247802734375,-0.1168365478515625,0.129486083984375
1776442199372841200,3.42684130859375,-0.968353271484375,-0.164398193359375,0.120574951171875
1776442199397858000,3.451858154296875,-0.9604644775390625,-0.2026824951171875,0.1327667236328125
1776442199422875100,3.476875244140625,-0.9919586181640625,-0.1181793212890625,0.14508056640625
1776442199447892200,3.501892333984375,-0.9728851318359375,-0.107879638671875,0.0894927978515625
1776442199472909000,3.526908935546875,-0.9918975830078125,-0.1743621826171875,0.127349853515625
1776442199497927200,3.55192724609375,-0.96258544921875,-0.2408905029296875,0.138519287109375
1776442199522944000,3.576944091796875,-0.970489501953125,-0.2631988525390625,0.1326446533203125
1776442199547961000,3.601961181640625,-0.9745025634765625,-0.276519775390625,0.12335205078125
1776442199572978000,3.62697802734375,-0.9884796142578125,-0.2477264404296875,0.1120452880859375
1776442199597995000,3.6519951171875,-0.987579345703125,-0.2274169921875,0.07861328125
1776442199623012000,3.67701220703125,-0.948760986328125,-0.236053466796875,0.01953125
1776442199648029200,3.702029296875,-0.9752960205078125,-0.1954803466796875,0.0655059814453125
1776442199673047000,3.727047119140625,-0.975128173828125,-0.163055419921875,0.0619659423828125
1776442199698064100,3.752064208984375,-1.018218994140625,-0.0780487060546875,0.14141845703125
1776442199723081200,3.777081298828125,-0.9808807373046875,-0.1345977783203125,0.13397216796875
1776442199748098000,3.80209814453125,-0.97314453125,-0.18353271484375,0.126220703125
1776442199773115100,3.827115234375,-0.9624786376953125,-0.213043212890625,0.0242919921875
1776442199798132200,3.85213232421875,-0.945526123046875,-0.2093353271484375,0.0176544189453125
1776442199823150000,3.877150146484375,-0.982086181640625,-0.2349090576171875,0.0712127685546875
1776442199848167200,3.902167236328125,-0.97802734375,-0.2431182861328125,0.0581207275390625
1776442199873184300,3.927184326171875,-0.936859130859375,-0.2414703369140625,-0.032318115234375
1776442199898201000,3.952201171875,-0.9900054931640625,-0.208038330078125,-0.0060882568359375
1776442199923218000,3.977218017578125,-1.0133514404296875,-0.213714599609375,-0.032470703125
1776442199948234200,4.002234130859375,-0.9924468994140625,-0.2626800537109375,-0.025482177734375
1776442199973252400,4.02725244140625,-0.9803009033203125,-0.263702392578125,-0.0188446044921875
1776442199998269400,4.05226953125,-0.9992828369140625,-0.2703704833984375,0.049346923828125
1776442200023286300,4.077286376953125,-1.0347442626953125,-0.1908416748046875,0.068939208984375
1776442200048303400,4.102303466796875,-0.9925079345703125,-0.1518707275390625,0.00128173828125
1776442200073320200,4.1273203125,-0.9974822998046875,-0.119415283203125,-0.0056915283203125
1776442200098337300,4.152337158203125,-1.008819580078125,-0.099090576171875,0.02398681640625
1776442200123355100,4.177355224609375,-0.97821044921875,-0.13238525390625,0.003387451171875
1776442200148372200,4.202372314453125,-0.97265625,-0.0925445556640625,-0.0825653076171875
1776442200173389300,4.227389404296875,-0.9569854736328125,-0.074188232421875,-0.0957489013671875
1776442200198406100,4.25240625,-0.9364776611328125,-0.047607421875,0.0272979736328125
1776442200223423200,4.27742333984375,-0.936492919921875,-0.118194580078125,-0.0059051513671875
1776442200248440300,4.3024404296875,-0.9748382568359375,-0.111907958984375,-0.1042327880859375
1776442200273458200,4.327458251953125,-1.0403289794921875,-0.1097869873046875,-0.093902587890625
1776442200298475300,4.352475341796875,-1.0805206298828125,-0.0894927978515625,-0.0207366943359375
1776442200323492400,4.377492431640625,-1.0310211181640625,-0.1195831298828125,-0.0293121337890625
1776442200348509200,4.40250927734375,-0.9639434814453125,-0.1119537353515625,-0.0660858154296875
1776442200373526300,4.4275263671875,-0.97674560546875,-0.071746826171875,-0.1435089111328125
1776442200398543400,4.45254345703125,-1.0105743408203125,-0.07098388671875,-0.1733551025390625
1776442200423561200,4.477561279296875,-0.9886627197265625,-0.01275634765625,-0.215240478515625
1776442200448578300,4.502578369140625,-0.9757232666015625,0.04742431640625,-0.1799468994140625
1776442200473595100,4.52759521484375,-0.975616455078125,0.02490234375,-0.1627349853515625
1776442200498612200,4.5526123046875,-1.00494384765625,-0.08197021484375,-0.1878509521484375
1776442200523629300,4.57762939453125,-0.9745330810546875,-0.041015625,-0.22607421875
1776442200548646100,4.602646240234375,-0.90301513671875,-0.0672760009765625,-0.2353515625
1776442200573664300,4.627664306640625,-1.0105438232421875,-0.092620849609375,-0.367828369140625
1776442200598681000,4.65268115234375,-1.075103759765625,0.001617431640625,-0.3026123046875
1776442200623698200,4.6776982421875,-1.022552490234375,0.0098419189453125,-0.1782073974609375
1776442200648715300,4.70271533203125,-0.9625091552734375,0.0295257568359375,-0.2313232421875
1776442200673732400,4.727732421875,-0.951904296875,0.03436279296875,-0.3059234619140625
1776442200698750200,4.752750244140625,-0.943115234375,0.0958251953125,-0.3150482177734375
1776442200723767300,4.777767333984375,-0.90350341796875,0.1479339599609375,-0.252899169921875
1776442200748784400,4.802784423828125,-0.8773193359375,0.1531219482421875,-0.15411376953125
1776442200773801200,4.82780126953125,-0.91046142578125,0.1748199462890625,-0.2007904052734375
1776442200798818300,4.852818359375,-0.9760894775390625,0.1350555419921875,-0.2459259033203125
1776442200823835100,4.877835205078125,-1.001953125,0.1454010009765625,-0.2362213134765625
1776442200848853200,4.902853271484375,-0.97210693359375,0.1332244873046875,-0.163818359375
1776442200873870300,4.927870361328125,-0.9588165283203125,0.125762939453125,-0.1746368408203125
1776442200898887200,4.95288720703125,-0.939117431640625,0.1336517333984375,-0.202972412109375
1776442200923904300,4.977904296875,-0.9010467529296875,0.1387176513671875,-0.2026519775390625
1776442200948922400,5.00292236328125,-0.9292144775390625,0.1564178466796875,-0.148651123046875
1776442200973939500,5.027939453125,-0.963165283203125,0.1651458740234375,-0.141998291015625
1776442200998957300,5.052957275390625,-0.9552001953125,0.1620635986328125,-0.16082763671875
1776442201023974400,5.077974365234375,-0.945098876953125,0.1167755126953125,-0.14935302734375
1776442201048991500,5.102991455078125,-1.00360107421875,0.0989837646484375,-0.19488525390625
1776442201074008300,5.12800830078125,-1.055084228515625,0.1283111572265625,-0.138763427734375
1776442201099025200,5.153025146484375,-1.081298828125,0.1156005859375,-0.0737457275390625
1776442201124043300,5.178043212890625,-1.0891876220703125,0.140838623046875,-0.101654052734375
1776442201149060400,5.203060302734375,-1.0628814697265625,0.098602294921875,-0.1010284423828125
1776442201174077200,5.2280771484375,-1.035308837890625,0.036529541015625,-0.142364501953125
1776442201199094300,5.25309423828125,-1.026702880859375,0.0893707275390625,-0.087005615234375
1776442201224111400,5.278111328125,-0.9841156005859375,0.2047271728515625,-0.0098724365234375
1776442201249129200,5.303129150390625,-0.9434356689453125,0.20587158203125,0.0586395263671875
1776442201274146300,5.328146240234375,-0.948822021484375,0.1939697265625,0.0400848388671875
1776442201299163400,5.353163330078125,-0.968780517578125,0.1727447509765625,0.05828857421875
1776442201324180500,5.378180419921875,-0.977935791015625,0.175537109375,0.096405029296875
1776442201349197300,5.403197265625,-0.9776458740234375,0.1511383056640625,0.0915679931640625
1776442201374214400,5.42821435546875,-0.975494384765625,0.1910552978515625,0.0792236328125
1776442201399232500,5.453232421875,-0.9886016845703125,0.185455322265625,0.10736083984375
1776442201424249300,5.478249267578125,-0.9699859619140625,0.146759033203125,0.0451812744140625
1776442201449266400,5.503266357421875,-0.9549102783203125,0.169891357421875,0.0467681884765625
1776442201474283300,5.528283203125,-0.9593048095703125,0.196441650390625,0.060821533203125
1776442201499300400,5.55330029296875,-0.945892333984375,0.2153778076171875,0.096954345703125
1776442201524318200,5.578318115234375,-0.9691162109375,0.2016754150390625,0.118072509765625
1776442201549335300,5.603335205078125,-0.99481201171875,0.176971435546875,0.143524169921875
1776442201574352400,5.628352294921875,-0.9832000732421875,0.1681976318359375,0.1397247314453125
1776442201599369200,5.653369140625,-0.9754180908203125,0.149932861328125,0.122039794921875
1776442201624386300,5.67838623046875,-0.977630615234375,0.1592864990234375,0.130584716796875
1776442201649404200,5.703404052734375,-0.9677886962890625,0.1936187744140625,0.141448974609375
1776442201674421200,5.728421142578125,-0.9432220458984375,0.180145263671875,0.1098175048828125
1776442201699438300,5.753438232421875,-0.9751434326171875,0.1624755859375,0.085479736328125
1776442201724455400,5.778455322265625,-0.981658935546875,0.1753082275390625,0.0760345458984375
1776442201749472300,5.80347216796875,-0.968658447265625,0.1562042236328125,0.0586090087890625
1776442201774490400,5.828490478515625,-0.965179443359375,0.13458251953125,0.1229248046875
1776442201799507500,5.853507568359375,-1.017303466796875,0.18609619140625,0.18548583984375
1776442201824524300,5.878524169921875,-1.0165557861328125,0.131683349609375,0.1688690185546875
1776442201849541400,5.903541259765625,-1.0420684814453125,0.141845703125,0.131072998046875
1776442201874558500,5.928558349609375,-1.0209808349609375,0.153778076171875,0.1951141357421875
1776442201899576300,5.953576416015625,-1.0028533935546875,0.1330718994140625,0.140960693359375
1776442201924593400,5.978593505859375,-0.96319580078125,0.0997314453125,0.145416259765625
1776442201949610200,6.0036103515625,-0.9827423095703125,0.1136016845703125,0.1638946533203125
1776442201974627000,6.028626953125,-1.0256195068359375,0.150909423828125,0.166839599609375
1776442201999644200,6.05364404296875,-1.0135955810546875,0.1469268798828125,0.1811676025390625
1776442202024662000,6.078662109375,-1.03570556640625,0.121337890625,0.17242431640625
1776442202049679000,6.10367919921875,-1.0427703857421875,0.1817474365234375,0.224853515625
1776442202074696000,6.128696044921875,-0.99139404296875,0.1397857666015625,0.1485443115234375
1776442202099712800,6.153712646484375,-0.9759521484375,0.1160736083984375,0.169677734375
1776442202124731100,6.178731201171875,-0.8888092041015625,0.162109375,0.2748870849609375
1776442202149748000,6.203748046875,-0.9290008544921875,0.1608734130859375,0.2673797607421875
1776442202174764800,6.228764892578125,-0.934906005859375,0.113250732421875,0.291900634765625
1776442202199782000,6.253781982421875,-0.9221954345703125,0.09613037109375,0.3042449951171875
1776442202224799000,6.278799072265625,-0.844451904296875,0.0300140380859375,0.3189239501953125
1776442202249816800,6.30381689453125,-0.82000732421875,-0.0440826416015625,0.295806884765625
1776442202274834000,6.328833984375,-0.8494110107421875,-0.042938232421875,0.3384857177734375
1776442202299851000,6.35385107421875,-0.9171600341796875,-0.123046875,0.2886199951171875
1776442202324867800,6.378867919921875,-0.963958740234375,-0.1778411865234375,0.3151702880859375
1776442202349886000,6.403885986328125,-1.0473175048828125,-0.2274322509765625,0.2587738037109375
1776442202374903000,6.428903076171875,-0.84564208984375,-0.402069091796875,0.2981414794921875
1776442202399919900,6.453919921875,-0.8801422119140625,-0.276336669921875,0.476043701171875
1776442202424937000,6.47893701171875,-0.8214874267578125,-0.25,0.26019287109375
1776442202449954000,6.5039541015625,-0.9286651611328125,-0.15533447265625,0.2104034423828125
1776442202474972000,6.528971923828125,-0.960205078125,-0.15863037109375,0.2791900634765625
1776442202499989000,6.553989013671875,-0.911407470703125,-0.15411376953125,0.335906982421875
1776442202525006000,6.579006103515625,-0.889434814453125,-0.234832763671875,0.330291748046875
1776442202550023200,6.604023193359375,-0.92181396484375,-0.1065673828125,0.29693603515625
1776442202575041000,6.629041015625,-0.9455108642578125,-0.097900390625,0.3077850341796875
1776442202600058000,6.65405810546875,-0.910888671875,-0.16986083984375,0.3690643310546875
1776442202625075000,6.679074951171875,-0.8953857421875,-0.1381378173828125,0.3021240234375
1776442202650091800,6.704091796875,-0.976104736328125,-0.1051025390625,0.3319244384765625
1776442202675108900,6.72910888671875,-0.89776611328125,-0.1486663818359375,0.260711669921875
1776442202700127000,6.754126953125,-0.9605255126953125,-0.1268463134765625,0.3481292724609375
1776442202725143800,6.779143798828125,-1.0419464111328125,-0.12811279296875,0.327423095703125
1776442202750161000,6.804160888671875,-0.9806365966796875,-0.142608642578125,0.2772064208984375
1776442202775178000,6.829177978515625,-0.8887481689453125,-0.1657867431640625,0.362091064453125
1776442202800195800,6.85419580078125,-0.9161376953125,-0.144195556640625,0.399322509765625
1776442202825213000,6.879212890625,-0.97955322265625,-0.14190673828125,0.3379364013671875
1776442202850230000,6.90422998046875,-0.9129180908203125,-0.1367950439453125,0.227996826171875
1776442202875247000,6.9292470703125,-0.901123046875,-0.158599853515625,0.4390869140625
1776442202900265000,6.954264892578125,-0.92144775390625,-0.1187591552734375,0.3392181396484375
1776442202925282000,6.979281982421875,-0.8940887451171875,-0.120361328125,0.277923583984375
1776442202950299100,7.004299072265625,-0.9545135498046875,-0.184661865234375,0.3170013427734375
1776442202975315500,7.0293154296875,-0.86883544921875,-0.113922119140625,0.356842041015625
1776442203000333300,7.054333251953125,-0.9040374755859375,-0.096466064453125,0.32708740234375
1776442203025350400,7.079350341796875,-1.02777099609375,-0.0841827392578125,0.21575927734375
1776442203050367200,7.1043671875,-0.9541473388671875,-0.07073974609375,0.32421875
1776442203075384300,7.12938427734375,-0.9709014892578125,-0.0583953857421875,0.41485595703125
1776442203100401400,7.1544013671875,-0.907379150390625,-0.0046539306640625,0.3067474365234375
1776442203125419300,7.179419189453125,-0.9441070556640625,-0.1151885986328125,0.2411956787109375
1776442203150436400,7.204436279296875,-1.018310546875,-0.0870361328125,0.3295440673828125
1776442203175453400,7.229453369140625,-0.9812164306640625,-0.0970001220703125,0.318603515625
1776442203200470500,7.254470458984375,-0.912445068359375,-0.0995635986328125,0.3064422607421875
1776442203225488400,7.27948828125,-0.9281768798828125,-0.1700286865234375,0.358123779296875
1776442203250505500,7.30450537109375,-0.889404296875,-0.1997833251953125,0.2824249267578125
1776442203275522300,7.329522216796875,-0.9653472900390625,-0.17144775390625,0.29583740234375
1776442203300539100,7.3545390625,-0.794219970703125,-0.2053985595703125,0.36590576171875
1776442203325557200,7.37955712890625,-0.7656402587890625,-0.21185302734375,0.30987548828125
1776442203350574300,7.40457421875,-0.7823333740234375,-0.2146759033203125,0.5529327392578125
1776442203375591200,7.429591064453125,-0.7780609130859375,-0.27423095703125,0.5575408935546875
1776442203400608300,7.454608154296875,-0.651641845703125,-0.3181304931640625,0.608245849609375
1776442203425626400,7.47962646484375,-0.79937744140625,-0.4123077392578125,0.5942230224609375
1776442203450643200,7.504643310546875,-0.85821533203125,-0.4577178955078125,0.5581207275390625
1776442203475660300,7.529660400390625,-0.634918212890625,-0.454620361328125,0.700775146484375
1776442203500677400,7.554677490234375,-0.8356475830078125,-0.45703125,0.8495941162109375
1776442203525695200,7.5796953125,-0.88427734375,-0.502349853515625,0.5836639404296875
1776442203550712300,7.60471240234375,-0.68670654296875,-0.537933349609375,0.449371337890625
1776442203575729400,7.6297294921875,-0.550689697265625,-0.422027587890625,0.3915557861328125
1776442203600746500,7.65474658203125,-0.659515380859375,-0.412200927734375,0.4751129150390625
1776442203625764400,7.679764404296875,-0.75836181640625,-0.41168212890625,0.5260772705078125
1776442203650781400,7.704781494140625,-0.82452392578125,-0.4069671630859375,0.465667724609375
1776442203675798500,7.729798583984375,-0.8133087158203125,-0.3714599609375,0.36181640625
1776442203700816400,7.75481640625,-0.8797607421875,-0.3971405029296875,0.3441162109375
1776442203725833500,7.77983349609375,-0.9144134521484375,-0.352874755859375,0.4023590087890625
1776442203750850600,7.8048505859375,-0.834564208984375,-0.3598175048828125,0.3871002197265625
1776442203775867100,7.8298671875,-0.830718994140625,-0.3683624267578125,0.2584228515625
1776442203800885500,7.854885498046875,-0.8822479248046875,-0.380340576171875,0.2500152587890625
1776442203825902300,7.87990234375,-0.8993377685546875,-0.3364410400390625,0.359283447265625
1776442203850919200,7.904919189453125,-0.8613433837890625,-0.33648681640625,0.330078125
1776442203875936300,7.929936279296875,-0.8576507568359375,-0.313201904296875,0.2537841796875
1776442203900954400,7.954954345703125,-0.94927978515625,-0.3761444091796875,0.227325439453125
1776442203925971200,7.97997119140625,-0.9400177001953125,-0.370819091796875,0.263397216796875
1776442203950988300,8.00498828125,-0.9454803466796875,-0.346405029296875,0.2511444091796875
1776442203976006000,8.030005859375,-0.98699951171875,-0.2835845947265625,0.2854461669921875
1776442204001023700,8.055023681640625,-0.947723388671875,-0.279632568359375,0.326263427734375
1776442204026040800,8.080040771484375,-0.9520111083984375,-0.3641510009765625,0.2265472412109375
1776442204051058000,8.105057861328126,-0.9344329833984375,-0.3627777099609375,0.2234039306640625
1776442204076074800,8.13007470703125,-0.908172607421875,-0.2873992919921875,0.1645355224609375
1776442204101092900,8.1550927734375,-0.89239501953125,-0.2852935791015625,0.109466552734375
1776442204126110000,8.18010986328125,-0.8734588623046875,-0.33795166015625,0.1717376708984375
1776442204151126800,8.205126708984375,-0.9858856201171875,-0.25732421875,0.247039794921875
1776442204176145000,8.230144775390626,-1.038787841796875,-0.257415771484375,0.1623382568359375
1776442204201162000,8.255161865234374,-0.9023895263671875,-0.2418365478515625,0.1072235107421875
1776442204226178800,8.2801787109375,-0.9636383056640625,-0.229461669921875,0.1108856201171875
1776442204251196000,8.30519580078125,-0.9720916748046875,-0.141632080078125,0.1635589599609375
1776442204276213800,8.3302138671875,-0.9679718017578125,-0.1338958740234375,0.149688720703125
1776442204301230800,8.35523095703125,-0.9458160400390625,-0.1279296875,0.164093017578125
1776442204326248000,8.380248046875,-1.0551300048828125,-0.161865234375,0.0453948974609375
1776442204351265000,8.40526513671875,-0.8958282470703125,-0.1707763671875,0.1163177490234375
1776442204376283000,8.430282958984375,-0.8638458251953125,-0.16864013671875,0.1263580322265625
1776442204401300000,8.455300048828125,-0.9605560302734375,-0.169677734375,0.11407470703125
1776442204426317000,8.480317138671875,-1.03582763671875,-0.1149444580078125,0.1042633056640625
1776442204451335000,8.5053349609375,-1.195953369140625,-0.1112823486328125,0.157989501953125
1776442204476352000,8.53035205078125,-0.995147705078125,-0.20257568359375,0.1065521240234375
1776442204501368800,8.555368896484374,-0.9287567138671875,-0.2486572265625,0.11553955078125
1776442204526385700,8.5803857421875,-0.88653564453125,-0.2237701416015625,0.0216064453125
1776442204551403800,8.60540380859375,-0.9551849365234375,-0.1855316162109375,0.0648651123046875
1776442204576420900,8.6304208984375,-0.9782562255859375,-0.0977630615234375,-0.035491943359375
1776442204601437700,8.655437744140626,-0.972320556640625,-0.0910491943359375,-0.0298309326171875
1776442204626455800,8.680455810546874,-0.869415283203125,-0.23162841796875,0.0032196044921875
1776442204651473000,8.705472900390625,-1.0316314697265625,-0.193145751953125,-0.027984619140625
1776442204676489700,8.73048974609375,-1.01983642578125,0.0397491455078125,0.020294189453125
1776442204701506800,8.7555068359375,-1.0637054443359375,0.0550384521484375,0.0466461181640625
1776442204726525000,8.78052490234375,-1.08868408203125,-0.0540618896484375,0.0588836669921875
1776442204751541800,8.805541748046876,-0.9427032470703125,-0.090545654296875,-0.0705718994140625
1776442204776558800,8.830558837890624,-0.892913818359375,-0.15814208984375,-0.0725250244140625
1776442204801577000,8.855576904296875,-0.9364013671875,-0.0999603271484375,-0.064361572265625
1776442204826593800,8.88059375,-1.0225677490234375,0.0731658935546875,-0.0349884033203125
1776442204851611000,8.90561083984375,-1.06268310546875,0.0322418212890625,-0.031646728515625
1776442204876629000,8.93062890625,-1.0264434814453125,-0.0829925537109375,-0.0430145263671875
1776442204901645800,8.955645751953124,-1.0456390380859375,-0.02032470703125,-0.044677734375
1776442204926663000,8.980662841796875,-1.0198974609375,0.0835113525390625,-0.0424957275390625
1776442204951680000,9.005679931640625,-1.047698974609375,0.072174072265625,-0.021026611328125
1776442204976697000,9.030697021484375,-1.0328521728515625,0.0267333984375,-0.045379638671875
1776442205001714200,9.055714111328125,-0.9824371337890625,0.027496337890625,-0.056488037109375
1776442205026731300,9.080731201171876,-0.9463043212890625,0.0709228515625,-0.03778076171875
1776442205051749000,9.1057490234375,-0.987548828125,0.1045989990234375,-0.0308837890625
1776442205076766200,9.13076611328125,-1.00732421875,0.11785888671875,-0.0370941162109375
1776442205101783300,9.155783203125,-0.9930572509765625,0.086456298828125,-0.049224853515625
1776442205126801200,9.18080126953125,-0.9793243408203125,0.0786590576171875,-0.0211944580078125
1776442205151818200,9.205818359375,-0.977294921875,0.0171966552734375,0.0003509521484375
1776442205176835300,9.23083544921875,-1.0174560546875,0.0408172607421875,0.010772705078125
1776442205201852400,9.255852294921874,-0.9911346435546875,0.0674591064453125,0.003082275390625
1776442205226870300,9.280870361328125,-0.9665679931640625,0.0161590576171875,0.0262908935546875
1776442205251887400,9.305887451171875,-0.9620208740234375,0.003936767578125,-0.01544189453125
1776442205276904400,9.330904541015625,-0.9556732177734375,0.010223388671875,-0.0209503173828125
1776442205301922300,9.35592236328125,-0.9674072265625,0.1492462158203125,0.047760009765625
1776442205326939400,9.380939453125,-1.01922607421875,0.0618438720703125,0.058990478515625
1776442205351956500,9.40595654296875,-1.03350830078125,0.018829345703125,0.0567626953125
1776442205376974300,9.430974365234375,-0.95770263671875,-0.0333709716796875,0.0060882568359375
1776442205401991400,9.455991455078125,-0.942474365234375,-0.0240631103515625,-0.0520477294921875
1776442205427008300,9.48100830078125,-0.983612060546875,0.1136322021484375,0.023956298828125
1776442205452026400,9.5060263671875,-0.96722412109375,0.1604156494140625,0.1365509033203125
1776442205477043200,9.531043212890625,-0.9752349853515625,0.139404296875,0.0760650634765625
1776442205502060300,9.556060302734375,-0.962890625,0.097625732421875,0.0179595947265625
1776442205527077000,9.5810771484375,-0.9929656982421875,0.0709686279296875,0.062347412109375
1776442205552095200,9.60609521484375,-1.0094146728515625,0.074310302734375,0.100311279296875
1776442205577112300,9.6311123046875,-0.949005126953125,0.061614990234375,0.061737060546875
1776442205602129200,9.656129150390624,-0.9957733154296875,0.0893402099609375,0.12322998046875
1776442205627147300,9.681147216796875,-1.0872650146484375,0.1499176025390625,0.249786376953125
1776442205652164000,9.7061640625,-1.0605316162109375,0.0876312255859375,0.165008544921875
1776442205677181200,9.73118115234375,-0.989349365234375,0.0301361083984375,0.07318115234375
1776442205702199300,9.75619921875,-0.99505615234375,0.0484466552734375,0.064666748046875
1776442205727216000,9.781216064453124,-0.9821319580078125,0.0744171142578125,0.14239501953125
1776442205752233200,9.806233154296875,-1.0357818603515625,0.04913330078125,0.194610595703125
1776442205777251300,9.831251220703125,-0.9979400634765625,0.037261962890625,0.170654296875
1776442205802268200,9.85626806640625,-0.957672119140625,0.047332763671875,0.0330047607421875
1776442205827285200,9.88128515625,-0.9633636474609375,0.0409393310546875,0.001007080078125
1776442205852303400,9.906303466796874,-1.003326416015625,0.01324462890625,0.129150390625
1776442205877320200,9.9313203125,-0.9981842041015625,0.017913818359375,0.22930908203125
1776442205902337300,9.956337158203125,-1.03387451171875,0.053558349609375,0.228668212890625
1776442205927355400,9.98135546875,-0.9828033447265625,0.0446014404296875,0.130218505859375
1776442205952372200,10.006372314453126,-1.0216064453125,0.068389892578125,0.0772705078125
1776442205977390300,10.031390380859374,-1.10479736328125,0.0509185791015625,0.0667572021484375
1776442206002408200,10.056408203125,-0.9443511962890625,0.001800537109375,0.1069488525390625
1776442206027425300,10.08142529296875,-0.895050048828125,-0.0439300537109375,0.0878753662109375
1776442206052442400,10.1064423828125,-0.9076385498046875,-0.1010589599609375,0.1248626708984375
1776442206077460200,10.131460205078126,-1.04833984375,-0.083282470703125,0.136962890625
1776442206102477300,10.156477294921874,-1.00909423828125,-0.0625,0.10858154296875
1776442206127494400,10.181494384765625,-0.979583740234375,-0.0653228759765625,0.109893798828125
1776442206152512300,10.20651220703125,-1.0163116455078125,-0.0113677978515625,0.12359619140625
1776442206177529300,10.231529296875,-1.127838134765625,0.1737823486328125,0.2174530029296875
1776442206202546400,10.25654638671875,-1.10797119140625,0.2546844482421875,0.2934722900390625
1776442206227564300,10.281564208984374,-0.908935546875,0.0236358642578125,0.0931854248046875
1776442206252581400,10.306581298828124,-0.9853668212890625,0.0485687255859375,0.0403594970703125
1776442206277598500,10.331598388671875,-0.9833221435546875,0.0024871826171875,0.033050537109375
1776442206302616300,10.3566162109375,-1.043701171875,0.0041351318359375,0.128173828125
1776442206327633400,10.38163330078125,-0.9783782958984375,0.051361083984375,0.066131591796875
1776442206352650500,10.406650390625,-0.9657135009765625,0.0467376708984375,0.0367584228515625
1776442206377668400,10.43166845703125,-0.9543609619140625,-0.0446319580078125,0.025421142578125
1776442206402685400,10.456685546875,-0.9872894287109375,-0.072235107421875,0.0003662109375
1776442206427702500,10.48170263671875,-1.0056915283203125,-0.0423583984375,0.0627593994140625
1776442206452720400,10.506720458984375,-1.001312255859375,-0.03729248046875,0.1014404296875
1776442206477737500,10.531737548828126,-1.045806884765625,-0.0868682861328125,0.0026702880859375
1776442206502754600,10.556754638671874,-1.027374267578125,-0.123260498046875,-0.0069732666015625
1776442206527772400,10.5817724609375,-1.0169830322265625,-0.0706024169921875,-0.00970458984375
1776442206552789500,10.60678955078125,-0.975555419921875,-0.0491180419921875,-0.0203094482421875
1776442206577806300,10.631806396484375,-1.0088653564453125,-0.0421295166015625,-0.0162811279296875
1776442206602824400,10.656824462890626,-1.0009765625,-0.0570068359375,-0.0584869384765625
1776442206627841300,10.68184130859375,-0.9799652099609375,-0.00152587890625,-0.07720947265625
1776442206652858400,10.7068583984375,-0.95904541015625,0.005096435546875,-0.088043212890625
1776442206677876200,10.731876220703125,-1.0157470703125,-0.06146240234375,-0.037384033203125
1776442206702893300,10.756893310546875,-0.9955596923828125,-0.0291900634765625,0.0444793701171875
1776442206727910400,10.781910400390625,-1.0323486328125,-0.0470428466796875,0.0143585205078125
1776442206752928300,10.80692822265625,-0.9832000732421875,-0.075927734375,-0.0438995361328125
1776442206777945300,10.8319453125,-0.978759765625,-0.04949951171875,-0.0961456298828125
1776442206802962200,10.856962158203125,-0.9862213134765625,-0.073333740234375,-0.055572509765625
1776442206827980300,10.881980224609375,-0.9521942138671875,-0.0917205810546875,-0.0667877197265625
1776442206852997400,10.906997314453125,-0.93798828125,-0.036346435546875,-0.107666015625
1776442206878015200,10.93201513671875,-0.8954925537109375,-0.0493011474609375,-0.1397552490234375
1776442206903032300,10.9570322265625,-0.9825897216796875,-0.1204681396484375,-0.2213287353515625
1776442206928049400,10.98204931640625,-0.970245361328125,-0.276123046875,-0.1750335693359375
1776442206953067300,11.0070673828125,-0.9595489501953125,-0.2485504150390625,-0.21044921875
1776442206978084000,11.032083984375,-1.011505126953125,-0.1055145263671875,-0.132720947265625
1776442207003101200,11.05710107421875,-1.027587890625,-0.099639892578125,-0.0409698486328125
1776442207028119000,11.082119140625,-1.0980072021484375,-0.038726806640625,-0.0773468017578125
1776442207053136100,11.10713623046875,-1.037384033203125,0.0121612548828125,-0.1576080322265625
1776442207078153200,11.1321533203125,-1.0142974853515625,-0.074676513671875,-0.27545166015625
1776442207103171000,11.157171142578125,-1.006256103515625,-0.096466064453125,-0.239715576171875
1776442207128188200,11.182188232421876,-0.9467315673828125,-0.0555267333984375,-0.1363677978515625
1776442207153205200,11.207205322265626,-0.944549560546875,0.1062469482421875,-0.0781402587890625
1776442207178223000,11.23222314453125,-0.911468505859375,0.0753326416015625,-0.0991058349609375
1776442207203240200,11.257240234375,-0.89080810546875,0.003021240234375,-0.142242431640625
1776442207228258000,11.282258056640625,-0.9478607177734375,-0.0095977783203125,-0.255218505859375
1776442207253275100,11.307275146484375,-1.0195770263671875,0.0225830078125,-0.1971893310546875
1776442207278292200,11.332292236328126,-1.019317626953125,0.0355377197265625,-0.1635894775390625
1776442207303310000,11.35731005859375,-1.0370330810546875,0.0193939208984375,-0.131591796875
1776442207328327200,11.3823271484375,-0.9837799072265625,-0.002593994140625,-0.101165771484375
1776442207353344300,11.40734423828125,-0.9874267578125,-0.0074615478515625,-0.10198974609375
1776442207378362000,11.432362060546875,-1.0009307861328125,0.0215911865234375,-0.11578369140625
1776442207403379200,11.457379150390626,-0.9956207275390625,0.0432891845703125,-0.17193603515625
1776442207428396300,11.482396240234374,-0.986297607421875,0.0767364501953125,-0.125335693359375
1776442207453414100,11.5074140625,-0.9783477783203125,0.0521697998046875,-0.0809326171875
1776442207478431200,11.53243115234375,-1.054229736328125,0.10516357421875,-0.1133880615234375
1776442207503449000,11.557448974609375,-0.939697265625,0.1621551513671875,-0.004852294921875
1776442207528466200,11.582466064453126,-1.01495361328125,0.118988037109375,-0.0853424072265625
1776442207553483000,11.60748291015625,-0.968536376953125,0.0568695068359375,-0.080108642578125
1776442207578501000,11.632501220703125,-0.9647674560546875,-0.006011962890625,-0.0465850830078125
1776442207603518200,11.657518310546875,-0.9904937744140625,0.0296173095703125,-0.0007781982421875
1776442207628535000,11.68253515625,-1.044769287109375,0.102783203125,0.026275634765625
1776442207653553200,11.70755322265625,-0.9890289306640625,0.09033203125,-0.0135040283203125
1776442207678570000,11.732570068359376,-0.976318359375,0.0724639892578125,-0.05999755859375
1776442207703587000,11.757587158203124,-1.010162353515625,0.086456298828125,-0.0284271240234375
1776442207728605000,11.78260498046875,-0.9936981201171875,0.0615234375,0.006500244140625
1776442207753622000,11.8076220703125,-0.945648193359375,0.07000732421875,0.0000457763671875
1776442207778640100,11.83264013671875,-0.8647003173828125,0.0980072021484375,-0.0729217529296875
1776442207803657000,11.857656982421876,-0.9663848876953125,0.1040802001953125,-0.13287353515625
1776442207828674000,11.882674072265624,-0.9894256591796875,0.036590576171875,-0.0992431640625
1776442207853692200,11.907692138671875,-0.9392547607421875,-0.0309906005859375,-0.1271209716796875
1776442207878709000,11.932708984375,-0.9692840576171875,-0.0533294677734375,-0.0652313232421875
1776442207903726000,11.95772607421875,-1.02984619140625,-0.0189056396484375,-0.044281005859375
1776442207928744200,11.982744140625,-1.0704193115234375,-0.0004730224609375,-0.0851287841796875
1776442207953761000,12.007760986328124,-1.043121337890625,0.03424072265625,-0.14794921875
1776442207978779400,12.032779296875,-1.0167388916015625,0.073516845703125,-0.1408843994140625
1776442208003796200,12.057796142578125,-1.0180816650390625,0.007110595703125,-0.0890960693359375
1776442208028813000,12.08281298828125,-1.0697784423828125,-0.019866943359375,-0.054840087890625
1776442208053831200,12.1078310546875,-1.007537841796875,-0.0076141357421875,-0.03167724609375
1776442208078848000,12.132847900390624,-1.036895751953125,0.075897216796875,-0.125
1776442208103865000,12.157864990234375,-0.957305908203125,0.2117156982421875,-0.019622802734375
1776442208128883200,12.18288330078125,-0.9286346435546875,0.173583984375,0.0214080810546875
1776442208153900000,12.207900146484375,-1.0101470947265625,0.1696319580078125,0.066986083984375
1776442208178918100,12.232918212890626,-1.0832366943359375,0.1048583984375,-0.01153564453125
1776442208203935200,12.257935302734374,-0.945953369140625,0.045928955078125,-0.0562744140625
1776442208228952000,12.2829521484375,-0.886199951171875,0.0795745849609375,-0.057525634765625
1776442208253970200,12.30797021484375,-0.976409912109375,0.021697998046875,0.03814697265625
1776442208278987300,12.3329873046875,-0.990020751953125,0.035491943359375,0.0076904296875
1776442208304004000,12.358004150390625,-1.040313720703125,0.074951171875,-0.0875091552734375
1776442208329022200,12.383022216796874,-1.0316314697265625,0.1721038818359375,-0.071197509765625
1776442208354039300,12.408039306640624,-1.0091705322265625,0.1532135009765625,-0.0037078857421875
1776442208379057200,12.43305712890625,-0.9447021484375,0.1018524169921875,-0.0174102783203125
1776442208404074200,12.45807421875,-0.924652099609375,0.0814056396484375,-0.022674560546875
1776442208429091300,12.48309130859375,-0.9120941162109375,0.06561279296875,-0.09564208984375
1776442208454109200,12.508109130859374,-0.9838714599609375,0.08282470703125,-0.0555877685546875
1776442208479126300,12.533126220703124,-1.2896881103515625,0.0242919921875,0.0181121826171875
1776442208504143400,12.558143310546875,-0.964752197265625,0.038360595703125,-0.0428314208984375
1776442208529161200,12.5831611328125,-1.0380859375,0.0093994140625,-0.1054840087890625
1776442208554178300,12.60817822265625,-1.0496826171875,-0.0207672119140625,-0.0153350830078125
1776442208579196200,12.633196044921876,-1.1056976318359375,-0.01617431640625,-0.0753173828125
1776442208604213200,12.658213134765624,-0.9990081787109375,0.055877685546875,0.0324249267578125
1776442208629230300,12.683230224609375,-0.9890899658203125,0.0843505859375,0.087493896484375
1776442208654248200,12.708248291015625,-0.9675750732421875,0.0926971435546875,0.061370849609375
1776442208679265300,12.733265380859375,-1.0231781005859375,0.0782318115234375,0.0512237548828125
1776442208704282400,12.758282470703126,-1.0323028564453125,0.046417236328125,0.038604736328125
1776442208729300200,12.78330029296875,-1.0121612548828125,-0.044891357421875,0.042999267578125
1776442208754317300,12.8083173828125,-0.9312591552734375,0.0095672607421875,0.0337982177734375
1776442208779335200,12.833335205078125,-0.88604736328125,0.0247955322265625,-0.1055908203125
1776442208804352300,12.858352294921875,-0.96466064453125,0.0740203857421875,-0.1201629638671875
1776442208829369300,12.883369384765626,-1.0594635009765625,0.0607757568359375,-0.04010009765625
1776442208854387200,12.90838720703125,-0.983245849609375,0.1124114990234375,0.1159515380859375
1776442208879404300,12.933404296875,-0.980712890625,-0.0059356689453125,0.0496673583984375
1776442208904421400,12.95842138671875,-1.056488037109375,-0.0259552001953125,-0.087677001953125
1776442208929439200,12.983439208984375,-1.097686767578125,-0.0267181396484375,0.050323486328125
1776442208954456300,13.008456298828126,-1.05230712890625,-0.0260772705078125,-0.013580322265625
1776442208979474200,13.03347412109375,-0.9611358642578125,-0.0042572021484375,-0.008758544921875
1776442209004490800,13.05849072265625,-0.9483184814453125,-0.0381011962890625,-0.008056640625
1776442209029507800,13.0835078125,-1.0558624267578125,-0.028778076171875,0.02099609375
1776442209054526000,13.10852587890625,-1.0100555419921875,0.0292510986328125,0.0873260498046875
1776442209079542800,13.133542724609375,-1.010009765625,0.0663604736328125,0.07940673828125
1776442209104561000,13.158560791015624,-1.013153076171875,0.0105133056640625,0.0821685791015625
1776442209129578000,13.183577880859374,-0.9718780517578125,-0.0296478271484375,0.0382232666015625
1776442209154594800,13.2085947265625,-1.02838134765625,-0.1124114990234375,-0.08245849609375
1776442209179613000,13.233613037109375,-0.988311767578125,-0.0538787841796875,-0.0213623046875
1776442209204630000,13.258630126953125,-0.941680908203125,-0.0172882080078125,-0.0421295166015625
1776442209229646800,13.283646728515626,-0.9832305908203125,0.0645294189453125,0.0253448486328125
1776442209254665000,13.3086650390625,-0.966888427734375,0.0449676513671875,-0.0067596435546875
1776442209279682000,13.33368212890625,-1.0047454833984375,-0.012908935546875,0.050994873046875
1776442209304700000,13.358699951171875,-1.0582427978515625,0.003875732421875,0.1300201416015625
1776442209329717000,13.383717041015625,-0.98748779296875,-0.009613037109375,0.0729217529296875
1776442209354733800,13.40873388671875,-0.939300537109375,0.0014801025390625,0.020172119140625
1776442209379752000,13.433751953125,-0.9858856201171875,-0.0941009521484375,0.032989501953125
1776442209404769000,13.45876904296875,-1.0214691162109375,-0.0294189453125,0.1571502685546875
1776442209429787000,13.483786865234375,-0.9930877685546875,-0.03582763671875,0.1924591064453125
1776442209454804000,13.508803955078125,-1.020355224609375,-0.043487548828125,0.14935302734375
1776442209479821000,13.533821044921876,-1.0391387939453125,-0.0364532470703125,0.1694793701171875
1776442209504839000,13.5588388671875,-1.011566162109375,-0.038299560546875,0.1475830078125
1776442209529856000,13.58385595703125,-0.841461181640625,-0.0064697265625,0.1357574462890625
1776442209554873900,13.608873779296875,-0.9164581298828125,-0.0099639892578125,0.1081695556640625
1776442209579891000,13.633890869140625,-0.9066162109375,0.03643798828125,0.0769195556640625
1776442209604908000,13.658907958984376,-0.954315185546875,0.0110626220703125,-0.018157958984375
1776442209629926000,13.68392578125,-0.974456787109375,-0.0900115966796875,-0.000274658203125
1776442209654943000,13.70894287109375,-0.9930267333984375,-0.1191253662109375,0.0561676025390625
1776442209679960000,13.7339599609375,-1.036865234375,-0.0738372802734375,0.10821533203125
1776442209704978000,13.75897802734375,-1.01025390625,-0.1541900634765625,0.1477203369140625
1776442209729995000,13.7839951171875,-0.9724273681640625,-0.1371917724609375,0.154083251953125
1776442209755012900,13.809012939453124,-0.972503662109375,-0.16339111328125,0.079742431640625
1776442209780030000,13.834030029296875,-1.0118560791015625,-0.168212890625,0.138763427734375
1776442209805047000,13.859047119140625,-1.01995849609375,-0.181396484375,0.1763153076171875
1776442209830065000,13.88406494140625,-0.9981231689453125,-0.20794677734375,0.20086669921875
1776442209855082000,13.90908203125,-1.022430419921875,-0.173980712890625,0.2296295166015625
1776442209880100000,13.93410009765625,-0.9735565185546875,-0.2140655517578125,0.1599578857421875
1776442209905117000,13.959116943359374,-0.9430694580078125,-0.220367431640625,0.028289794921875
1776442209930134000,13.984134033203125,-0.92431640625,-0.1409759521484375,0.185394287109375
1776442209955152100,14.009152099609375,-1.0379638671875,-0.183441162109375,0.2192230224609375
1776442209980168400,14.03416845703125,-0.9783935546875,-0.1380462646484375,0.26904296875
1776442210005186300,14.059186279296876,-0.9044342041015625,-0.067169189453125,0.3553924560546875
1776442210030203400,14.084203369140624,-1.0253448486328125,-0.0330047607421875,0.347320556640625
1776442210055220500,14.109220458984375,-1.012939453125,-0.14202880859375,0.142578125
1776442210080238300,14.13423828125,-0.99847412109375,-0.2389984130859375,0.1925811767578125
1776442210105255400,14.15925537109375,-1.0114593505859375,-0.1690673828125,0.1953125
1776442210130272500,14.1842724609375,-1.0056610107421875,-0.1614990234375,0.1376190185546875
1776442210155290400,14.209290283203124,-0.9677581787109375,-0.2509307861328125,0.1322479248046875
1776442210180307500,14.234307373046875,-0.970977783203125,-0.196533203125,0.1508331298828125
1776442210205325300,14.2593251953125,-0.96234130859375,-0.15789794921875,0.1461944580078125
1776442210230342400,14.28434228515625,-0.967071533203125,-0.185943603515625,0.0611114501953125
1776442210255360300,14.3093603515625,-0.9410400390625,-0.2347869873046875,0.0884552001953125
1776442210280377300,14.33437744140625,-0.9568023681640625,-0.1634063720703125,0.111328125
1776442210305394400,14.35939453125,-0.96240234375,-0.12628173828125,0.089874267578125
1776442210330412300,14.384412353515625,-0.985687255859375,-0.1976776123046875,0.098114013671875
1776442210355429400,14.409429443359375,-0.9849700927734375,-0.127471923828125,0.08575439453125
1776442210380446500,14.434446533203126,-0.9472198486328125,-0.126983642578125,0.0831451416015625
1776442210405464300,14.45946435546875,-0.970550537109375,-0.164031982421875,0.0936126708984375
1776442210430481400,14.4844814453125,-0.9916534423828125,-0.193939208984375,0.0532379150390625
1776442210455499500,14.50949951171875,-1.0074920654296875,-0.08612060546875,0.089141845703125
1776442210480516400,14.534516357421875,-0.9438323974609375,-0.0893707275390625,0.0585479736328125
1776442210505533200,14.559533203125,-0.9865264892578125,-0.08880615234375,0.020294189453125
1776442210530551600,14.584551513671874,-0.9506988525390625,-0.0377349853515625,0.0179901123046875
1776442210555568000,14.609568115234374,-0.9637298583984375,-0.0362091064453125,0.010162353515625
1776442210580586500,14.63458642578125,-0.9883880615234375,-0.121185302734375,0.0123138427734375
1776442210605603300,14.659603271484375,-0.9793853759765625,-0.049041748046875,0.05615234375
1776442210630620200,14.6846201171875,-1.1111602783203125,-0.0293731689453125,0.0651397705078125
1776442210655638300,14.70963818359375,-0.9409027099609375,0.0183258056640625,0.0660400390625
1776442210680655400,14.7346552734375,-0.98175048828125,-0.040679931640625,-0.00653076171875
1776442210705673200,14.759673095703125,-0.968170166015625,0.0067138671875,-0.0343475341796875
1776442210730690300,14.784690185546875,-1.0186920166015625,0.0548553466796875,0.0389556884765625
1776442210755707100,14.80970703125,-1.05889892578125,0.13873291015625,0.2960968017578125
1776442210780725200,14.834725341796876,-0.988128662109375,0.09259033203125,0.2465667724609375
1776442210805742300,14.859742431640624,-0.978302001953125,0.057708740234375,0.050201416015625
1776442210830760200,14.88476025390625,-1.000030517578125,0.148651123046875,0.00042724609375
1776442210855777300,14.90977734375,-1.0245513916015625,0.174530029296875,0.102691650390625
1776442210880794400,14.93479443359375,-1.01922607421875,0.108856201171875,0.16796875
1776442210905812200,14.959812255859376,-1.0431671142578125,0.040679931640625,0.17095947265625
1776442210930829300,14.984829345703124,-0.985076904296875,0.0811920166015625,0.1481475830078125
1776442210955847200,15.00984716796875,-0.9062957763671875,0.1091156005859375,0.1348724365234375
1776442210980864500,15.034864501953125,-0.9716339111328125,0.044281005859375,0.0699462890625
1776442211005881600,15.059881591796875,-1.022705078125,-0.0061798095703125,0.067291259765625
1776442211030899500,15.0848994140625,-1.019989013671875,-0.059295654296875,0.0615386962890625
1776442211055916500,15.10991650390625,-0.98468017578125,-0.08099365234375,0.075469970703125
1776442211080934400,15.134934326171875,-1.006103515625,-0.1669158935546875,0.0588836669921875
1776442211105951500,15.159951416015625,-0.9907379150390625,-0.1292724609375,0.00921630859375
1776442211130968600,15.184968505859375,-1.00531005859375,-0.0065460205078125,0.0502166748046875
1776442211155986400,15.209986328125,-0.9988861083984375,-0.0707550048828125,0.0238037109375
1776442211181003500,15.23500341796875,-1.0456085205078125,-0.0871124267578125,-0.03118896484375
1776442211206021600,15.260021728515625,-1.00177001953125,-0.041748046875,-0.05877685546875
1776442211231038500,15.28503857421875,-0.9888763427734375,-0.019500732421875,0.0556182861328125
1776442211256055300,15.31005517578125,-1.0214385986328125,0.0243072509765625,0.063323974609375
1776442211281073700,15.33507373046875,-0.97735595703125,0.0529937744140625,0.0328521728515625
1776442211306090200,15.36009033203125,-1.03076171875,0.0014190673828125,0.02203369140625
1776442211331108600,15.385108642578125,-1.0058441162109375,-0.066192626953125,0.0373992919921875
1776442211356125400,15.41012548828125,-1.058746337890625,-0.048492431640625,0.0356292724609375
1776442211381142300,15.435142333984375,-0.970062255859375,-0.0783233642578125,-0.006134033203125
1776442211406160400,15.460160400390626,-0.9494171142578125,-0.075592041015625,0.0613250732421875
1776442211431177500,15.485177490234374,-0.972320556640625,-0.0860443115234375,0.02545166015625
1776442211456195300,15.5101953125,-0.9505157470703125,-0.152496337890625,-0.0050048828125
1776442211481212400,15.53521240234375,-0.9434661865234375,-0.1950531005859375,-0.0287017822265625
1776442211506229500,15.5602294921875,-1.0656585693359375,-0.0630340576171875,-0.0019683837890625
1776442211531247400,15.585247314453126,-1.036346435546875,-0.03594970703125,0.016632080078125
1776442211556264400,15.610264404296874,-1.024505615234375,-0.01788330078125,-0.0319671630859375
1776442211581282300,15.6352822265625,-0.975555419921875,-0.0145416259765625,-0.0613555908203125
1776442211606299400,15.66029931640625,-1.0048980712890625,-0.155059814453125,0.0184783935546875
1776442211631316500,15.68531640625,-1.03936767578125,-0.1498260498046875,-0.0110626220703125
1776442211656334300,15.710334228515626,-0.9735107421875,-0.1320037841796875,-0.0471649169921875
1776442211681351400,15.735351318359376,-0.9705047607421875,-0.1099700927734375,-0.0310211181640625
1776442211706369300,15.760369384765625,-0.993316650390625,-0.1236419677734375,-0.0048065185546875
1776442211731386400,15.785386474609375,-0.975799560546875,-0.1116485595703125,-0.04425048828125
1776442211756403500,15.810403564453125,-1.0232086181640625,-0.10247802734375,-0.035552978515625
1776442211781421300,15.83542138671875,-1.0470123291015625,0.0140380859375,0.1160736083984375
1776442211806438400,15.8604384765625,-1.021209716796875,0.00787353515625,-0.1240692138671875
1776442211831456500,15.88545654296875,-0.9674530029296875,-0.083526611328125,-0.1661834716796875
1776442211856473300,15.910473388671875,-1.07403564453125,-0.12274169921875,-0.0694122314453125
1776442211881491500,15.935491455078125,-0.99884033203125,-0.1475677490234375,-0.03369140625
1776442211906508500,15.960508544921876,-0.99932861328125,-0.0410003662109375,0.0211181640625
1776442211931525400,15.985525390625,-0.9842681884765625,-0.075103759765625,-0.0574493408203125
1776442211956543500,16.01054345703125,-0.9950103759765625,-0.130523681640625,-0.0558319091796875
1776442211981560600,16.035560546875,-0.9480743408203125,-0.0668792724609375,-0.087860107421875
1776442212006578400,16.060578369140625,-0.966156005859375,0.0075836181640625,-0.0700531005859375
1776442212031595500,16.085595458984375,-0.9834136962890625,0.0242767333984375,-0.0322418212890625
1776442212056612600,16.110612548828126,-0.9668731689453125,-0.0136260986328125,-0.1105194091796875
1776442212081630500,16.13563037109375,-0.94384765625,-0.1517181396484375,-0.123565673828125
1776442212106647600,16.1606474609375,-0.99346923828125,-0.255828857421875,-0.0845489501953125
1776442212131665400,16.18566552734375,-0.9391021728515625,-0.2530364990234375,-0.1027069091796875
1776442212156682500,16.2106826171875,-0.979095458984375,-0.209014892578125,-0.0948333740234375
1776442212181699300,16.23569921875,-0.96710205078125,-0.2120513916015625,-0.1273193359375
1776442212206717400,16.260717529296876,-1.017120361328125,-0.2224578857421875,-0.1145477294921875
1776442212231734300,16.285734375,-0.975433349609375,-0.2510986328125,-0.1813812255859375
1776442212256752400,16.31075244140625,-0.9688873291015625,-0.220245361328125,-0.184356689453125
1776442212281769200,16.335769287109375,-0.9851531982421875,-0.17218017578125,-0.228912353515625
1776442212306787600,16.36078759765625,-0.9402008056640625,-0.1435089111328125,-0.222930908203125
1776442212331804200,16.38580419921875,-0.982421875,-0.138671875,-0.1496734619140625
1776442212356821200,16.4108212890625,-1.0352935791015625,-0.0879669189453125,-0.183349609375
1776442212381839400,16.43583935546875,-1.03485107421875,-0.0550079345703125,-0.1391448974609375
1776442212406856200,16.460856201171875,-0.9418182373046875,-0.0388641357421875,-0.168548583984375
1776442212431874300,16.485874267578126,-0.9035186767578125,-0.021514892578125,-0.1724090576171875
1776442212456891400,16.510891357421876,-0.9449615478515625,-0.0217437744140625,-0.1392822265625
1776442212481908200,16.535908203125,-0.950836181640625,-0.0025787353515625,-0.1407318115234375
1776442212506926300,16.56092626953125,-0.9381561279296875,-0.0022430419921875,-0.1741790771484375
1776442212531943400,16.585943359375,-0.9592742919921875,-0.0495758056640625,-0.186676025390625
1776442212556961300,16.610961181640626,-0.988616943359375,-0.0787200927734375,-0.195892333984375
1776442212581978400,16.635978271484376,-1.0198211669921875,-0.0180816650390625,-0.179779052734375
1776442212606996200,16.660996337890627,-1.014434814453125,0.04083251953125,-0.1562347412109375
1776442212632013300,16.686013427734373,-1.0071868896484375,0.067962646484375,-0.1508636474609375
1776442212657030400,16.711030517578124,-0.9654083251953125,0.06951904296875,-0.215850830078125
1776442212682048300,16.73604833984375,-0.9253692626953125,-0.0338287353515625,-0.2811431884765625
1776442212707065300,16.7610654296875,-0.9512939453125,-0.0476837158203125,-0.2761077880859375
1776442212732083200,16.786083251953126,-0.9740753173828125,0.0052032470703125,-0.2362518310546875
1776442212757100300,16.811100341796877,-1.0142822265625,0.0406494140625,-0.2041778564453125
1776442212782118400,16.836118408203124,-0.9987030029296875,0.01983642578125,-0.1974639892578125
1776442212807135200,16.86113525390625,-0.991943359375,0.019500732421875,-0.22076416015625
1776442212832152300,16.88615234375,-0.97509765625,0.070404052734375,-0.1666412353515625
1776442212857170400,16.91117041015625,-0.9688262939453125,0.0537567138671875,-0.205780029296875
1776442212882187300,16.936187255859377,-0.95062255859375,0.0469970703125,-0.2448883056640625
1776442212907205400,16.961205322265624,-0.918304443359375,0.0027618408203125,-0.2643280029296875
1776442212932222500,16.986222412109374,-1.0008087158203125,0.0817413330078125,-0.26922607421875
1776442212957240300,17.011240234375,-0.9746551513671875,0.0758209228515625,-0.1930999755859375
1776442212982257400,17.03625732421875,-0.9594268798828125,0.017486572265625,-0.2075653076171875
1776442213007274500,17.0612744140625,-0.92254638671875,0.0193634033203125,-0.0579681396484375
1776442213032292400,17.086292236328124,-0.9899749755859375,0.0089569091796875,-0.0601348876953125
1776442213057309400,17.111309326171874,-1.0106353759765625,0.0596160888671875,-0.0989227294921875
1776442213082327300,17.136327392578124,-1.0275115966796875,0.0709075927734375,-0.0832061767578125
1776442213107344400,17.161344482421875,-1.0085906982421875,0.02667236328125,-0.08660888671875
1776442213132361500,17.186361572265625,-0.9942779541015625,-0.028778076171875,-0.097137451171875
1776442213157379300,17.21137939453125,-1.02099609375,-0.016082763671875,-0.0690460205078125
1776442213182396400,17.236396484375,-0.887481689453125,0.2076873779296875,0.09375
1776442213207414300,17.261414306640624,-0.918701171875,0.099517822265625,0.004974365234375
1776442213232431400,17.286431396484375,-0.985107421875,-0.0427703857421875,-0.1024932861328125
1776442213257449500,17.311449462890625,-1.0282440185546875,-0.0768890380859375,-0.1842193603515625
1776442213282466300,17.33646630859375,-0.9947509765625,-0.05743408203125,0.027252197265625
1776442213307483400,17.3614833984375,-0.9358367919921875,0.01263427734375,-0.000213623046875
1776442213332501500,17.38650146484375,-0.9169158935546875,-0.005645751953125,-0.1387176513671875
1776442213357518300,17.411518310546874,-0.9427947998046875,-0.0825347900390625,-0.198150634765625
1776442213382536400,17.436536376953125,-0.99761962890625,-0.18603515625,-0.127960205078125
1776442213407553500,17.461553466796875,-1.03863525390625,-0.1458740234375,-0.153900146484375
1776442213432571400,17.4865712890625,-1.053009033203125,-0.0955352783203125,-0.222869873046875
1776442213457588500,17.51158837890625,-1.0660858154296875,-0.0446624755859375,-0.17681884765625
1776442213482605300,17.536605224609374,-0.977264404296875,-0.042938232421875,-0.1116943359375
1776442213507623400,17.56162353515625,-0.860687255859375,-0.017181396484375,-0.0722198486328125
1776442213532640300,17.58664013671875,-1.0234832763671875,0.1258544921875,-0.18218994140625
1776442213557658400,17.611658447265626,-1.0956573486328125,0.0327301025390625,-0.2113037109375
1776442213582675200,17.63667529296875,-1.103851318359375,-0.0313262939453125,-0.201751708984375
1776442213607693300,17.661693359375,-0.987518310546875,0.059234619140625,-0.124114990234375
1776442213632710100,17.686710205078125,-0.9161529541015625,0.173858642578125,-0.0164031982421875
1776442213657727200,17.711727294921875,-1.0735015869140625,0.2079620361328125,0.0408172607421875
1776442213682745300,17.736745361328126,-1.0853424072265625,0.1911468505859375,0.0550689697265625
1776442213707762200,17.76176220703125,-1.015777587890625,0.2119293212890625,0.1208953857421875
1776442213732780300,17.7867802734375,-1.0785980224609375,0.0019073486328125,0.0428924560546875
1776442213757797000,17.811797119140625,-1.1595001220703125,-0.0482635498046875,0.02734375
1776442213782815200,17.836815185546875,-0.9906158447265625,0.0914154052734375,-0.1046295166015625
1776442213807832300,17.861832275390626,-0.884857177734375,0.097747802734375,-0.1971588134765625
1776442213832849200,17.88684912109375,-0.8747100830078125,0.172393798828125,0.001007080078125
1776442213857867300,17.9118671875,-0.9544525146484375,0.0848846435546875,-0.030853271484375
1776442213882884400,17.93688427734375,-1.0515594482421875,0.040924072265625,-0.0274810791015625
1776442213907902200,17.961902099609375,-1.080810546875,0.0249481201171875,0.0691986083984375
1776442213932919300,17.986919189453126,-1.1331787109375,0.0292816162109375,0.1287689208984375
1776442213957937200,18.011937255859376,-1.065155029296875,0.0022735595703125,0.071197509765625
1776442213982954500,18.03695458984375,-1.04791259765625,-0.0552215576171875,0.00238037109375
1776442214007971600,18.0619716796875,-0.9734039306640625,0.0167236328125,0.002593994140625
1776442214032989400,18.086989501953123,-0.8981475830078125,0.0239410400390625,-0.010345458984375
1776442214058006500,18.112006591796874,-0.94183349609375,-0.0402374267578125,-0.030792236328125
1776442214083024400,18.1370244140625,-1.01751708984375,-0.037353515625,-0.0456695556640625
1776442214108041500,18.16204150390625,-0.9187469482421875,0.0478668212890625,0.0389556884765625
1776442214133059600,18.1870595703125,-0.9709930419921875,0.1020965576171875,0.086639404296875
1776442214158076400,18.212076416015623,-0.900390625,0.081756591796875,0.030487060546875
1776442214183093500,18.237093505859374,-1.045867919921875,0.050567626953125,-0.0410919189453125
1776442214208111600,18.262111572265624,-0.9855804443359375,0.20343017578125,0.088714599609375
1776442214233128400,18.28712841796875,-0.9658050537109375,0.1953125,0.1546783447265625
1776442214258146600,18.312146484375,-0.988372802734375,0.068572998046875,0.0719146728515625
1776442214283163600,18.33716357421875,-0.9878387451171875,-0.007965087890625,0.112030029296875
1776442214308181500,18.362181396484374,-1.005340576171875,-0.0504150390625,0.177520751953125
1776442214333198600,18.387198486328124,-1.0162200927734375,0.0269927978515625,0.191650390625
1776442214358215700,18.412215576171874,-0.9796295166015625,0.038665771484375,0.1734466552734375
1776442214383233500,18.437233642578125,-0.9677276611328125,-0.0383148193359375,0.1313323974609375
1776442214408250600,18.462250732421875,-0.961151123046875,-0.1408538818359375,0.0460968017578125
1776442214433268500,18.4872685546875,-0.912689208984375,-0.056243896484375,0.0875091552734375
1776442214458285600,18.51228564453125,-0.927001953125,0.0325469970703125,0.166900634765625
1776442214483303400,18.537303466796875,-1.101531982421875,-0.0372314453125,0.1011962890625
1776442214508320500,18.562320556640625,-0.9595947265625,0.0642852783203125,0.2063446044921875
1776442214533337600,18.587337646484375,-1.087158203125,-0.0392913818359375,0.1266021728515625
1776442214558355500,18.61235546875,-0.914825439453125,0.0283966064453125,0.1986236572265625
1776442214583372500,18.63737255859375,-0.9747161865234375,-0.0087890625,0.2136077880859375
1776442214608390700,18.662390625,-0.9845733642578125,-0.0337066650390625,0.1579132080078125
1776442214633407500,18.687407470703125,-1.0022125244140625,-0.08612060546875,0.1995391845703125
1776442214658425600,18.712425537109375,-1.0134124755859375,-0.1270751953125,0.3306884765625
1776442214683442700,18.737442626953126,-1.0654449462890625,-0.185821533203125,0.2492218017578125
1776442214708460500,18.76246044921875,-1.1236724853515625,0.051483154296875,0.5025634765625
1776442214733477600,18.7874775390625,-1.0604095458984375,0.1436614990234375,0.446746826171875
1776442214758494700,18.81249462890625,-0.8445892333984375,-0.079986572265625,0.065887451171875
1776442214783512600,18.8375126953125,-0.828582763671875,-0.255279541015625,0.0983734130859375
1776442214808529700,18.86252978515625,-0.905517578125,-0.2192535400390625,0.2042236328125
1776442214833547500,18.887547607421876,-0.9953460693359375,-0.2027130126953125,0.254547119140625
1776442214858564600,18.912564697265626,-0.989501953125,-0.196075439453125,0.2310791015625
1776442214883582700,18.937582763671877,-1.0101165771484375,-0.28765869140625,0.283843994140625
1776442214908599600,18.962599609375,-1.00244140625,-0.2766571044921875,0.2467803955078125
1776442214933616400,18.987616455078125,-0.9459686279296875,-0.209075927734375,0.1950531005859375
1776442214958634500,19.012634521484376,-0.9776763916015625,-0.151153564453125,0.2003021240234375
1776442214983655200,19.0376552734375,-0.951324462890625,-0.076385498046875,0.260498046875
1776442215008673300,19.06267333984375,-1.04046630859375,-0.0922393798828125,0.2184295654296875
1776442215033690000,19.087690185546876,-0.99212646484375,-0.0454559326171875,0.2139739990234375
1776442215058708200,19.112708251953126,-0.8947601318359375,0.0584869384765625,0.1796875
1776442215083725300,19.137725341796877,-0.910797119140625,0.1246185302734375,0.1496124267578125
1776442215108743200,19.1627431640625,-0.9646148681640625,0.0081329345703125,0.1384124755859375
1776442215133760300,19.18776025390625,-0.9998779296875,-0.0011138916015625,0.21124267578125
1776442215158777300,19.21277734375,-0.9427947998046875,0.07525634765625,0.1367034912109375
1776442215183795200,19.237795166015626,-0.95013427734375,0.07244873046875,0.116485595703125
1776442215208812300,19.262812255859377,-1.010650634765625,-0.0622100830078125,-0.0413970947265625
1776442215233830100,19.287830078125,-1.0398712158203125,-0.104705810546875,0.2396392822265625
1776442215258847200,19.31284716796875,-0.97576904296875,0.0055694580078125,0.131439208984375
1776442215283865000,19.337864990234376,-1.00909423828125,0.1128997802734375,0.1385040283203125
1776442215308882200,19.362882080078126,-0.958038330078125,-0.00323486328125,0.104888916015625
1776442215333900300,19.387900390625,-0.96588134765625,-0.125946044921875,0.0602264404296875
1776442215358917000,19.412917236328123,-1.0070648193359375,-0.031646728515625,0.1167755126953125
1776442215383934200,19.437934326171874,-1.011627197265625,-0.0025634765625,0.07354736328125
1776442215408952300,19.462952392578124,-0.998779296875,0.0844268798828125,0.1102142333984375
1776442215433969200,19.48796923828125,-0.9790496826171875,0.0630340576171875,0.135467529296875
1776442215458987300,19.5129873046875,-1.0341796875,0.000213623046875,0.1145782470703125
1776442215484004400,19.53800439453125,-1.00384521484375,0.0428009033203125,0.1307220458984375
1776442215509022200,19.563022216796874,-1.016082763671875,0.0902099609375,0.102020263671875
1776442215534039300,19.588039306640624,-1.0021514892578125,0.034027099609375,0.0344390869140625
1776442215559057200,19.61305712890625,-0.986236572265625,-0.000518798828125,0.0962066650390625
1776442215584074200,19.63807421875,-0.9833984375,0.0377044677734375,0.170166015625
1776442215609091300,19.66309130859375,-0.9589996337890625,0.047698974609375,0.1026458740234375
1776442215634109200,19.688109130859374,-0.994964599609375,-0.02880859375,0.1199798583984375
1776442215659126300,19.713126220703124,-1.00537109375,0.006072998046875,0.242156982421875
1776442215684144400,19.738144287109375,-0.9720611572265625,0.2020111083984375,0.1411590576171875
1776442215709161200,19.7631611328125,-0.9958343505859375,0.1233673095703125,0.0566864013671875
1776442215734179300,19.788179443359375,-1.002410888671875,-0.02630615234375,0.146636962890625
1776442215759196200,19.813196044921874,-0.9826507568359375,-0.0501556396484375,0.22296142578125
1776442215784213200,19.838213134765624,-0.98712158203125,-0.0152130126953125,0.193359375
1776442215809231400,19.8632314453125,-0.9576416015625,-0.0199432373046875,0.11041259765625
1776442215834248200,19.888248291015625,-0.982452392578125,-0.028411865234375,0.121826171875
1776442215859266300,19.913266357421875,-0.9623870849609375,-0.0499267578125,0.14166259765625
1776442215884283400,19.938283447265626,-0.955230712890625,-0.0660247802734375,0.138946533203125
1776442215909301200,19.96330126953125,-0.947784423828125,-0.05572509765625,0.1068878173828125
1776442215934318300,19.988318359375,-0.964202880859375,-0.061614990234375,0.1020965576171875
1776442215959336200,20.013336181640625,-1.0074462890625,-0.072052001953125,0.12042236328125
1776442215984350200,20.03835009765625,-1.0031585693359375,-0.0640869140625,0.1472320556640625
1776442216009368000,20.0633681640625,-0.99481201171875,-0.0755615234375,0.1684417724609375
1776442216034385200,20.08838525390625,-1.027496337890625,-0.05303955078125,0.12054443359375
1776442216059402000,20.113402099609374,-1.057708740234375,-0.057525634765625,0.1294403076171875
1776442216084420000,20.138420166015624,-0.98541259765625,-0.0693817138671875,0.1033477783203125
1776442216109437000,20.16343701171875,-1.0200653076171875,-0.0410614013671875,0.1199798583984375
1776442216134455300,20.188455322265625,-0.993682861328125,-0.0908050537109375,0.097015380859375
1776442216159471900,20.213471923828124,-0.9463653564453125,-0.0858001708984375,0.074737548828125
1776442216184490200,20.238490234375,-1.0338287353515625,0.039794921875,0.0463104248046875
1776442216209507000,20.263507080078124,-1.02923583984375,0.0186920166015625,-0.01654052734375
1776442216234525200,20.288525146484375,-1.016326904296875,-0.086151123046875,0.043731689453125
1776442216259542000,20.3135419921875,-0.999725341796875,-0.0986785888671875,0.07958984375
1776442216284559000,20.33855908203125,-0.985504150390625,-0.0426483154296875,0.03955078125
1776442216309577000,20.363576904296874,-1.0027313232421875,-0.1063232421875,-0.0214996337890625
1776442216334594000,20.388593994140624,-1.000885009765625,-0.1292724609375,0.0833587646484375
1776442216359612000,20.41361181640625,-0.9803619384765625,-0.069427490234375,0.067169189453125
1776442216384629000,20.43862890625,-0.9907684326171875,-0.024993896484375,0.023162841796875
1776442216409647000,20.463647216796875,-0.9112548828125,-0.06451416015625,-0.02093505859375
1776442216434664000,20.488663818359374,-0.933319091796875,-0.1490631103515625,-0.043365478515625
1776442216459682000,20.51368212890625,-0.9972381591796875,-0.161468505859375,0.0328216552734375
1776442216484699100,20.53869921875,-1.043487548828125,-0.087738037109375,0.008331298828125
1776442216509716000,20.563716064453125,-1.02752685546875,-0.132354736328125,-0.0162353515625
1776442216534734000,20.588734130859375,-0.975006103515625,-0.09710693359375,0.0298919677734375
1776442216559751000,20.6137509765625,-0.9769744873046875,-0.0745086669921875,-0.0420684814453125
1776442216584769000,20.63876904296875,-0.9162445068359375,-0.04998779296875,-0.056549072265625
1776442216609786000,20.6637861328125,-0.966796875,-0.0241546630859375,-0.0250244140625
1776442216634804000,20.688803955078125,-0.9673309326171875,-0.049957275390625,-0.068084716796875
1776442216659821000,20.713821044921875,-0.925018310546875,-0.130859375,-0.1296844482421875
1776442216684839000,20.7388388671875,-0.9629058837890625,-0.13165283203125,-0.1929473876953125
1776442216709856000,20.76385595703125,-1.0707244873046875,-0.1116790771484375,-0.147247314453125
1776442216734873000,20.788873046875,-1.103057861328125,-0.1557464599609375,-0.0523681640625
1776442216759891000,20.813890869140625,-1.1013641357421875,-0.2074127197265625,-0.1552581787109375
1776442216784908000,20.838907958984375,-1.074005126953125,-0.202423095703125,-0.22747802734375
1776442216809926100,20.863926025390626,-0.9936676025390625,-0.102752685546875,-0.2447509765625
1776442216834943000,20.88894287109375,-1.0084075927734375,-0.05078125,-0.208984375
1776442216859961000,20.913961181640627,-0.96246337890625,-0.00177001953125,-0.1954803466796875
1776442216884978200,20.938978271484373,-0.9353485107421875,0.05145263671875,-0.22344970703125
1776442216909996000,20.96399609375,-0.9452056884765625,0.0613250732421875,-0.219879150390625
1776442216935013000,20.98901318359375,-0.9180450439453125,0.099517822265625,-0.223541259765625
1776442216960031000,21.014031005859376,-0.9373321533203125,0.0879058837890625,-0.2232208251953125
1776442216985047600,21.039047607421875,-0.9470672607421875,0.0751800537109375,-0.1828765869140625
1776442217010064600,21.064064697265625,-0.901336669921875,0.041595458984375,-0.191864013671875
1776442217035082500,21.08908251953125,-0.959259033203125,0.0506744384765625,-0.149169921875
1776442217060099600,21.114099609375,-0.9883575439453125,0.032684326171875,-0.1022186279296875
1776442217085117700,21.13911767578125,-0.96307373046875,0.0945281982421875,-0.0989990234375
1776442217110134500,21.164134521484375,-0.9459381103515625,0.0484771728515625,-0.1115875244140625
1776442217135152600,21.189152587890625,-0.9581146240234375,0.0205230712890625,-0.1345977783203125
1776442217160169700,21.214169677734375,-1.0308837890625,0.2294158935546875,-0.0601806640625
1776442217185187600,21.2391875,-0.9916229248046875,0.0382843017578125,-0.0647430419921875
1776442217210204700,21.26420458984375,-0.9380340576171875,-0.0922393798828125,-0.1274566650390625
1776442217235221500,21.289221435546875,-0.97454833984375,-0.0985565185546875,-0.1273651123046875
1776442217260239600,21.314239501953125,-1.02728271484375,-0.0010528564453125,-0.074676513671875
1776442217285256700,21.339256591796875,-1.0990142822265625,0.0503692626953125,-0.0573272705078125
1776442217310274600,21.364274658203126,-1.0777130126953125,0.0290374755859375,-0.0885772705078125
1776442217335291600,21.389291748046876,-0.9361114501953125,0.01751708984375,-0.0522918701171875
1776442217360309500,21.4143095703125,-1.01904296875,-0.00433349609375,0.0416259765625
1776442217385326600,21.43932666015625,-1.0849609375,0.034515380859375,0.12237548828125
1776442217410344700,21.4643447265625,-0.9182891845703125,0.0075836181640625,0.1152191162109375
1776442217435361500,21.489361572265626,-0.9491729736328125,-0.134674072265625,0.0317535400390625
1776442217460378600,21.514378662109376,-0.92974853515625,-0.12786865234375,-0.00616455078125
1776442217485396700,21.539396728515626,-0.972869873046875,-0.0352935791015625,0.04931640625
1776442217510413600,21.56441357421875,-0.9475250244140625,-0.027984619140625,0.060943603515625
1776442217535431700,21.589431640625,-0.933135986328125,-0.1748809814453125,0.01922607421875
1776442217560448800,21.61444873046875,-1.1348419189453125,-0.258392333984375,-0.042694091796875
1776442217585466600,21.639466552734376,-1.0716400146484375,-0.2960662841796875,-0.0933074951171875
1776442217610483700,21.664483642578126,-0.9956512451171875,-0.1734771728515625,-0.092193603515625
1776442217635501600,21.68950146484375,-0.939117431640625,-0.08221435546875,0.0068511962890625
1776442217660518700,21.7145185546875,-0.9196319580078125,-0.0918731689453125,0.0785980224609375
1776442217685535700,21.73953564453125,-0.9876861572265625,-0.0849456787109375,0.058502197265625
1776442217710553600,21.7645537109375,-0.9845428466796875,0.013580322265625,-0.0311126708984375
1776442217735570700,21.78957080078125,-1.0737457275390625,0.0470733642578125,-0.0391693115234375
1776442217760588500,21.814588623046873,-1.1126556396484375,0.0301055908203125,-0.0896453857421875
1776442217785605600,21.839605712890624,-0.964385986328125,-0.0589599609375,-0.1851806640625
1776442217810623700,21.864623779296874,-1.0296783447265625,-0.0704498291015625,-0.2610321044921875
1776442217835640600,21.889640625,-0.9923553466796875,-0.1287841796875,-0.2803802490234375
1776442217860658700,21.91465869140625,-0.943084716796875,-0.012847900390625,-0.353851318359375
1776442217885675800,21.93967578125,-0.9062042236328125,0.046417236328125,-0.40716552734375
1776442217910693600,21.964693603515624,-0.8664398193359375,-0.005645751953125,-0.3302459716796875
1776442217935710700,21.989710693359374,-0.765869140625,-0.0653076171875,-0.3984832763671875
1776442217960727800,22.014727783203124,-0.6634674072265625,-0.0171051025390625,-0.570343017578125
1776442217985746000,22.039745849609375,-0.7267608642578125,0.059967041015625,-0.6851806640625
1776442218010763000,22.064762939453125,-0.9809112548828125,-0.0245361328125,-0.6481170654296875
1776442218035780900,22.08978076171875,-0.91326904296875,-0.2794647216796875,-0.52569580078125
1776442218060798000,22.1147978515625,-0.674285888671875,0.010955810546875,-0.7790069580078125
1776442218085815800,22.13981591796875,-0.6841583251953125,0.0000762939453125,-0.7866058349609375
1776442218110833000,22.1648330078125,-0.69122314453125,-0.0135345458984375,-0.6456756591796875
1776442218135851000,22.18985107421875,-0.6200408935546875,0.1362457275390625,-0.600372314453125
1776442218160867800,22.214867919921875,-0.614501953125,0.2252655029296875,-0.745849609375
1776442218185886000,22.239885986328126,-0.5618743896484375,-0.0011444091796875,-0.8310546875
1776442218210903000,22.264903076171876,-0.56329345703125,-0.04351806640625,-0.8257904052734375
1776442218235920000,22.289919921875,-0.544219970703125,0.1511688232421875,-0.82342529296875
1776442218260938000,22.31493798828125,-0.473358154296875,0.1306610107421875,-0.9299163818359375
1776442218285955000,22.339955078125,-0.4521636962890625,0.052093505859375,-0.939117431640625
1776442218310973000,22.364972900390626,-0.4632110595703125,0.165283203125,-0.89599609375
1776442218335990000,22.389989990234376,-0.3839111328125,0.3137359619140625,-0.88128662109375
1776442218361007900,22.4150078125,-0.2950286865234375,0.2122955322265625,-0.959197998046875
1776442218386025000,22.44002490234375,-0.3660125732421875,0.0129852294921875,-1.058441162109375
1776442218411042800,22.465042724609376,-0.448760986328125,0.1404266357421875,-1.0462493896484375
1776442218436060000,22.490059814453126,-0.382415771484375,0.2052154541015625,-0.9430999755859375
1776442218461077000,22.515076904296876,-0.4090423583984375,0.1179656982421875,-0.8820953369140625
1776442218486094800,22.5400947265625,-0.4394073486328125,0.0758056640625,-0.8637847900390625
1776442218511112000,22.56511181640625,-0.3532257080078125,0.18505859375,-0.8406219482421875
1776442218536130000,22.590130126953124,-0.3448944091796875,0.020751953125,-0.928558349609375
1776442218561147000,22.61514697265625,-0.2855072021484375,-0.0596160888671875,-0.9820404052734375
1776442218586165000,22.6401650390625,-0.4057769775390625,0.0153656005859375,-0.9735870361328125
1776442218611182000,22.66518212890625,-0.3038787841796875,0.1470794677734375,-0.87054443359375
1776442218636200000,22.690199951171873,-0.3502349853515625,0.0977783203125,-0.9358978271484375
1776442218661217000,22.715217041015624,-0.3660430908203125,0.144989013671875,-0.9102935791015625
1776442218686235000,22.74023486328125,-0.2849884033203125,0.3123626708984375,-0.9308929443359375
1776442218711252000,22.765251953125,-0.2079315185546875,0.18267822265625,-0.971466064453125
1776442218736269800,22.790269775390627,-0.2624053955078125,0.163055419921875,-0.91485595703125
1776442218761287000,22.815286865234373,-0.275848388671875,0.0666351318359375,-0.9725494384765625
1776442218786304000,22.840303955078124,-0.2486724853515625,0.114166259765625,-0.9366302490234375
1776442218811321900,22.86532177734375,-0.3719635009765625,0.2183380126953125,-0.9265289306640625
1776442218836339000,22.8903388671875,-0.3599853515625,0.1683502197265625,-0.9175872802734375
1776442218861357000,22.915357177734375,-0.273712158203125,0.1592254638671875,-0.8760986328125
1776442218886374000,22.940373779296873,-0.244384765625,0.056121826171875,-0.96051025390625
1776442218911392000,22.96539208984375,-0.26165771484375,0.1856689453125,-1.0245819091796875
1776442218936409000,22.9904091796875,-0.2877655029296875,0.1644287109375,-0.929534912109375
1776442218961427000,23.015427001953125,-0.257720947265625,0.18896484375,-0.94427490234375
1776442218986443500,23.040443603515627,-0.2544403076171875,0.0915069580078125,-0.970001220703125
1776442219011460600,23.065460693359373,-0.27484130859375,-0.0038909912109375,-1.02496337890625
1776442219036478500,23.090478515625,-0.18023681640625,0.084503173828125,-0.9763641357421875
1776442219061495600,23.11549560546875,-0.0600738525390625,0.150421142578125,-1.015167236328125
1776442219086513400,23.140513427734376,-0.21966552734375,0.0890960693359375,-1.0293121337890625
1776442219111530500,23.165530517578127,-0.5050811767578125,0.0491180419921875,-0.913116455078125
1776442219136548600,23.190548583984373,-0.7354583740234375,0.0901641845703125,-0.8040008544921875
1776442219161565400,23.2155654296875,-0.128326416015625,0.136627197265625,-0.9181060791015625
1776442219186583600,23.24058349609375,-0.1038970947265625,0.12969970703125,-0.963653564453125
1776442219211600600,23.2656005859375,-0.2011871337890625,0.1084747314453125,-0.916290283203125
1776442219236618500,23.290618408203127,-0.310302734375,0.2181243896484375,-0.88720703125
1776442219261635600,23.315635498046873,-0.2707061767578125,0.1672515869140625,-0.943450927734375
1776442219286653400,23.3406533203125,-0.3169097900390625,0.1304931640625,-0.9979095458984375
1776442219311670500,23.36567041015625,-0.2201385498046875,0.1172637939453125,-0.99224853515625
1776442219336687600,23.3906875,-0.3681182861328125,0.10113525390625,-0.9676361083984375
1776442219361705500,23.41570556640625,-0.48565673828125,0.1793212890625,-0.898956298828125
1776442219386722600,23.44072265625,-0.4199066162109375,0.0955810546875,-0.9081878662109375
1776442219411740400,23.465740478515624,-0.3207244873046875,0.08782958984375,-0.982177734375
1776442219436757500,23.490757568359374,-0.7261962890625,0.051544189453125,-0.8474884033203125
1776442219461775600,23.515775634765625,-0.6638336181640625,0.2159881591796875,-0.7143402099609375
1776442219486792400,23.54079248046875,-0.15643310546875,0.132843017578125,-0.8827362060546875
1776442219511810600,23.565810546875,-0.1649169921875,-0.0261688232421875,-1.090179443359375
1776442219536827600,23.59082763671875,-0.3226470947265625,-0.077392578125,-1.03240966796875
1776442219561845500,23.615845458984374,-0.408416748046875,-0.1883544921875,-1.075592041015625
1776442219586862600,23.640862548828125,-0.3643951416015625,-0.1855316162109375,-1.113525390625
1776442219611880400,23.66588037109375,-0.2748565673828125,-0.1808319091796875,-1.0474853515625
1776442219636897500,23.6908974609375,-0.1957855224609375,-0.17327880859375,-0.971893310546875
1776442219661914400,23.715914306640624,-0.2350921630859375,-0.174224853515625,-1.0108642578125
1776442219686932500,23.740932373046874,-0.1807861328125,-0.238311767578125,-0.9994049072265625
1776442219711949300,23.76594921875,-0.1187744140625,-0.222015380859375,-0.9221649169921875
1776442219736967700,23.7909677734375,0.1125030517578125,-0.013671875,-0.8917388916015625
1776442219761984300,23.815984375,0.0599212646484375,0.0290679931640625,-0.9499664306640625
1776442219787002600,23.841002685546876,-0.1912689208984375,-0.05242919921875,-0.9361114501953125
1776442219812019500,23.86601953125,-0.1925048828125,-0.1224365234375,-0.9396209716796875
1776442219837037600,23.89103759765625,-0.091552734375,-0.0550689697265625,-0.915771484375
1776442219862054400,23.916054443359375,-0.0814056396484375,-0.05963134765625,-0.987945556640625
1776442219887072500,23.941072509765625,-0.265655517578125,-0.134674072265625,-1.0020904541015625
1776442219912089300,23.96608935546875,-0.143890380859375,-0.0809478759765625,-0.8541717529296875
1776442219937106400,23.9911064453125,-0.1404571533203125,-0.0552215576171875,-0.9149627685546875
1776442219962124300,24.016124267578125,-0.2198486328125,-0.104400634765625,-1.093536376953125
1776442219987141400,24.041141357421875,-0.2258758544921875,-0.1287689208984375,-0.999481201171875
1776442220012159200,24.0661591796875,-0.161865234375,-0.096435546875,-0.9064178466796875
1776442220037176300,24.09117626953125,-0.16766357421875,-0.0972900390625,-0.9920806884765625
1776442220062194400,24.1161943359375,-0.13970947265625,-0.129669189453125,-1.0735015869140625
1776442220087211300,24.141211181640625,-0.179046630859375,-0.160491943359375,-1.0222015380859375
1776442220112229400,24.1662294921875,-0.0394439697265625,-0.12469482421875,-0.9677886962890625
1776442220137246500,24.19124658203125,-0.115447998046875,-0.1362152099609375,-1.0006103515625
1776442220162264300,24.216264404296876,-0.15399169921875,-0.138641357421875,-1.01947021484375
1776442220187281400,24.241281494140626,-0.0828704833984375,-0.1495208740234375,-1.0528411865234375
1776442220212298500,24.266298583984376,-0.07666015625,-0.0990447998046875,-0.9295806884765625
1776442220237316400,24.29131640625,-0.130828857421875,-0.1556396484375,-1.018402099609375
1776442220262333400,24.31633349609375,-0.1403045654296875,-0.088043212890625,-1.0347137451171875
1776442220287351300,24.341351318359376,-0.07830810546875,-0.01422119140625,-1.0035858154296875
1776442220312368400,24.366368408203126,-0.1103668212890625,-0.129730224609375,-0.9508056640625
1776442220337386500,24.391386474609376,-0.078857421875,-0.15985107421875,-1.0500335693359375
1776442220362403300,24.4164033203125,-0.108367919921875,0.0342864990234375,-0.9963226318359375
1776442220387421400,24.44142138671875,-0.1110076904296875,-0.0091094970703125,-0.9849090576171875
1776442220412438300,24.466438232421876,-0.0835418701171875,-0.1213836669921875,-1.031036376953125
1776442220437456400,24.491456298828126,-0.0631561279296875,-0.1922149658203125,-1.0566558837890625
1776442220462473500,24.516473388671876,-0.0067138671875,-0.1385345458984375,-0.9131622314453125
1776442220487491300,24.5414912109375,-0.025909423828125,-0.1419525146484375,-0.97076416015625
1776442220512508400,24.56650830078125,0.02862548828125,-0.2414703369140625,-0.975006103515625
1776442220537525500,24.591525390625,-0.0489044189453125,-0.0262298583984375,-0.9208831787109375
1776442220562543400,24.61654345703125,0.0288238525390625,-0.077178955078125,-0.9679107666015625
1776442220587560400,24.641560546875,-0.00640869140625,-0.073699951171875,-0.9793548583984375
1776442220612578300,24.666578369140623,-0.044158935546875,-0.0408172607421875,-0.9887542724609375
1776442220637595400,24.691595458984374,-0.02459716796875,0.013397216796875,-1.02874755859375
1776442220662613500,24.716613525390624,-0.0131988525390625,-0.01861572265625,-1.0012359619140625
1776442220687630300,24.74163037109375,-0.019775390625,-0.13372802734375,-1.0227508544921875
1776442220712648400,24.7666484375,-0.0740966796875,-0.1415863037109375,-0.996307373046875
1776442220737665500,24.79166552734375,-0.0550994873046875,-0.031585693359375,-0.9592437744140625
1776442220762683400,24.816683349609374,-0.067291259765625,-0.054656982421875,-0.995819091796875
1776442220787700500,24.841700439453124,-0.16815185546875,0.0286712646484375,-0.9684600830078125
1776442220812718300,24.86671826171875,-0.2314910888671875,0.076629638671875,-0.992340087890625
1776442220837735400,24.8917353515625,-0.129547119140625,-0.0074310302734375,-1.015350341796875
1776442220862752500,24.91675244140625,-0.06597900390625,-0.18865966796875,-0.97418212890625
1776442220887770400,24.941770263671874,-0.0342864990234375,-0.094696044921875,-0.9349212646484375
1776442220912787500,24.966787353515624,-0.0729522705078125,-0.009674072265625,-0.965972900390625
1776442220937805300,24.991805419921874,-0.1560821533203125,-0.103271484375,-0.999603271484375
1776442220962822400,25.016822509765625,-0.125762939453125,-0.1000213623046875,-0.976104736328125
1776442220987840800,25.0418408203125,-0.1173095703125,-0.0762481689453125,-1.0122528076171875
1776442221012857900,25.06685791015625,-0.1290130615234375,-0.063079833984375,-1.0131683349609375
1776442221037876000,25.0918759765625,-0.0049591064453125,-0.1360931396484375,-0.9783477783203125
1776442221062892800,25.116892822265626,-0.1566009521484375,-0.0725555419921875,-0.93548583984375
1776442221087911000,25.141910888671877,-0.1532745361328125,0.0294342041015625,-1.1156768798828125
1776442221112928000,25.166927978515623,-0.2606048583984375,-0.0819244384765625,-0.99432373046875
1776442221137945900,25.19194580078125,-0.1916046142578125,-0.1425933837890625,-1.074127197265625
1776442221162963000,25.216962890625,-0.0929107666015625,-0.04107666015625,-1.0536956787109375
1776442221187980800,25.241980712890626,-0.07135009765625,-0.0869140625,-0.9679718017578125
1776442221212998000,25.266997802734377,-0.0613250732421875,-0.0893402099609375,-0.92449951171875
1776442221238016000,25.29201611328125,-0.14007568359375,-0.1168975830078125,-0.9688720703125
1776442221263032800,25.31703271484375,-0.03076171875,-0.10089111328125,-1.00030517578125
1776442221288051000,25.342051025390624,-0.0325775146484375,-0.1096343994140625,-1.07666015625
1776442221313068000,25.367068115234375,-0.123321533203125,-0.1758270263671875,-0.9693603515625
1776442221338086000,25.3920859375,-0.2787017822265625,-0.08221435546875,-0.9262237548828125
1776442221363103000,25.41710302734375,-0.165924072265625,-0.07757568359375,-1.0273895263671875
1776442221388120800,25.442120849609374,-0.141021728515625,-0.12286376953125,-0.9642181396484375
1776442221413138000,25.467137939453124,-0.2685699462890625,-0.018646240234375,-1.0160980224609375
1776442221438155000,25.492155029296875,-0.20306396484375,-0.0274505615234375,-0.9880218505859375
1776442221463172900,25.5171728515625,-0.21453857421875,-0.0855255126953125,-1.0075836181640625
1776442221488190000,25.54218994140625,-0.3042144775390625,0.006103515625,-0.9739227294921875
1776442221513207800,25.567207763671874,-0.267181396484375,0.02520751953125,-0.964324951171875
1776442221538225000,25.592224853515624,-0.293975830078125,0.0096893310546875,-0.9315948486328125
1776442221563243000,25.617242919921875,-0.286407470703125,-0.00677490234375,-0.931854248046875
1776442221588259800,25.642259765625,-0.312042236328125,0.01458740234375,-0.9935150146484375
1776442221613278000,25.66727783203125,-0.2631378173828125,-0.0852508544921875,-0.9072418212890625
1776442221638295000,25.692294921875,-0.30633544921875,-0.0786590576171875,-0.8966217041015625
1776442221663313000,25.71731298828125,-0.291748046875,-0.1198577880859375,-0.9927520751953125
1776442221688330000,25.742330078125,-0.283355712890625,-0.0847320556640625,-0.947540283203125
1776442221713347000,25.76734716796875,-0.262298583984375,-0.1431121826171875,-0.8570404052734375
1776442221738365000,25.792364990234375,-0.3386993408203125,-0.1086273193359375,-0.7895050048828125
1776442221763382000,25.817382080078126,-0.3060455322265625,-0.0844879150390625,-0.749908447265625
1776442221788399900,25.84239990234375,-0.29608154296875,-0.1620025634765625,-0.8854827880859375
1776442221813417000,25.8674169921875,-0.3310699462890625,-0.1670074462890625,-1.049957275390625
1776442221838434800,25.892434814453125,-0.1907806396484375,-0.153900146484375,-1.0492095947265625
1776442221863452000,25.917451904296875,-0.2087860107421875,-0.1595001220703125,-0.993743896484375
1776442221888470000,25.942469970703126,-0.28125,-0.099029541015625,-0.8878021240234375
1776442221913486800,25.96748681640625,-0.24310302734375,-0.1221923828125,-0.98291015625
1776442221938505000,25.9925048828125,-0.169464111328125,-0.068450927734375,-1.0527801513671875
1776442221963522000,26.01752197265625,-0.194580078125,-0.049041748046875,-0.8896026611328125
1776442221988538600,26.04253857421875,-0.173980712890625,-0.112823486328125,-0.86566162109375
1776442222013556700,26.067556640625,-0.1749114990234375,-0.1356201171875,-1.016082763671875
1776442222038573800,26.09257373046875,-0.1590423583984375,-0.0331573486328125,-1.118316650390625
1776442222063591700,26.117591796875,-0.114501953125,-0.0560455322265625,-1.1098785400390625
1776442222088608800,26.14260888671875,-0.1538238525390625,-0.1025238037109375,-1.0415191650390625
1776442222113626600,26.167626708984375,-0.0796051025390625,-0.1497955322265625,-1.0067138671875
1776442222138643700,26.192643798828126,-0.0225830078125,-0.09588623046875,-1.1290435791015625
1776442222163661800,26.217661865234376,-0.0724639892578125,0.0391845703125,-1.0688629150390625
1776442222188678700,26.2426787109375,0.0520172119140625,-0.063812255859375,-0.9018402099609375
1776442222213696800,26.26769677734375,0.083740234375,-0.0714874267578125,-0.9684906005859375
1776442222238713900,26.2927138671875,0.0162811279296875,-0.03509521484375,-1.09783935546875
1776442222263731700,26.317731689453126,-0.1458282470703125,0.005615234375,-1.0301361083984375
1776442222288748800,26.342748779296876,-0.2557525634765625,0.0614776611328125,-0.9469451904296875
1776442222313766000,26.367765869140626,0.003875732421875,-0.06195068359375,-0.874176025390625
1776442222338783700,26.39278369140625,-0.001953125,-0.00946044921875,-1.05181884765625
1776442222363800800,26.41780078125,-0.15142822265625,-0.0121917724609375,-1.01348876953125
1776442222388818700,26.442818603515626,-0.137664794921875,-0.0491485595703125,-0.8948211669921875
1776442222413835800,26.467835693359376,-0.0741119384765625,-0.0390472412109375,-0.974456787109375
1776442222438853600,26.492853515625,-0.1134033203125,-0.0247802734375,-1.051544189453125
1776442222463870700,26.51787060546875,-0.285797119140625,0.0131683349609375,-0.9802398681640625
1776442222488888800,26.542888916015624,-0.1448974609375,-0.0294036865234375,-0.91656494140625
1776442222513905700,26.56790576171875,-0.085845947265625,-0.0517425537109375,-0.9681243896484375
1776442222538923800,26.592923828125,-0.1705169677734375,-0.0391387939453125,-0.93841552734375
1776442222563940900,26.61794091796875,-0.0222015380859375,-0.027008056640625,-0.9755859375
1776442222588957700,26.642957763671873,-0.056304931640625,-0.038330078125,-0.96661376953125
1776442222613975800,26.667975830078124,-0.090087890625,-0.0306243896484375,-1.0016021728515625
1776442222638993000,26.692992919921874,-0.1497955322265625,-0.0630340576171875,-0.976654052734375
1776442222664010800,26.7180107421875,-0.32708740234375,-0.0767364501953125,-0.973114013671875
1776442222689027800,26.74302783203125,-0.4725494384765625,-0.036773681640625,-0.8330078125
1776442222714045700,26.768045654296873,-0.3658447265625,-0.0101165771484375,-0.95281982421875
1776442222739062800,26.793062744140624,-0.3242950439453125,0.0080413818359375,-1.083709716796875
1776442222764080600,26.81808056640625,-0.30035400390625,0.1335296630859375,-1.1619873046875
1776442222789097700,26.84309765625,-0.326446533203125,0.0423431396484375,-1.0448455810546875
1776442222814115800,26.86811572265625,-0.2135009765625,-0.005645751953125,-0.9941864013671875
1776442222839132700,26.893132568359373,-0.152618408203125,0.0405120849609375,-1.01470947265625
1776442222864150800,26.91815087890625,-0.2529296875,0.0502471923828125,-0.9693603515625
1776442222889168000,26.94316796875,-0.232818603515625,0.0688934326171875,-0.98272705078125
1776442222914184700,26.968184814453124,-0.1222686767578125,0.012939453125,-0.9071807861328125
1776442222939202800,26.993202880859375,-0.1739654541015625,0.0426788330078125,-1.000213623046875
1776442222964220000,27.018219970703125,-0.21551513671875,-0.0178680419921875,-0.9541473388671875
1776442222989241600,27.04324169921875,-0.162445068359375,-0.00262451171875,-0.9509429931640625
1776442223014258700,27.0682587890625,-0.0441436767578125,-0.029815673828125,-0.94488525390625
1776442223039276500,27.093276611328125,-0.010040283203125,0.0083160400390625,-1.0010833740234375
1776442223064293600,27.118293701171876,-0.1095123291015625,0.0650634765625,-0.9816436767578125
1776442223089311500,27.1433115234375,-0.0776824951171875,0.008819580078125,-0.9834747314453125
1776442223114328600,27.16832861328125,-0.025543212890625,0.0063323974609375,-0.9597625732421875
1776442223139346700,27.1933466796875,0.0207672119140625,0.0284423828125,-0.967041015625
1776442223164363500,27.218363525390625,0.0467681884765625,-0.2359161376953125,-0.56658935546875
1776442223189380600,27.243380615234376,0.0180816650390625,0.061004638671875,-1.2693939208984375
1776442223214398700,27.268398681640626,-0.13629150390625,0.1540374755859375,-1.1634063720703125
1776442223239415600,27.29341552734375,-0.076812744140625,-0.00299072265625,-1.1196746826171875
1776442223264433700,27.31843359375,-0.162811279296875,-0.088287353515625,-0.938079833984375
1776442223289450800,27.34345068359375,-0.1585845947265625,0.018218994140625,-1.014801025390625
1776442223314468600,27.368468505859376,-0.193756103515625,0.033172607421875,-0.9515380859375
1776442223339485700,27.393485595703126,-0.181671142578125,0.0867767333984375,-1.00360107421875
1776442223364503600,27.418503662109377,-0.113250732421875,0.0376129150390625,-0.9796600341796875
1776442223389520600,27.443520751953123,-0.127777099609375,0.0726318359375,-1.00140380859375
1776442223414538500,27.46853857421875,-0.1578369140625,0.0571441650390625,-1.020965576171875
1776442223439555600,27.4935556640625,-0.234710693359375,0.0639190673828125,-0.9819183349609375
1776442223464573700,27.51857373046875,-0.236846923828125,0.0232696533203125,-0.857879638671875
1776442223489590500,27.543590576171876,-0.0574188232421875,0.0604400634765625,-1.0533905029296875
1776442223514607600,27.568607666015627,-0.1102294921875,-0.0023193359375,-1.043426513671875
1776442223539625700,27.593625732421874,-0.108856201171875,-0.1554718017578125,-1.14410400390625
1776442223564642600,27.618642578125,-0.1760101318359375,-0.0348358154296875,-1.009674072265625
1776442223589660700,27.64366064453125,-0.19598388671875,-0.001495361328125,-0.884765625
1776442223614677800,27.668677734375,-0.235260009765625,-0.1336517333984375,-0.8178863525390625
1776442223639695600,27.693695556640623,-0.31378173828125,-0.1362762451171875,-0.671142578125
1776442223664712700,27.718712646484374,-0.3529815673828125,-0.04254150390625,-0.7934722900390625
1776442223689730600,27.74373046875,-0.1988372802734375,-0.0500640869140625,-0.9431915283203125
1776442223714747600,27.76874755859375,-0.0670013427734375,-0.211151123046875,-1.0595550537109375
1776442223739765800,27.793765869140625,-0.0654296875,-0.27911376953125,-1.064208984375
1776442223764782600,27.818782470703123,-0.1148681640625,-0.135986328125,-0.9428558349609375
1776442223789800700,27.84380078125,-0.01983642578125,-0.10760498046875,-0.89593505859375
1776442223814817800,27.86881787109375,0.0555877685546875,-0.19390869140625,-0.9539337158203125
1776442223839834600,27.893834716796874,0.0053253173828125,-0.346954345703125,-1.03448486328125
1776442223864852700,27.918852783203125,0.06854248046875,-0.280670166015625,-0.9873046875
1776442223889869600,27.94386962890625,0.0862274169921875,-0.201934814453125,-1.02850341796875
1776442223914887700,27.9688876953125,0.1517791748046875,-0.20965576171875,-1.05828857421875
1776442223939904800,27.99390478515625,0.15020751953125,-0.3771820068359375,-1.0430908203125
1776442223964922600,28.018922607421874,0.07220458984375,-0.28216552734375,-0.961334228515625
1776442223989936400,28.043936279296876,0.0369720458984375,-0.06396484375,-0.9707489013671875
1776442224014954500,28.06895458984375,0.146453857421875,-0.0727996826171875,-0.9698333740234375
1776442224039971300,28.093971435546877,0.4213104248046875,-0.2280120849609375,-0.8836517333984375
1776442224064989400,28.118989501953124,0.141632080078125,-0.21917724609375,-1.048797607421875
1776442224090006300,28.14400634765625,-0.0121307373046875,-0.07867431640625,-0.9854278564453125
1776442224115024600,28.169024658203124,0.1367950439453125,-0.3082427978515625,-1.1446075439453125
1776442224140041500,28.19404150390625,0.26239013671875,-0.2750091552734375,-0.950469970703125
1776442224165058300,28.219058349609377,0.3013458251953125,-0.245361328125,-0.8555450439453125
1776442224190076400,28.244076416015623,0.23779296875,-0.3651580810546875,-0.8944244384765625
1776442224215093200,28.26909326171875,0.25860595703125,-0.3795928955078125,-1.0421295166015625
1776442224240111400,28.294111328125,0.1750946044921875,-0.372589111328125,-1.0630645751953125
1776442224265128400,28.31912841796875,0.152496337890625,-0.27978515625,-0.99627685546875
1776442224290146300,28.344146240234377,0.238739013671875,-0.2110137939453125,-0.98162841796875
1776442224315163400,28.369163330078123,0.287933349609375,-0.1565093994140625,-0.984710693359375
1776442224340181200,28.39418115234375,0.274322509765625,-0.085174560546875,-0.9532318115234375
1776442224365198300,28.4191982421875,0.187835693359375,-0.02349853515625,-0.898834228515625
1776442224390216400,28.444216552734375,0.263427734375,-0.042694091796875,-0.9525604248046875
1776442224415233300,28.4692333984375,0.25396728515625,-0.0349884033203125,-1.049652099609375
1776442224440250400,28.49425048828125,0.27447509765625,-0.049285888671875,-1.0519256591796875
1776442224465268500,28.5192685546875,0.2200927734375,-0.017852783203125,-1.0328521728515625
1776442224490285300,28.544285400390624,0.35198974609375,0.0992889404296875,-0.9332122802734375
1776442224515303400,28.569303466796875,0.11663818359375,0.0225982666015625,-0.9733734130859375
1776442224540320500,28.594320556640625,0.25262451171875,-0.0367889404296875,-1.0546112060546875
1776442224565338400,28.61933837890625,0.3597564697265625,-0.2173614501953125,-1.038970947265625
1776442224590355500,28.64435546875,0.113555908203125,-0.253082275390625,-0.96282958984375
1776442224615373300,28.669373291015624,0.10400390625,-0.06982421875,-1.1025543212890625
1776442224640390400,28.694390380859375,0.216339111328125,0.0384521484375,-1.0247650146484375
1776442224665408300,28.719408203125,0.2950439453125,0.0643463134765625,-0.9684906005859375
1776442224690425300,28.74442529296875,0.35552978515625,-0.01116943359375,-0.8647918701171875
1776442224715443500,28.769443359375,0.27899169921875,-0.032318115234375,-0.958221435546875
1776442224740460300,28.794460205078124,0.3177337646484375,-0.054107666015625,-0.943206787109375
1776442224765477400,28.819477294921874,0.181732177734375,-0.069488525390625,-0.9330596923828125
1776442224790495500,28.84449560546875,0.0241546630859375,0.051300048828125,-0.974212646484375
1776442224815512300,28.86951220703125,-0.059326171875,-0.0580291748046875,-0.9947967529296875
1776442224840530400,28.894530517578126,-0.0148468017578125,-0.1576080322265625,-0.95745849609375
1776442224865547500,28.919547607421876,0.030517578125,-0.0433197021484375,-0.9645233154296875
1776442224890565400,28.9445654296875,0.074951171875,-0.0831298828125,-0.8899383544921875
1776442224915582500,28.96958251953125,0.0926055908203125,-0.053802490234375,-0.866790771484375
1776442224940600300,28.994600341796875,0.00152587890625,-0.0158538818359375,-0.97686767578125
1776442224965617400,29.019617431640626,-0.1775054931640625,-0.01593017578125,-1.0744476318359375
1776442224990635300,29.04463525390625,-0.19500732421875,0.002166748046875,-1.0220794677734375
1776442225015652000,29.069652099609375,-0.154144287109375,-0.027923583984375,-0.96917724609375
1776442225040669200,29.094669189453125,-0.076019287109375,-0.0718841552734375,-0.9822998046875
1776442225065687300,29.119687255859375,-0.162689208984375,-0.0776214599609375,-1.040985107421875
1776442225090704100,29.1447041015625,-0.21710205078125,-0.07568359375,-1.0091552734375
1776442225115722200,29.16972216796875,-0.1563873291015625,-0.056396484375,-0.967926025390625
1776442225140739300,29.1947392578125,-0.1719818115234375,-0.061981201171875,-0.9817962646484375
1776442225165757200,29.219757080078125,-0.244781494140625,0.0344085693359375,-1.015167236328125
1776442225190774300,29.244774169921875,-0.1574249267578125,0.05462646484375,-0.96343994140625
1776442225215792000,29.269792236328126,-0.1297454833984375,-0.0031280517578125,-0.93182373046875
1776442225240809200,29.294809326171876,-0.2081146240234375,0.00689697265625,-0.949798583984375
1776442225265827000,29.3198271484375,-0.204345703125,0.1028900146484375,-0.9681396484375
1776442225290844200,29.34484423828125,-0.1631927490234375,0.1945037841796875,-0.9858856201171875
1776442225315862300,29.3698623046875,-0.171722412109375,0.2089996337890625,-1.0140380859375
1776442225340879000,29.394879150390626,-0.1364288330078125,0.197296142578125,-1.0272369384765625
1776442225365897200,29.419897216796876,-0.1517181396484375,0.1550750732421875,-0.990478515625
1776442225390914300,29.444914306640626,-0.134918212890625,0.165374755859375,-0.9568939208984375
1776442225415931100,29.46993115234375,-0.0908355712890625,0.184417724609375,-0.9399871826171875
1776442225440949200,29.49494921875,-0.1204833984375,0.207061767578125,-0.9624481201171875
1776442225465966300,29.51996630859375,-0.2624053955078125,0.2494964599609375,-0.9046478271484375
1776442225490984200,29.544984130859376,-0.2197113037109375,0.2769927978515625,-0.97265625
1776442225516001300,29.570001220703126,-0.1745452880859375,0.2424774169921875,-0.9676971435546875
1776442225541019100,29.59501904296875,-0.18206787109375,0.1752166748046875,-0.9803466796875
1776442225566036200,29.6200361328125,-0.2172088623046875,0.1483612060546875,-0.9811553955078125
1776442225591054000,29.64505419921875,-0.2165374755859375,0.225616455078125,-0.98126220703125
1776442225616071200,29.6700712890625,-0.2305145263671875,0.2022705078125,-0.9976348876953125
1776442225641089300,29.69508935546875,-0.2228240966796875,0.133026123046875,-0.9307708740234375
1776442225666106000,29.720106201171873,-0.2239990234375,0.0684814453125,-0.8660125732421875
1776442225691123200,29.745123291015624,-0.1753387451171875,0.08258056640625,-0.8809814453125
1776442225716141300,29.770141357421874,-0.1993408203125,0.0935211181640625,-0.917633056640625
1776442225741158100,29.795158203125,-0.1895751953125,0.040252685546875,-0.9669189453125
1776442225766176300,29.82017626953125,-0.139617919921875,0.047576904296875,-0.98309326171875
1776442225791193300,29.845193359375,-0.1284027099609375,0.0737762451171875,-0.9970855712890625
1776442225816211200,29.870211181640624,-0.123565673828125,0.1145172119140625,-0.9990692138671875
1776442225841228300,29.895228271484374,-0.150848388671875,0.142059326171875,-1.0024261474609375
1776442225866246100,29.92024609375,-0.0820770263671875,0.0957183837890625,-1.0509033203125
1776442225891263200,29.94526318359375,0.0345611572265625,0.1022491455078125,-1.0053253173828125
1776442225916280000,29.970280029296877,-0.0849151611328125,0.015411376953125,-0.9676666259765625
1776442225941298200,29.995298095703124,-0.0683135986328125,0.110321044921875,-0.987823486328125
1776442225966315000,30.02031494140625,0.0377655029296875,0.15960693359375,-0.9851837158203125
1776442225991332900,30.045332763671876,0.0453643798828125,0.1229248046875,-0.9489593505859375
1776442226016349700,30.070349609375,0.0017852783203125,0.0405731201171875,-0.988250732421875
1776442226041367800,30.095367919921873,-0.0753326416015625,-0.037689208984375,-1.02825927734375
1776442226066385000,30.120385009765624,-0.0779266357421875,-0.093841552734375,-0.9864959716796875
1776442226091402800,30.14540283203125,-0.19561767578125,-0.0629730224609375,-1.0225830078125
1776442226116419800,30.170419921875,-0.2035064697265625,0.001007080078125,-0.98284912109375
1776442226141437700,30.195437744140627,-0.1954498291015625,0.0116729736328125,-0.9209136962890625
1776442226166454800,30.220454833984373,-0.2573394775390625,-0.0206146240234375,-0.9448089599609375
1776442226191471900,30.245471923828124,-0.2856903076171875,0.005645751953125,-0.9617767333984375
1776442226216489700,30.27048974609375,-0.2747344970703125,0.1107177734375,-0.96051025390625
1776442226241506800,30.2955068359375,-0.207672119140625,0.07733154296875,-0.9633331298828125
1776442226266524700,30.320524658203126,-0.1583251953125,-0.05975341796875,-1.0159149169921875
1776442226291541800,30.345541748046877,-0.251953125,-0.0244293212890625,-0.997772216796875
1776442226316560000,30.370559814453124,-0.3183441162109375,0.0511627197265625,-0.9736785888671875
1776442226341576700,30.39557666015625,-0.326812744140625,-0.006439208984375,-0.999114990234375
1776442226366594800,30.4205947265625,-0.2600860595703125,-0.0531768798828125,-0.977081298828125
1776442226391612000,30.44561181640625,-0.261077880859375,0.03033447265625,-0.9333343505859375
1776442226416629800,30.470629638671873,-0.1998138427734375,0.0599517822265625,-0.9005126953125
1776442226441646800,30.495646728515624,-0.2240753173828125,-0.0269317626953125,-0.9239501953125
1776442226466664700,30.520664794921874,-0.296783447265625,0.08074951171875,-0.9187774658203125
1776442226491681800,30.545681884765624,-0.3566741943359375,0.1058197021484375,-0.8872222900390625
1776442226516698600,30.57069873046875,-0.16265869140625,0.062469482421875,-1.0229644775390625
1776442226541716700,30.595716796875,-0.180908203125,0.033355712890625,-0.9801483154296875
1776442226566733600,30.620733642578124,-0.1726226806640625,0.0268707275390625,-0.93804931640625
1776442226591752000,30.645751953125,-0.3206024169921875,0.11138916015625,-0.9754180908203125
1776442226616768500,30.6707685546875,-0.4868011474609375,0.034820556640625,-0.996826171875
1776442226641787000,30.695786865234375,-0.4528350830078125,0.0475311279296875,-0.964324951171875
1776442226666803700,30.7208037109375,-0.4741668701171875,0.0753631591796875,-0.95916748046875
1776442226691821800,30.74582177734375,-0.767181396484375,0.4308624267578125,-0.747283935546875
1776442226716838700,30.770838623046874,-0.57568359375,0.20123291015625,-0.8384857177734375
1776442226741855700,30.795855712890624,-0.2951507568359375,-0.0982208251953125,-1.0262451171875
1776442226766873600,30.82087353515625,-0.290069580078125,-0.00640869140625,-1.03179931640625
1776442226791890700,30.845890625,-0.3559722900390625,0.06689453125,-0.969146728515625
1776442226816908500,30.870908447265624,-0.495086669921875,0.120330810546875,-0.7089385986328125
1776442226841925600,30.895925537109374,-0.4773406982421875,0.064453125,-0.88275146484375
1776442226866943500,30.920943603515624,-0.541015625,0.053924560546875,-0.9979095458984375
1776442226891960600,30.945960693359375,-0.5750579833984375,0.11395263671875,-1.0390167236328125
1776442226916978700,30.970978759765625,-0.4781341552734375,0.0998687744140625,-0.9430084228515625
1776442226941995500,30.99599560546875,-0.3439788818359375,-0.01507568359375,-0.863250732421875
1776442226967013600,31.021013671875,-0.3130340576171875,0.12738037109375,-0.8681640625
1776442226992031000,31.046031005859376,-0.24261474609375,0.290985107421875,-0.9617156982421875
1776442227017048800,31.071048828125,-0.4806671142578125,0.3129119873046875,-1.074371337890625
1776442227042066000,31.09606591796875,-0.45989990234375,0.1586456298828125,-1.0610504150390625
1776442227067083000,31.1210830078125,-0.3643646240234375,0.223785400390625,-0.9891357421875
1776442227092100900,31.146100830078126,-0.4140167236328125,0.2502899169921875,-0.9604644775390625
1776442227117118000,31.171117919921876,-0.5104522705078125,0.2691192626953125,-0.8017425537109375
1776442227142135800,31.1961357421875,-0.518768310546875,0.1228790283203125,-0.81500244140625
1776442227167153000,31.22115283203125,-0.554473876953125,0.0323944091796875,-0.7989501953125
1776442227192170800,31.246170654296876,-0.4260711669921875,0.1422882080078125,-0.831451416015625
1776442227217187800,31.271187744140626,-0.3771514892578125,0.15740966796875,-0.907806396484375
1776442227242206000,31.2962060546875,-0.354248046875,-0.0255889892578125,-0.8993988037109375
1776442227267222800,31.321222900390627,-0.4141998291015625,-0.0006561279296875,-0.8974761962890625
1776442227292240000,31.346239990234373,-0.4858856201171875,-0.04461669921875,-0.9981842041015625
1776442227317258000,31.371258056640624,-0.454986572265625,0.0032196044921875,-1.01837158203125
1776442227342274800,31.39627490234375,-0.331085205078125,0.0413970947265625,-0.9268951416015625
1776442227367293000,31.42129296875,-0.4049835205078125,-0.067596435546875,-0.86962890625
1776442227392310000,31.44631005859375,-0.373291015625,0.0597381591796875,-0.8771209716796875
1776442227417327900,31.471327880859373,-0.41864013671875,0.079864501953125,-0.9234771728515625
1776442227442345000,31.496344970703124,-0.41748046875,-0.112823486328125,-0.8627471923828125
1776442227467362800,31.52136279296875,-0.4278411865234375,-0.0570068359375,-0.89752197265625
1776442227492380000,31.5463798828125,-0.38897705078125,0.0283203125,-0.9390106201171875
1776442227517397800,31.571397705078127,-0.3490142822265625,-0.0828399658203125,-0.86456298828125
1776442227542414800,31.596414794921873,-0.462127685546875,-0.1129302978515625,-0.8519287109375
1776442227567432000,31.621431884765624,-0.4500885009765625,-0.0035247802734375,-0.8923492431640625
1776442227592449800,31.64644970703125,-0.3148651123046875,-0.057220458984375,-0.909515380859375
1776442227617467000,31.671466796875,-0.2938079833984375,-0.0803375244140625,-0.905426025390625
1776442227642485000,31.696485107421875,-0.31878662109375,-0.068115234375,-0.9196929931640625
1776442227667501800,31.721501708984373,-0.313995361328125,-0.0711517333984375,-0.9346923828125
1776442227692520000,31.74652001953125,-0.300262451171875,-0.06549072265625,-0.940460205078125
1776442227717537000,31.771537109375,-0.269500732421875,-0.0579376220703125,-0.963531494140625
1776442227742555000,31.796554931640625,-0.245330810546875,-0.0963897705078125,-0.9727020263671875
1776442227767572000,31.821572021484375,-0.2652740478515625,-0.0511474609375,-0.9860076904296875
1776442227792589000,31.846589111328125,-0.2292633056640625,-0.0488433837890625,-0.9794158935546875
1776442227817607000,31.87160693359375,-0.2888946533203125,-0.0424041748046875,-0.93902587890625
1776442227842624000,31.8966240234375,-0.3043212890625,-0.04156494140625,-0.9111175537109375
1776442227867641900,31.921641845703125,-0.3046722412109375,-0.0143280029296875,-0.9344329833984375
1776442227892659000,31.946658935546875,-0.278778076171875,-0.025421142578125,-0.933563232421875
1776442227917676800,31.9716767578125,-0.295013427734375,-0.0186920166015625,-0.9197235107421875
1776442227942694000,31.99669384765625,-0.332977294921875,-0.0180511474609375,-0.921356201171875
1776442227967712000,32.0217119140625,-0.3099212646484375,-0.02740478515625,-0.9127960205078125
1776442227992729300,32.04672924804687,-0.2623138427734375,-0.0050048828125,-0.9241180419921875
