time,seconds_elapsed,z,y,x
1776442196036807000,0.090806884765625,-0.08047229759693145,-0.15463438913375138,0.033392666978714985
1776442196061823700,0.11582373046875,-0.0008428805649280548,-0.16175561931580304,0.18380027786344288
1776442196086840800,0.1408408203125,-0.11170973190367221,-0.1994853382512927,0.19110859158281235
1776442196111857700,0.165857666015625,-0.04214461276829243,-0.13013035473525522,0.08680097089549527
1776442196136875800,0.190875732421875,-0.08786942211091518,-0.04128185845911503,-0.10360265075573698
1776442196161892600,0.215892578125,-0.17630466141104698,-0.009545534719526768,-0.19106723665911704
1776442196186909700,0.24090966796875,-0.06223404559493065,-0.03925269071906805,-0.06424160429136827
1776442196211926800,0.2659267578125,0.08630056535899638,-0.11920505609512329,-0.036826614349614824
1776442196236943600,0.290943603515625,0.15388123267889023,-0.026478549341857432,0.014470953624043614
1776442196261960700,0.315960693359375,0.09742810857295989,0.015601473757624626,0.16975878343153744
1776442196286977800,0.340977783203125,-0.0316582900673151,-0.11374883651584386,0.13299732500631362
1776442196311995000,0.365994873046875,-0.0696428605467081,-0.19866203916966915,0.03378218688610941
1776442196337011700,0.39101171875,-0.1911918494194746,-0.10887275491207837,0.0493321131195873
1776442196362028800,0.41602880859375,-0.20609014334380626,-0.0017182020947337149,0.03772201055306941
1776442196387046000,0.4410458984375,-0.29564649562835693,0.020147008232772348,-0.06358144161589444
1776442196412063700,0.466063720703125,-0.20626900704205034,-0.025601474246382712,-0.18927213340327143
1776442196437080800,0.491080810546875,-0.11938976501226424,-0.11798778925985097,-0.2546538293741643
1776442196462097700,0.51609765625,-0.03783142574429512,-0.1552434609428048,-0.2617666570540517
1776442196487114800,0.54111474609375,0.062248658642172806,-0.1082248123973608,-0.08314451248086989
1776442196512131600,0.566131591796875,0.09252981513738631,-0.11971359013915062,-0.06448679295778274
1776442196537148700,0.591148681640625,0.13758417787253857,-0.18075185007825492,-0.06896664178557693
1776442196562165800,0.616165771484375,0.09892740722000598,-0.20462299340069293,-0.11230009901225566
1776442196587182800,0.641182861328125,-0.10110358221530914,-0.21689839147552847,-0.22891133922189472
1776442196612199700,0.66619970703125,0.025732407149672506,-0.19132468201890587,-0.3149066380240023
1776442196637216800,0.691216796875,-0.14887188008427618,-0.28523031555414197,-0.23243264521583915
1776442196662235000,0.71623486328125,0.015178864431381224,-0.3542323939792812,-0.13585998442843555
1776442196687251700,0.741251708984375,0.08009002028107642,-0.07749269726425409,-0.31173136898875237
1776442196712268800,0.766268798828125,0.20527473530769347,-0.21354104387164113,-0.5671743029139935
1776442196737286000,0.791285888671875,-0.3415624436289072,0.04231733898669481,-0.7146331013299524
1776442196762302700,0.816302734375,-0.20008476544916629,0.49925300546288487,-1.791323152785003
1776442196787319600,0.841319580078125,-0.38122225384414193,-0.7306539695434272,-0.7021148344099521
1776442196812336600,0.866336669921875,-0.005218026909232139,-0.7750104862075299,-0.07551525971144438
1776442196837353700,0.891353759765625,0.24468495467603205,-0.6833965438060462,0.0015738251879811285
1776442196862370800,0.916370849609375,0.2788356460809707,-0.2750676718495786,0.16040055144503712
1776442196887388700,0.941388671875,0.24129063606262205,-0.4430195154570043,0.363370370811224
1776442196912405800,0.96640576171875,0.5446709408134222,-0.29568595085591076,0.32293183130845426
1776442196937422800,0.9914228515625,0.30151860253214835,-0.5752963807016611,0.017450754886120558
1776442196962439400,1.016439453125,0.061819619575142856,-0.661498015730828,0.16688479889780283
1776442196987456300,1.041456298828125,0.20764906322360038,0.12237287247627973,0.2545432086065411
1776442197012473300,1.066473388671875,-0.10739303774833679,0.07148615032583475,0.21249182707965372
1776442197037490400,1.091490478515625,-0.23270693211257457,-0.3278499984882772,0.22579802950695155
1776442197062507300,1.11650732421875,0.057169747942686075,-0.4409422707915306,-0.09825798352584242
1776442197087525400,1.141525390625,-0.263062907409668,-0.3587541091874242,-0.5523123954772949
1776442197112542200,1.166542236328125,0.270381121468544,-0.16601400741264222,-0.27134149093329907
1776442197137559300,1.191559326171875,0.36443829230368135,0.0844556681446731,0.28602102754041553
1776442197162576100,1.216576171875,-0.10752397065162658,-0.9431373210556805,-0.3400016240529716
1776442197187593200,1.24159326171875,0.35469255883693696,-0.6500586300887167,-0.3932841552987695
1776442197212610300,1.2666103515625,0.2528068863332271,-0.47236324497163296,-0.6614382483676076
1776442197237627400,1.29162744140625,0.22651450721323488,-0.1411516610957682,-0.612431494744867
1776442197262644200,1.316644287109375,-0.17349194207787513,0.13812369157671928,0.05859539683163166
1776442197287661300,1.341661376953125,-0.18828326849639415,0.6423758205011486,0.25346359667629004
1776442197312679200,1.36667919921875,-0.11578969469368457,1.038607135167718,-0.05305266801267862
1776442197337696300,1.3916962890625,0.4443915344625711,1.1716622913084924,-0.258197054938972
1776442197362713300,1.41671337890625,0.5249707995653152,-0.008365677285194396,-0.7040183299437165
1776442197387730400,1.44173046875,0.036812019568681714,-0.5790867128953338,-0.3625517479047179
1776442197412747300,1.466747314453125,-0.36618425918817515,-1.4421367901489137,-1.1320777382865548
1776442197437764000,1.49176416015625,-0.26972236529886723,-1.6384293237082659,-0.4675269108563661
1776442197462781200,1.51678125,-0.14680968685746193,-1.5877036373384297,-0.4954956987559795
1776442197487798300,1.54179833984375,-0.6093979722678661,-1.1829195983819663,-0.3247723446086049
1776442197512816000,1.566816162109375,-0.36484278145134447,-0.9428118884935974,-0.2721741423651576
1776442197537833200,1.591833251953125,-0.2958037320166826,-0.5526256992101669,-0.4450368466287851
1776442197562850300,1.616850341796875,0.23740356549620628,0.23900281738638876,1.2031778119042515
1776442197587867100,1.6418671875,0.4080290122270584,1.6903161628119647,2.142507995761931
1776442197612884200,1.66688427734375,0.6125865391761064,1.2130274441368878,0.7499588278636335
1776442197637901300,1.6919013671875,0.22137831336855887,-0.3402729883402586,-0.9374459775462746
1776442197662918400,1.71691845703125,0.31512861021161076,-0.45153906812965866,-0.8254384317398071
1776442197687935200,1.741935302734375,-1.3346049284517765,-0.09499693590328097,0.3170762371480465
1776442197712953300,1.766953369140625,-1.5515069731891153,-0.18546967238038778,0.33952450806051493
1776442197737970400,1.791970458984375,-0.23336802636981008,-0.23786431487575171,-0.513173102004826
1776442197762987300,1.8169873046875,-0.08635024971961974,-0.4032938734639436,-0.19793109454661606
1776442197788004000,1.842004150390625,-0.5242500840753317,-0.2842502915408462,0.7321149820066988
1776442197813021200,1.867021240234375,-0.4607014487504959,0.01050539272762835,0.6191320152968168
1776442197838038300,1.892038330078125,0.09098258569538593,0.27267010918855666,0.09971914211958646
1776442197863055000,1.91705517578125,0.30648586955070495,0.3994809641122818,0.2511512280806899
1776442197888073200,1.9420732421875,0.13761632657647133,0.8025852332882583,0.09187281253337859
1776442197913090300,1.96709033203125,0.2046586492359638,0.47906690732873974,-0.005087532397359609
1776442197938107100,1.992107177734375,0.43114860652983183,0.11224953786879777,-0.15105433868989349
1776442197963124200,2.017124267578125,0.576792172217369,0.3195828862067312,-0.14890139843970537
1776442197988141300,2.042141357421875,0.13777999270558355,-0.5210409858357161,-0.7168653904266655
1776442198013158400,2.067158447265625,-0.04757599016726017,-0.1750121373824775,-0.04092047780081629
1776442198038175200,2.09217529296875,-0.15294658217728138,0.012505334373190999,0.3534055877663195
1776442198063192300,2.1171923828125,-0.8527811966955662,-0.7558803268671035,-0.1475669349655509
1776442198088210400,2.14221044921875,0.04668927046060562,-0.5438817631971091,-0.2697568520903587
1776442198113227300,2.167227294921875,0.4697516011685133,-0.36500272125340993,-0.5161878467161208
1776442198138244000,2.192244140625,0.4119160827934742,-0.2965039161752909,0.23995003510862586
1776442198163261200,2.21726123046875,0.49382221258580683,-0.007186623568460345,0.16174436726942656
1776442198188278300,2.2422783203125,0.30155250480175017,0.49860973912328477,-0.36853228361904616
1776442198213295000,2.267295166015625,-0.09290858532190323,0.324124986615777,-0.7448110897116362
1776442198238312200,2.292312255859375,0.037998014482855794,-0.05355988688245415,0.09940598451718688
1776442198263330300,2.317330322265625,0.06793021140992642,0.07488324541822075,0.7431422797165811
1776442198288347100,2.34234716796875,0.40720308279693124,-0.41102505223788316,-0.46612296234257516
1776442198313364200,2.3673642578125,0.24302140537798403,-0.10059110264852643,-0.38903183161653576
1776442198338381300,2.39238134765625,-0.3833551742196083,1.0884966629743575,0.35802024195492266
1776442198363398400,2.4173984375,-0.17815408867001534,0.6795972245883196,-0.24427293980903922
1776442198388415200,2.442415283203125,-0.30172318519353863,-0.37802382312901317,0.009325462228059769
1776442198413432300,2.467432373046875,0.4304834206193685,-0.6495815140962601,0.1711959400951862
1776442198438449200,2.49244921875,0.29433424398601055,-0.42369171465262767,-0.6929022579718381
1776442198463467300,2.51746728515625,0.7322942840963602,-0.0673556263923645,-0.2584915078409016
1776442198488484000,2.542484130859375,-1.121368420484662,0.16099376809783278,0.019136442950740455
1776442198513501200,2.567501220703125,0.545803159713745,-0.4193833499342203,0.33175321647189554
1776442198538518300,2.592518310546875,0.45423137595355506,-0.32691567678023126,-0.2876141419507563
1776442198563535000,2.61753515625,0.49060675767064094,0.1360675262318924,-0.4372559834942221
1776442198588552200,2.64255224609375,0.00926876360476017,0.3280622529994696,-0.009909180400148033
1776442198613569300,2.6675693359375,-0.1347983465462923,0.20555325998812912,0.21443492397144437
1776442198638587100,2.692587158203125,-0.2271498825073242,-0.42228659709505734,0.2529975135345012
1776442198663604200,2.717604248046875,-0.2211287225216627,-0.5585744515467435,-0.239202870003134
1776442198688621300,2.742621337890625,-0.3552215511471033,0.011660407981649041,-0.3894013955812901
1776442198713638400,2.767638427734375,-0.21555764439105987,0.5282398843638598,-0.11861293542087077
1776442198738655200,2.7926552734375,-0.14408873746097087,0.11999674532893113,-0.11231799999512732
1776442198763672300,2.81767236328125,-0.16270166799426078,-0.03991250633466988,-0.31571598164550957
1776442198788689200,2.842689208984375,-0.036873978888988496,-0.2224445543605834,-0.2427627544417977
1776442198813707300,2.867707275390625,0.1644528955757618,-0.21075780636128036,-0.19643135750815272
1776442198838724000,2.89272412109375,0.12338146499693393,0.357101263946481,0.11835106961429119
1776442198863741200,2.9177412109375,0.12942074516117572,0.6486614766418933,-0.08558291860893369
1776442198888758300,2.94275830078125,0.006429156264662742,0.08975333616137504,-0.6912688846163452
1776442198913775000,2.967775146484375,0.059630585098266596,0.0603819879874587,-0.6307682386852801
1776442198938792200,2.992792236328125,0.023521160840988157,-0.11826368359178303,0.1813005700021982
1776442198963810300,3.017810302734375,-0.026979776862263678,-0.1600121366493404,0.45836131536513564
1776442198988828200,3.042828125,0.14313830486834048,-0.0829312350563705,-0.20493702778592704
1776442199013845200,3.06784521484375,0.21128654294312,-0.015248422536253928,-0.23013488966748116
1776442199038862000,3.092862060546875,-0.20844635108113288,0.1530959275200963,-0.214077488835901
1776442199063879000,3.11787890625,-0.024048399585485457,0.3266533360496163,-0.16501462111175058
1776442199088896000,3.14289599609375,0.07667465887963772,-0.13882131845206022,0.17046148834079503
1776442199113913000,3.1679130859375,0.12209960849285124,-0.05808847022280097,-0.20873042871952055
1776442199138930200,3.19293017578125,0.09824468565285205,0.0747404759466648,-0.3707303781852126
1776442199163948000,3.217947998046875,-0.12579437135756016,0.2323595799796283,0.08283581185787915
1776442199188965000,3.242965087890625,0.004401449829339981,0.08911723021492361,0.16557620051726699
1776442199213982200,3.267982177734375,-0.24411563035547731,0.23586378870829938,0.14495412211865186
1776442199238999000,3.2929990234375,-0.05710369696915149,0.21972674676924941,0.32033903833627697
1776442199264016100,3.31801611328125,-0.2799351317554712,0.12333864876851439,0.1153159397020936
1776442199289033200,3.343033203125,0.2032996358424425,0.1233151217624545,-0.090221538195014
1776442199314051000,3.368051025390625,0.21433891625106333,0.31119039397984744,-0.3697872521162033
1776442199339068200,3.393068115234375,0.4230278439164161,0.6110344874285161,-0.29050401817336674
1776442199364085200,3.418085205078125,0.19352818341255187,0.4464706788241863,-0.08299027176722884
1776442199389102000,3.44310205078125,0.23388883537352084,-0.3172621151089668,-0.15403686163201927
1776442199414119000,3.468118896484375,-0.199068866404891,0.4495193988703191,0.5308528433412313
1776442199439136000,3.493135986328125,-0.010046762239933013,0.8138963163755834,-0.2644705822505057
1776442199464153000,3.518153076171875,0.18952830012142657,0.526271068508923,-0.10553761913999915
1776442199489171000,3.5431708984375,-0.10831249068081378,-0.42967488071545956,0.11575126237943768
1776442199514188000,3.56818798828125,0.009786065477132797,-0.5696995836079121,0.2126090967837721
1776442199539205000,3.593205078125,-0.1291208854317665,-0.7402151402235031,0.21168672124184668
1776442199564222200,3.61822216796875,0.06400397787690162,-0.6488499849513173,0.23437106593251228
1776442199589239000,3.643239013671875,-0.20829145278036593,-0.2371086742028594,0.1692881337124854
1776442199614256000,3.668256103515625,-0.017583002963662147,-0.08068652486950159,-0.25709471972025927
1776442199639274200,3.693274169921875,0.22837971656322478,-0.09985314376279711,-0.3526655099887401
1776442199664291000,3.718291015625,-0.14702712900042533,0.44331499127224083,0.11689794819653034
1776442199689308200,3.74330810546875,-0.32875089285075665,1.0619488477885723,0.2564953655876219
1776442199714325200,3.7683251953125,-0.18381752125918865,1.3409687643952668,0.9236704040415584
1776442199739342000,3.793342041015625,0.07870879505574703,0.4199817542187869,0.9217653010725975
1776442199764359000,3.81835888671875,0.1356388890236616,0.277434547111392,0.27154260299596933
1776442199789377000,3.843376953125,0.25589666904211045,0.27177330647930503,-0.23282993743773547
1776442199814394000,3.86839404296875,0.14450374800264834,-0.14438742814660072,-0.023364582039788365
1776442199839411000,3.893410888671875,-0.294758606877923,0.013604016330093144,0.4143587997704744
1776442199864428000,3.918427978515625,0.16047171698510646,-0.47721726087406274,0.3711071756083518
1776442199889445000,3.943445068359375,0.1445791513264179,0.2958490324631333,-0.5386405015427619
1776442199914462200,3.968462158203125,-0.4563081822276115,0.22090485063791274,-0.09417992043197154
1776442199939480000,3.99347998046875,-0.18629530954957008,-0.36969855091944337,-0.17880650643045082
1776442199964496100,4.01849609375,0.1276215867847204,-0.3809048584580421,-0.22713313230192286
1776442199989513200,4.04351318359375,-0.18436112661659718,-0.572293984015286,0.3122095809597522
1776442200014530300,4.0685302734375,-0.5587795456647873,-0.2052075152903795,0.6815020352963358
1776442200039547100,4.093547119140625,-0.3370744845598936,0.4800546762570739,0.3570424829639494
1776442200064564200,4.118564208984375,-0.2643558698296547,0.6243281226351857,-0.0737007941680029
1776442200089582000,4.14358203125,-0.2492015553176403,0.8061370805509388,0.18558171792011707
1776442200114599200,4.16859912109375,-0.07302081254720687,0.7865830697752535,0.4507664763219654
1776442200139616300,4.1936162109375,0.2128594913482666,0.5517288965009153,-0.27076330745285376
1776442200164633300,4.21863330078125,0.08111994785070419,0.6988835974037647,-0.870975463425368
1776442200189650200,4.243650146484375,0.4501958368271589,0.9444225385606289,0.05886380197685211
1776442200214667300,4.268667236328125,0.5068225639343261,0.5119106808535754,0.5885950208770111
1776442200239685400,4.293685302734375,0.4747931024670601,0.08642331495583057,-0.37158838325403626
1776442200264702200,4.3187021484375,-0.0829933405071497,0.2010772836178541,-0.7649268990885466
1776442200289719300,4.34371923828125,-0.5309340918838977,0.26725772875100373,-0.025248751818574965
1776442200314736400,4.368736328125,-0.8767237978190183,0.07882197310663759,0.12061985479649155
1776442200339753200,4.393753173828125,0.13364976103305815,-0.12246391176059841,0.07764883767403662
1776442200364770000,4.41877001953125,0.12256021174192427,0.0552026856534183,-0.29352124710269273
1776442200389788200,4.4437880859375,-0.12313362771570682,0.24134857679493724,-0.5693899331368506
1776442200414805200,4.46880517578125,-0.3378583284139633,0.16001644749827681,-0.6872682706728577
1776442200439822000,4.493822021484375,0.05132511356770992,1.0269177933525293,-0.5457393006972968
1776442200464839200,4.518839111328125,0.21796061387956142,0.979293945455551,0.060968117312341925
1776442200489856300,4.543856201171875,-0.15859598624110222,-0.2674535801166668,0.17695464975237846
1776442200514873300,4.568873291015625,-0.356749491366744,-0.5842879348002373,0.06609174393638968
1776442200539891200,4.59389111328125,0.6371598394185304,-0.5737220805896446,0.16878551795259117
1776442200564908300,4.618908203125,0.14349252513349056,-1.1908832707375288,-0.4151119562253356
1776442200589925400,4.64392529296875,-0.979876129257679,-0.6896886296875775,-0.9217562409833073
1776442200614942200,4.668942138671875,-0.9531599717676639,-0.5318246109828353,0.4103831741377711
1776442200639959300,4.693959228515625,-0.14726210680007934,-0.758125548510626,0.7658581155240535
1776442200664976400,4.718976318359375,0.003081599402427673,-1.143509086752683,-0.08190963692367076
1776442200689994200,4.743994140625,-0.0746270787000656,-0.8755211440309881,-0.37521219977438447
1776442200715011300,4.76901123046875,0.12427987514138221,-0.4935656074762344,-0.3426163365960121
1776442200740028200,4.794028076171875,0.826727302506566,-0.3285910261139273,0.8993360271215438
1776442200765045200,4.819045166015625,0.7008662956535816,-0.24511852378770707,0.9050872841246426
1776442200790062000,4.84406201171875,-0.10135200401842594,-0.28675167990252376,0.04922667998373508
1776442200815080200,4.869080078125,-0.38817163459062576,-0.472814495870471,-0.25071941253468394
1776442200840097300,4.89409716796875,0.07789864771664143,-0.3386326737873256,0.48683235369846223
1776442200865114000,4.919114013671875,0.01097322943508625,-0.5103307181857526,0.599193827509135
1776442200890131200,4.944131103515625,0.08934826249182223,-0.4345173523105681,0.0903005947805941
1776442200915148300,4.969148193359375,0.4608353042632341,-0.5803622857891023,0.007721095771342516
1776442200940165400,4.994165283203125,0.5447668024033308,-0.4072891536451876,0.27911110202148554
1776442200965184500,5.0191845703125,0.16728665769696235,-0.20116203929185866,0.37673502542749043
1776442200990201300,5.044201416015625,0.2462520578622818,-0.18439122949391604,0.22429054755344985
1776442201015218200,5.06921826171875,0.19343875156342982,-0.16115969924926757,-0.0645998979434371
1776442201040235300,5.0942353515625,-0.25624855121970175,-0.45490737551897764,-0.44086087611839175
1776442201065252400,5.11925244140625,-0.2968938653409481,-0.29701705332919953,-0.6735851977571845
1776442201090270200,5.144270263671875,-0.8742688058823347,-0.11585779149383306,0.3019577246017754
1776442201115287300,5.169287353515625,-0.7925485540509224,0.09842983296141028,0.19922595666274429
1776442201140304400,5.194304443359375,-0.827228822287917,-0.1886319358035922,-0.056907370679453013
1776442201165321500,5.219321533203125,-0.47420507344603535,-0.7268975396193563,-0.6636917263828218
1776442201190338300,5.24433837890625,-0.3586135316729545,-0.8753587930761277,-0.6123319068279117
1776442201215355400,5.26935546875,-0.33738954185843467,-0.3398129696130752,-0.3728610335383564
1776442201240373200,5.294373291015625,0.3005085487067699,0.16428528392389416,0.25160629663811995
1776442201265390300,5.319390380859375,0.3106184393107891,0.1492864522345364,0.3817316281383857
1776442201290407400,5.344407470703125,0.2502583708941936,-0.12379589101672171,0.15694098557569086
1776442201315424500,5.369424560546875,0.07270633977055549,-0.12697510557472705,0.35248792493212966
1776442201340441300,5.39444140625,0.030921792486310003,-0.23953049452230332,0.43647034954186525
1776442201365459500,5.41945947265625,-0.007580079865455627,-0.05619345025643706,0.2557487850040197
1776442201390476300,5.444476318359375,-0.08418985681533812,0.07994111332967876,0.3597464081604034
1776442201415493400,5.469493408203125,0.004575637352466583,-0.17567425455302,0.13646262649670243
1776442201440510200,5.49451025390625,0.18415128325819968,-0.24408216647729275,-0.340262393881008
1776442201465527300,5.51952734375,0.17821312538087367,-0.15986352195888756,-0.4029946713216603
1776442201490545200,5.544545166015625,0.2651952432632446,0.20052929434627292,-0.036356677016615865
1776442201515562200,5.569562255859375,0.24092121822834014,0.21907748908028005,0.02738017435669899
1776442201540579300,5.594579345703125,-0.059174073502421376,-0.04745820900648832,0.4189163169443607
1776442201565596400,5.619596435546875,-0.18522972614467142,-0.1824428719051182,0.34590178800746796
1776442201590613200,5.64461328125,0.021162030494213103,-0.22090514289885757,0.25233583475537597
1776442201615631400,5.66963134765625,0.03605272563397884,-0.37436362012103197,0.18786248580105602
1776442201640648400,5.6946484375,0.00019347674548625944,0.13753726999089122,0.37357889948412776
1776442201665665300,5.719665283203125,0.25505846465229987,0.05636763777956366,0.47982254800163204
1776442201690682400,5.744682373046875,0.20247019928097723,-0.05524550188183784,0.037582857810705896
1776442201715699500,5.769699462890625,-0.04472995308637619,-0.04416749689802527,-0.05529189830683171
1776442201740717300,5.79471728515625,0.05124094241559505,-0.1035613506309688,-0.3329132732272148
1776442201765734400,5.819734375,0.14847791233062743,-0.26079320891201496,-0.18162410286813974
1776442201790751200,5.844751220703125,-0.2315682834714651,0.16811565586701036,0.6557372602470218
1776442201815768300,5.869768310546875,-0.363381476727128,0.06074789869040251,0.8190837289508431
1776442201840785200,5.89478515625,-0.4960825587332248,-0.3250803876444697,0.1922268184904009
1776442201865803300,5.91980322265625,-0.46797231653630733,0.06407222080752253,0.5432065673492849
1776442201890820400,5.9448203125,-0.1924421417415142,-0.0986649568915367,0.41323841743841766
1776442201915837200,5.969837158203125,0.023943185645341872,-0.5174161464020609,0.032772681050002576
1776442201940854300,5.994854248046875,0.11880933477580546,-0.5964679096765816,0.13750526741743088
1776442201965870800,6.019870849609375,-0.16404022312164307,-0.14732567355558276,0.11533245244547724
1776442201990889000,6.044888916015625,-0.5989560732305049,0.1749931404210627,-0.07090615848079324
1776442202015905800,6.06990576171875,-0.6317506738513707,-0.33761049113273617,-0.2618856803238392
1776442202040923000,6.0949228515625,-0.9838158067941665,0.2352968024753034,-0.15543065407797693
1776442202065940000,6.11993994140625,-0.46284722860753535,0.21901728332564233,-0.27979820750281215
1776442202090956800,6.144956787109375,-0.24885844096839427,-0.242714677516371,-0.8962615881122649
1776442202115975000,6.169974853515625,0.12311375397145748,-0.06753229813352227,-0.34222850632220503
1776442202140992000,6.194991943359375,0.026798575076460836,0.45819954893216486,-0.23871260226815938
1776442202166008800,6.2200087890625,-0.08936229101717472,0.4325354577783495,-0.28721739771813154
1776442202191026000,6.24502587890625,0.22504268109500408,0.6612768472608178,-0.0253057061702013
1776442202216044000,6.2700439453125,0.6488444319933653,0.5416608722772449,-0.45330812362879513
1776442202241060900,6.295060791015625,1.4757763171613216,0.03403287371154874,-0.09884878902584314
1776442202266078000,6.320077880859375,0.9466337848693132,0.1550773836608976,-0.079231065364182
1776442202291095000,6.345094970703125,0.21234861921668052,0.3691305417731404,-0.04389993200302124
1776442202316112100,6.370112060546875,-0.0015805471897125244,0.025892127756029365,-0.08313567158728838
1776442202341130000,6.3951298828125,-1.1977467267662285,-0.20842925381585956,-0.08846271182894706
1776442202366147000,6.42014697265625,-0.5487824677854776,-0.9786850197769701,-0.5971794189468026
1776442202391164200,6.4451640625,0.5165957699298859,-0.7790294395253062,1.4090794469386339
1776442202416180700,6.4701806640625,1.1839245376408098,-0.9047700348690152,0.6750973558858037
1776442202441199000,6.49519921875,0.22429975377321243,0.02863821159377694,-1.0669991169154642
1776442202466216000,6.5202158203125,-0.5641705910533666,-0.11719064753279089,-1.1351584609061478
1776442202491232800,6.545232666015625,-0.21716566410958765,0.06262786721810698,-0.22553484852612019
1776442202516249900,6.570249755859375,0.267025965821743,-0.33292233331650495,0.23732523956298826
1776442202541267000,6.595266845703125,0.18611819941699503,-0.14654796718135477,0.026880115880072115
1776442202566284800,6.620284912109375,-0.4188128565698862,0.318740663228929,-0.7513932445809245
1776442202591302000,6.645302001953125,0.10655307979285716,-0.3898183788843453,0.3129851684421301
1776442202616319000,6.670319091796875,0.6266302620977163,-0.5244014752447604,0.22775895431637763
1776442202641336000,6.695336181640625,-0.36861703929305073,0.31351087281666695,0.25696254470795393
1776442202666354000,6.72035400390625,0.15376491282284258,-0.4142323238465935,-0.3932783100798726
1776442202691371000,6.74537109375,-0.12649579762518406,0.09405088722482323,-0.1640451915577054
1776442202716388000,6.77038818359375,0.3853063082873821,-0.2288802134312689,-0.03152852620780468
1776442202741405000,6.795405029296875,-0.9385340650439262,0.04857742229476571,-0.2921595302954316
1776442202766422000,6.820422119140625,-0.1486830795139074,0.2301107781395316,-0.1808501958861947
1776442202791440100,6.845440185546875,0.137303607365489,0.023037176716327667,0.2340174301892519
1776442202816457000,6.87045703125,-0.12823475024700165,-0.1343378894276917,0.20258447331041096
1776442202841474000,6.89547412109375,-0.2150987947076559,-0.01783478576764464,-0.4940583594292402
1776442202866491100,6.9204912109375,0.5352566312581301,-0.29017522461041806,-0.19174802199751137
1776442202891509000,6.945509033203125,0.4807511340886354,0.27958821801394224,0.18285627501159904
1776442202916526000,6.970526123046875,0.07855681936442852,0.029437837538868188,-0.3220224613785744
1776442202941543000,6.99554296875,0.21894494874179363,-0.4831092415221035,0.03704962771683931
1776442202966559500,7.0205595703125,0.23944120880365372,-0.6200106247622519,0.10202595775723457
1776442202991577300,7.045577392578125,0.5679325739353895,-0.11505823861397803,0.43376258842051024
1776442203016594400,7.070594482421875,-0.2868102782219648,0.413371980690211,-0.7287064887374639
1776442203041611500,7.095611572265625,0.1123766713798046,-0.29319143062643704,-0.5603738291189074
1776442203066628400,7.12062841796875,-0.2970160304158926,-0.01116312598399818,0.5207601961329579
1776442203091646500,7.145646484375,0.11759411376714705,0.9648878189623356,0.07809592385441064
1776442203116663600,7.17066357421875,0.4822977790087461,-0.06394311453513801,-0.4171405394434929
1776442203141680000,7.19568017578125,-0.6937696153908968,-0.0853947025604546,-0.2036824976801872
1776442203166697200,7.220697265625,-0.6641559828937054,0.0273741830073297,0.35653555635511874
1776442203191715300,7.24571533203125,0.2299772148877382,0.30438970098905266,-0.40219899089932437
1776442203216732200,7.270732177734375,-0.3179389914572239,-0.2176262673586607,0.00772416451126337
1776442203241749200,7.295749267578125,0.4368447723448276,-0.45537499303072687,-0.4577864380866289
1776442203266766300,7.320766357421875,-0.6589180822402239,0.14844094132110475,-0.8717433790579437
1776442203291784200,7.3457841796875,0.31205402507185936,0.020237024603784085,0.03191811004728079
1776442203316801300,7.37080126953125,1.2221025848656892,-0.09960779069960117,-0.8353533842936157
1776442203341818400,7.395818359375,0.5839870521575212,0.3874195010490715,0.18923253204524515
1776442203366835500,7.42083544921875,0.764462277251482,0.45543081487119197,1.003080479234457
1776442203391853300,7.445853271484375,0.14508885441422462,0.4054369499072432,0.5791612394362687
1776442203416870400,7.470870361328125,1.2052075641661881,0.09385726434886454,0.6305728622436523
1776442203441887500,7.495887451171875,-1.4575737209945916,-0.2816591790691018,-0.8432055590987205
1776442203466904300,7.520904296875,-0.7055570838183164,-0.760137399789691,0.09237725492417811
1776442203491922400,7.54592236328125,-1.041697502398491,0.0971776409432292,2.0244003795146943
1776442203516939500,7.570939453125,-1.721833144712448,-0.33270985960960386,2.340111173528433
1776442203541956400,7.595956298828125,-0.6796411367952824,-0.7131994152650236,-0.6687059012830256
1776442203566973400,7.620973388671875,1.126122337013483,-0.5754515712633729,-1.1314923396140337
1776442203591991600,7.645991455078125,1.3974357708960772,-0.2390016483426094,-0.7441752760261297
1776442203617008400,7.67100830078125,0.7378273683041334,0.02459814242273569,0.3315191885203123
1776442203642025200,7.696025146484375,-0.12831833687722682,-0.26242490176707506,0.6168538412317633
1776442203667042300,7.721042236328125,0.13550970968604087,0.041508068430423734,0.10336159027516842
1776442203692060200,7.74606005859375,-0.16434943520128725,-0.2176642612814903,-0.6069789284273982
1776442203717077200,7.7710771484375,-0.5759340940833091,-0.03006400661319494,0.06715016694813966
1776442203742094300,7.79609423828125,0.10955459969639778,0.1608694841310382,0.6789356188744307
1776442203767111400,7.821111328125,0.2747334714591503,0.033357787461578844,0.005015490074455738
1776442203792129300,7.84612939453125,0.33715573310256003,-0.5322659250095486,-1.2641750091806054
1776442203817146400,7.871146484375,-0.1239712475836277,-0.05488660544157028,0.098996380802989
1776442203842163200,7.8961630859375,0.3321685923397541,-0.055007016950845714,0.7840908145681024
1776442203867180300,7.92118017578125,0.46281741799116133,0.18360504755228757,0.04268003481924534
1776442203892198400,7.946198486328125,-0.341889191365242,-0.27259236777722834,-0.3282356368049979
1776442203917215200,7.97121533203125,-0.2520277186542749,-0.4875841949790716,-0.14087386706769467
1776442203942232300,7.996232421875,-0.38123452880382536,-0.3652747431278229,0.043458325715363025
1776442203967250000,8.02125,-0.3149865713924169,-0.1085103513404727,-0.0544891305565834
1776442203992267800,8.046267822265625,-0.5190303036004305,0.3331462052002549,0.8826879669204354
1776442204017284900,8.071284912109375,-0.12159516610205173,-0.23198270949125288,0.5960048222094774
1776442204042302000,8.096302001953125,0.0899123261153698,-0.8008727302819489,-0.04992810625135898
1776442204067319800,8.12131982421875,0.06988192999958992,-0.6396475645810366,0.27940891592428085
1776442204092337000,8.1463369140625,0.7940659728765487,-0.3188178201183677,-0.5678220992982387
1776442204117354000,8.17135400390625,0.8066776171684265,-0.5417705431967973,-0.30942893726527687
1776442204142370800,8.196370849609375,0.05569675278067589,-0.1315498661443591,0.5081649184539914
1776442204167389000,8.221388916015625,-0.8840969569355249,-0.003934124578535557,0.7941869689077139
1776442204192406000,8.246406005859376,0.05937807164192199,-0.06488339105993508,-0.2751481897398829
1776442204217422800,8.2714228515625,0.45850247740149497,0.07430953718349337,-0.5154879548184573
1776442204242440000,8.29643994140625,0.04257014470398426,0.26621625687405465,0.2621779412686825
1776442204267458000,8.3214580078125,-0.29408056148588657,0.9235155057407916,0.2568529468536377
1776442204292475000,8.346474853515625,0.01643967814743519,0.778411453757435,0.3501792461309582
1776442204317491700,8.37149169921875,-0.08873392998576164,0.5434764703318476,-0.2725786315128207
1776442204342510000,8.396510009765626,0.005465279668569564,0.3004163403786719,-0.316547902425006
1776442204367526700,8.421526611328124,1.1429957304030656,0.012808920429646969,0.1321917442444712
1776442204392543700,8.446543701171874,0.6022095220685005,0.068194853695482,-0.12378230088278651
1776442204417560800,8.471560791015625,-0.27303309728205205,0.1921817372396588,-0.17852569846138358
1776442204442578700,8.49657861328125,-3.0481349397212267,0.8434902212589979,0.4260192808173597
1776442204467595800,8.521595703125,-1.2838456320732832,0.15650544370263814,0.181624541259557
1776442204492612900,8.54661279296875,0.38277766659259793,-1.0844400810599326,0.05078465001545846
1776442204517630700,8.571630615234374,0.8953425735712051,-0.7344105455979705,0.02924099979251623
1776442204542647800,8.596647705078125,0.41107612483799455,-0.697655809174478,-0.18020992522127927
1776442204567665000,8.621664794921875,0.12327917366623878,0.1659010485574603,-0.1462079946372658
1776442204592682000,8.646681884765625,0.2726607568383217,0.30441096297278997,-0.4186113426484167
1776442204617699800,8.671699951171876,0.44540100376605984,0.2650641642294824,0.05650313726011663
1776442204642717000,8.696717041015624,-1.1916869883358479,-1.742355708259344,-0.43753410631585865
1776442204667734000,8.721734130859375,0.14042846138775347,0.44696028897203505,0.08848155352673492
1776442204692752000,8.746751953125,-0.306722600916028,1.8549071516841649,0.32654304407555607
1776442204717769000,8.77176904296875,-1.0013584777474402,0.3349981897424906,0.400712076809816
1776442204742786000,8.7967861328125,0.25339491535425185,-0.19047456799559295,-0.0966806603396777
1776442204767803000,8.821802978515626,0.7715414218574762,-0.9331393663935362,-0.7910085580673069
1776442204792821000,8.846821044921874,0.6425964775145053,-1.2150535431370137,-0.6693322895530611
1776442204817838000,8.871838134765625,0.40659751811921596,0.1016870903248433,-0.35440033442471175
1776442204842855000,8.89685498046875,-0.4373638277828693,0.7972834736183285,-0.22892967859618366
1776442204867873000,8.921873046875,-0.5405401246190071,-0.3186507929883897,-0.22738082345267757
1776442204892889900,8.946889892578126,-0.35563422360122204,-0.6262863440308719,-0.12884398645283654
1776442204917906700,8.97190673828125,-0.20036884308755396,0.3602694456538185,-0.18935621322384102
1776442204942923800,8.996923828125,-0.47015433675050733,0.601267711173743,-0.029666221200954166
1776442204967941400,9.02194140625,-0.5252899485170841,0.19319179106503723,0.15375099389534444
1776442204992958200,9.046958251953125,0.018766075268387795,-0.4336596029700711,-0.2931576014220714
1776442205017975300,9.071975341796875,0.2977244709461927,-0.0750894720474258,-0.12701580291129647
1776442205042993400,9.096993408203126,0.6027975510895252,0.28197007164917887,0.1457414731040597
1776442205068010200,9.12201025390625,-0.22944413092434404,0.47058754053600127,-0.034016854158509524
1776442205093027300,9.14702734375,-0.15077332979142666,0.15868139950223267,-0.30115431753071026
1776442205118045400,9.17204541015625,0.2416068624049425,0.08969356879815459,-0.23424009649660438
1776442205143062300,9.197062255859375,0.18769816208481788,-0.38065329484976823,0.01058141710590571
1776442205168079000,9.2220791015625,-0.0840384656459093,-0.5387068447772413,0.17967961773686109
1776442205193096200,9.24709619140625,0.14017828601896762,-0.10851144731901585,0.009467295551276764
1776442205218114000,9.272114013671874,0.03874795606732368,-0.2096711436357349,0.16131362943565472
1776442205243131100,9.297131103515625,0.3071118924945593,-0.7096511481989175,-0.05216176075467374
1776442205268148200,9.322148193359375,0.2984738280087709,-0.6405559115976095,-0.37869277189914136
1776442205293166000,9.347166015625,0.4215057489156723,0.15247655351273715,0.07423643541466445
1776442205318183200,9.37218310546875,-0.2132552126675844,0.15265936273373662,-0.0665678735481575
1776442205343200300,9.3972001953125,-0.2790624405741691,-0.490348252864927,0.19123546936549246
1776442205368218000,9.422218017578125,-0.2477104399770498,-1.1200815224792808,-0.12555723813343792
1776442205393235200,9.447235107421875,0.5294441455870866,-1.523773455350101,-0.9695824065193533
1776442205418252300,9.472252197265625,0.3329220410555601,-0.789591165550053,-0.9088217944778502
1776442205443270100,9.497270263671876,0.08042553584575653,0.48909138467162844,0.5811737117698416
1776442205468287200,9.522287353515624,0.4412947374910116,0.5917358396533876,0.5985568813124671
1776442205493304300,9.54730419921875,0.2336772384494543,0.038149551782757044,-0.32576230549402535
1776442205518322200,9.572322265625,0.31289865920245646,-0.08597476747073232,-0.4178737490888685
1776442205543339300,9.59733935546875,-0.26799802572429177,-0.2760251187048852,0.14587277133353055
1776442205568356400,9.6223564453125,0.1365934132695198,-0.19568769953399895,-0.05574702166318893
1776442205593374200,9.647374267578124,0.18595570233166217,-0.11530278795957564,-0.16093327008225022
1776442205618391300,9.672391357421875,-0.431103598344326,0.35490196380391714,0.7243298080231994
1776442205643408400,9.697408447265625,-0.9086614893496036,0.4058275566600263,0.9013003129318355
1776442205668425200,9.72242529296875,-0.3706628659069538,-0.233407846923545,-0.08937186256311834
1776442205693443300,9.747443359375,0.039438860940933226,-0.3319554610457271,-0.5153903396628797
1776442205718460400,9.77246044921875,-0.04697977783977985,-0.014348843348026274,-0.4311630734466016
1776442205743477200,9.797477294921874,-0.33860476286709307,-0.04141951336413622,0.5299588171109557
1776442205768495400,9.822495361328125,-0.26038755072057246,-0.0628994141684845,0.7696808156173676
1776442205793512400,9.847512451171875,0.22641747657954692,-0.14430201488547026,-0.41166313094571233
1776442205818529300,9.872529296875,0.3470072650313377,-0.01952788995373994,-1.2505309531010687
1776442205843547400,9.89754736328125,0.07875146515369415,-0.2885870421035215,-0.5027811795890331
1776442205868564500,9.922564453125,-0.28440847777724265,-0.3200001252381131,0.4482891264230013
1776442205893581000,9.9475810546875,-0.2925625581383705,0.30777927036210895,1.2761018860787152
1776442205918599400,9.972599365234375,-0.22092998507916925,0.4197588321831077,0.7644399192892014
1776442205943616300,9.9976162109375,0.037274376383423805,0.3448623984897509,-0.3211770965956151
1776442205968634400,10.02263427734375,-0.786886875027418,0.34685945405848323,-0.5437443274877966
1776442205993652200,10.04765234375,-0.01769698473215103,-0.013630283282510935,-0.005764189549908041
1776442206018669300,10.07266943359375,0.9062585198611021,-0.38716391885280604,0.23441753542274235
1776442206043686400,10.097686279296875,0.8528846570700407,-0.9019296968765557,-0.15976612599901854
1776442206068704300,10.122704345703125,0.28603812480568885,-1.3190356033980846,0.3702342652313411
1776442206093721300,10.147721435546876,-0.32333412849903104,-0.6359540438253433,-0.1001427012939006
1776442206118738400,10.172738525390624,-0.031031098079681393,-0.5442007294857875,-0.15111030666083097
1776442206143756300,10.19775634765625,0.054608957543969154,-0.4033217113189399,-0.1007576913870871
1776442206168773400,10.2227734375,-0.8553899178892374,0.48855150564126665,0.1071682890817523
1776442206193790500,10.24779052734375,-1.3416846575796604,2.3324567132525145,1.5162562115877867
1776442206218808300,10.272808349609376,-0.19675883589684962,1.321595517013967,0.9649237670585512
1776442206243825400,10.297825439453124,0.5661386762559414,0.11726972238468006,-0.37922406576424833
1776442206268842200,10.32284228515625,0.06950082172751426,0.26719262762553986,-0.30900815456993874
1776442206293860400,10.3478603515625,-0.35524025584757324,-0.398996176270023,0.05139613297730684
1776442206318877200,10.372877197265625,-0.053202597877383226,0.10341023345617577,0.5822115669175982
1776442206343894300,10.397894287109375,0.11236498094201088,0.4106737545821815,-0.4150675325617194
1776442206368912100,10.422912109375,0.6327431920200586,0.07549144957759417,-0.05754417074564844
1776442206393929200,10.44792919921875,0.18898060311079024,-0.5139922363679855,-0.22687007918525487
1776442206418946300,10.4729462890625,0.2133253552943468,-0.38104675114676356,-0.07310934934718534
1776442206443964200,10.497964111328125,-0.09996668713986873,0.15216328631248324,0.8942642037499695
1776442206468981200,10.522981201171875,0.011337386572360992,-0.07553498732522129,0.45909916465301065
1776442206493998300,10.547998291015626,-0.45420331890285015,-0.5450558484777808,-0.026860173637163823
1776442206519016200,10.57301611328125,-0.18669219991266725,-0.48460404665712264,0.0082229260799475
1776442206544033300,10.598033203125,0.17563479932546613,-0.11413564387634396,-0.005523768390156328
1776442206569050400,10.62305029296875,0.07763795095384121,0.12287457492072135,0.15036357994675636
1776442206594068200,10.648068115234375,-0.23465163643956183,-0.17425178400184957,-0.08748148223925381
1776442206619085300,10.673085205078126,0.20982348465323447,0.06552914161756634,-0.31451873468495906
1776442206644102400,10.698102294921876,0.4205418723195791,0.4738415373632684,-0.390048753574118
1776442206669120300,10.723120361328125,0.39943127975165843,0.3460304924210533,-0.2530543217556551
1776442206694137300,10.748137451171875,0.19547113417387008,0.1594180797463283,0.8152437854617833
1776442206719154400,10.773154541015625,-0.06911737536787986,0.21107838008515536,0.9594787264604121
1776442206744172300,10.79817236328125,-0.21658581839501856,0.022948110193386672,0.2867919388476759
1776442206769189400,10.823189453125,0.07426467512845993,0.19047120699472725,0.38937056205160914
1776442206794207200,10.848207275390624,-0.01184592061638832,0.3112192547481507,0.267055776438117
1776442206819224300,10.873224365234375,0.23517244544327257,0.06560885579027236,0.60540196143426
1776442206844241400,10.898241455078125,0.3602051847785711,0.3829691705767065,0.3145489836927503
1776442206869259300,10.92325927734375,0.660613195720315,0.6531200634859502,0.08247896124422549
1776442206894276400,10.9482763671875,0.6477957997232675,0.12408501015640795,-0.6423692446298896
1776442206919293400,10.97329345703125,-0.09358604619204998,-0.6429479213006795,-0.6546021187372505
1776442206944311300,10.998311279296875,0.2938736407369375,-1.630802335961163,-0.4146415622346103
1776442206969328000,11.023328125,-0.2366565465211868,-0.20234087381288407,-0.4460771494619548
1776442206994345200,11.04834521484375,-0.4021118971377611,0.6557245468959212,0.8954916266530751
1776442207019363000,11.073363037109376,-0.7343447868853807,0.5210659010812639,1.552513227622211
1776442207044380200,11.098380126953124,-0.5744459013521671,1.4723250076636671,0.47894554597139355
1776442207069397200,11.123397216796874,-0.6599000790148973,0.7045340243808925,-0.34717838381454347
1776442207094415000,11.1484150390625,-0.36085225051045416,-0.35375513185635205,-0.9698070090554654
1776442207119432200,11.17343212890625,-0.03158522483110428,-0.6944449573691934,-0.2458350014939904
1776442207144450300,11.1984501953125,-0.0913625249236822,0.6222414525542408,0.7532822731979191
1776442207169467100,11.223467041015626,0.7932827135443687,0.6144814130119979,0.8768534155480563
1776442207194484200,11.248484130859374,1.1254963140696286,-0.2804525797583163,0.3777103002004325
1776442207219502300,11.27350244140625,0.6115384914278984,-0.6804577138751745,-0.33715880184248087
1776442207244519200,11.298519287109375,-0.38659284096658225,-0.25401710237320513,-0.6626005701452493
1776442207269536000,11.323535888671875,-0.26695348510742184,-0.2987809577291831,0.0718327718064189
1776442207294554000,11.34855419921875,-0.5627554635584354,-0.2999351327329874,0.26176804529353975
1776442207319571000,11.373571044921874,-0.43605625231564044,-0.24457437044102698,0.31728885698542
1776442207344588000,11.398588134765625,0.11924714167118072,-0.5363619986841455,0.44084056398272514
1776442207369606100,11.423606201171875,-0.158296126511693,-0.6894108356595039,0.2638156254731118
1776442207394623000,11.448623046875,-0.37974049085378647,-0.3722810416933149,-0.38935529141724107
1776442207419640000,11.47364013671875,0.3192155872642994,0.012504092264175414,-0.47045280824042857
1776442207444658000,11.498657958984374,0.2000537857890129,-0.3553397706992924,0.17861951422467826
1776442207469675000,11.523675048828125,-0.3566267417699098,-0.28967772341705855,-0.061313496683910486
1776442207494693000,11.548693115234375,0.48706747762858865,0.677801061886549,0.5945267855461687
1776442207519710000,11.5737099609375,0.058987611019611356,0.4593357864204794,0.2785081676922738
1776442207544727000,11.59872705078125,-0.17224924854040144,0.08477269820459186,-0.20796002886891363
1776442207569745200,11.6237451171875,0.7591518958836794,-0.4971687465347349,0.020922522649914024
1776442207594762000,11.648761962890624,0.10646072533428669,-0.4262983534870669,0.42289150418564675
1776442207619779000,11.673779052734375,-0.6981044297248125,0.11129483095984906,0.47124271650910377
1776442207644797200,11.698797119140625,-0.27474983807206155,0.11137867331840097,0.4785056932494044
1776442207669814000,11.72381396484375,0.052422845676541326,0.1472361686412245,0.1990870961813256
1776442207694832000,11.74883203125,-0.09504501282870768,0.05738748234659433,0.10606836501583457
1776442207719849200,11.77384912109375,-0.22797464289367197,-0.15339958664178846,0.5166671546656638
1776442207744866000,11.798865966796875,0.27385610410273076,-0.2453313628207892,0.8039427123118191
1776442207769884200,11.82388427734375,0.9369973569959401,-0.14037176276445387,0.5009853091482073
1776442207794901200,11.8489013671875,0.17797113331854342,0.38087073699273166,-0.3440583520978689
1776442207819918000,11.87391796875,0.6788672298133372,0.10992555190064013,-0.07289514034092426
1776442207844936200,11.898936279296874,0.33462358427643774,-0.6097366296377033,-0.1556228156492114
1776442207869953300,11.923953369140625,0.05470949530899524,-1.5010262014910578,-0.26824922400638457
1776442207894971100,11.94897119140625,0.06221124924123287,-0.5718809462349862,0.42855442531816657
1776442207919988200,11.97398828125,-0.5690308905661106,-0.5078449292520061,0.39388562832325696
1776442207945005000,11.999005126953126,-0.3472095096051693,0.052518451538123186,-0.33479455692917104
1776442207970023200,12.024023193359374,-0.3493699025094509,0.05530238316822797,-0.7984621620088815
1776442207995040300,12.049040283203125,-0.09763327575623988,-0.12250322085767984,-0.29258732725344594
1776442208020057000,12.07405712890625,-0.4955915603458881,-0.699062899493426,0.07629954195693135
1776442208045075200,12.0990751953125,-0.28633447740375995,-0.6199013922341168,0.46481531381011004
1776442208070092300,12.12409228515625,-0.47222997398078437,-0.8609406838841736,-0.03987586411871016
1776442208095109000,12.149109130859374,-0.13530863415598868,0.9526506340060382,-0.07532689753249287
1776442208120127200,12.174127197265625,0.6363906086117029,0.9233888106212019,0.5029909133495762
1776442208145144300,12.199144287109375,0.07486147197782993,0.6277847658950835,1.1776053445566446
1776442208170162200,12.224162109375,-0.6353408072978258,0.5145180138077586,0.7924694974653422
1776442208195179300,12.24917919921875,-0.10227496408224106,-0.6224374865829945,0.12101842566002159
1776442208220196400,12.2741962890625,0.8768383641093969,-0.5797421080641448,-0.3216826714975759
1776442208245214200,12.299214111328125,0.590018733537197,-0.7422974994555115,0.7515862829349934
1776442208270231300,12.324231201171875,0.09526128592789172,-0.6784056036509573,0.6077492186801507
1776442208295248400,12.349248291015625,-0.226615044978261,-0.5526832746163011,-0.15283007965814321
1776442208320266200,12.374266357421876,-0.46495501454174515,0.19485402518883346,-0.3120403253400698
1776442208345283300,12.399283447265624,-0.3251169202625751,0.4051581329658627,0.26266258298046885
1776442208370301200,12.42430126953125,0.10585983683168887,0.21721162214316425,0.27791104204934086
1776442208395318300,12.449318359375,0.5248825367599725,-0.26383703358732163,0.2023802194425836
1776442208420335400,12.47433544921875,1.0030658661872147,-0.3421444813005626,0.2130074849842116
1776442208445353200,12.499353271484376,0.9376952761322259,0.24241131065562366,-0.17183822005409746
1776442208470370300,12.524370361328126,-1.2433195604175329,0.03296140855513513,-0.2712963366173208
1776442208495387400,12.549387451171874,0.6757499745756387,-0.1449550719667226,-0.23297245118096468
1776442208520405200,12.5744052734375,-0.18084873458147047,-0.17973171325027942,-0.660923065387085
1776442208545422300,12.59942236328125,-0.1690793863326311,-0.14799480498880146,-0.5640461974887176
1776442208570440200,12.624440185546876,-0.21670506086051464,-0.5211673886943609,0.34337679957449435
1776442208595457300,12.649457275390626,0.5558364779502153,0.10984550893437117,0.1605982659742236
1776442208620474000,12.67447412109375,-0.3866208980172872,0.6530171876333654,0.7493422303352505
1776442208645492200,12.6994921875,0.4666705862879753,0.6320306598365306,0.6164190300110727
1776442208670509000,12.724509033203125,-0.10446399855911731,0.5279654878692701,0.7539544003058224
1776442208695526100,12.749526123046875,-0.28013796085119247,0.3427799296598881,0.35764731698930263
1776442208720544000,12.7745439453125,-0.3753285196304321,-0.24018576182695103,0.5316577299833297
1776442208745561000,12.79956103515625,0.3299292889803648,-0.8199981403820216,0.5400494550252333
1776442208770579200,12.8245791015625,0.8299789977788925,-0.14961550152581185,-0.4607246104303747
1776442208795596000,12.849595947265625,0.648180999648571,0.43440421079229563,-1.2862392492115498
1776442208820613000,12.874613037109375,-0.054985389640927314,0.06409116297001019,-0.7429760563042015
1776442208845631200,12.89963134765625,-0.220658182400465,0.7198389994099735,0.7784311813712119
1776442208870648000,12.92464794921875,0.3806277950823307,0.7597459162540733,1.1861084575511514
1776442208895666200,12.949666259765625,-0.3898497969359159,-0.21291191565524786,-0.8872924650412052
1776442208920683300,12.974683349609375,-0.4947901808351278,0.09827860618876293,0.14174127015252597
1776442208945700000,12.9997001953125,-0.6971510745227336,-0.0008248334515839814,0.1654819098299369
1776442208970718000,13.024718017578126,-0.26655484117865563,-0.10904343530386686,-0.2755080360282212
1776442208995735000,13.049735107421874,0.7189677695333957,-0.024776933055743574,-0.07692350080786273
1776442209020752000,13.074751953125,-0.14741875866651535,-0.29327678908864036,-0.20598481980580835
1776442209045770000,13.09977001953125,-0.292568987879157,0.2805643695697188,0.7030201857518404
1776442209070787000,13.124787109375,-0.09094400725066662,0.6274539995707571,0.64863743817918
1776442209095805000,13.149804931640626,-0.12050912443101405,0.488400516330637,0.709478421980515
1776442209120822000,13.174822021484376,0.07450199101567268,-0.13708981848433613,0.4770603898119181
1776442209145838800,13.1998388671875,0.3149059073716402,-0.5770255060492083,-1.119948178423196
1776442209170857000,13.22485693359375,-0.6421037255614995,-0.9174765178374945,-0.6999304030429572
1776442209195874000,13.2498740234375,0.6788257287591696,-0.27681710933279247,-0.5670640474725515
1776442209220892000,13.274891845703126,-1.0226099400907753,0.37311106277666983,-0.4184523892270401
1776442209245909000,13.299908935546876,0.2092389627635479,0.6236627905942499,-0.38393202425949274
1776442209270926000,13.324926025390624,0.32675884225070473,0.28189735347284,-0.5111053558200598
1776442209295944000,13.34994384765625,-0.5992927578389644,0.05450306318381335,0.3931555604830384
1776442209320961000,13.3749609375,-0.42651334794461726,0.11477436190498992,0.4223953912317753
1776442209345978000,13.39997802734375,0.3032464492380619,-0.005164040832826867,-0.30155849615111946
1776442209370996000,13.424995849609376,0.6527098752498627,-0.14863889331230892,-0.9460497013710438
1776442209396013000,13.450012939453124,-0.2920686371415853,-0.14414638593234122,0.02942826599292457
1776442209421031000,13.475031005859375,-0.14403320788145063,-0.10670317405434325,0.8599666512202471
1776442209446048000,13.500048095703125,-0.13618541699051856,-0.10872921825554221,0.3889318783733994
1776442209471065000,13.525065185546875,-0.5063742356449366,-0.26386697206785903,0.22640783196836708
1776442209496083000,13.5500830078125,-1.280511519214511,-0.3653567588554695,0.33595044896602627
1776442209521100000,13.57510009765625,0.941150969544053,-0.3585032762315124,0.10488222397118806
1776442209546118100,13.6001181640625,1.074461707881093,-0.27444764025509355,-0.06923691009432077
1776442209571135000,13.625135009765625,0.7092384026795625,0.12567563121556305,0.15218699598163365
1776442209596152000,13.650152099609375,0.5368430236667394,0.5886200822530314,-0.7802003830008208
1776442209621170000,13.675169921875,0.21740005738735196,-0.3392315164633095,-1.152708511448279
1776442209646187000,13.70018701171875,0.1137625727802515,-1.0183199878118931,-0.42244120313487943
1776442209671205000,13.725205078125,-0.2974883241027593,-0.47176385430637746,-0.10534034300222993
1776442209696222000,13.750221923828125,-0.449874934309721,-1.2145111068233847,0.4596560313507914
1776442209721238800,13.77523876953125,-0.015101123020052908,-1.1140798709116875,0.5115763343326747
1776442209746257200,13.800257080078126,0.0937502968430519,-0.8419690030410886,-0.16643793191313744
1776442209771273700,13.825273681640626,-0.10105155976712703,-0.8602163881976157,-0.4001771296828985
1776442209796290800,13.850290771484374,-0.19718729044198988,-0.42285599448084826,0.4954011523403227
1776442209821309000,13.875308837890625,-0.3325923707097769,-0.6506696015939116,0.19977467658668754
1776442209846325800,13.90032568359375,-0.44266427227854727,-0.5620642664238811,0.5916578790463507
1776442209871343900,13.92534375,-0.3664671677827835,-0.5145129723064601,0.3348696679919958
1776442209896361000,13.95036083984375,0.5086912804156541,-1.2506934501864015,-1.2821075562343
1776442209921377800,13.975377685546874,0.5855974099636078,-0.6060395286854356,-0.9488523377016186
1776442209946396000,14.00039599609375,-0.14716273807883262,-0.6552294568553566,0.18362696712315082
1776442209971412500,14.02541259765625,-0.06323474707007408,-0.7398938723798841,0.5633420312747359
1776442209996430300,14.050430419921875,0.6717804864227771,0.4130198793169111,1.356076609417051
1776442210021447400,14.075447509765626,-0.16369360164105892,1.2197522223472594,2.003585701153427
1776442210046464500,14.100464599609374,-0.8325053013861179,0.7374881994776428,0.1536339799195528
1776442210071482400,14.125482421875,0.015242577317357063,-0.15106632138863205,-0.07560176895111799
1776442210096499500,14.15049951171875,-0.5319458992749452,0.1338843004412949,0.6566084901235997
1776442210121517300,14.175517333984375,-0.4729465978175401,0.74803063628003,0.2887294097162783
1776442210146534400,14.200534423828126,0.02825929527878761,-0.2218435927927494,0.18011625558845698
1776442210171551200,14.22555126953125,-0.019675591328740118,-0.14238149515166879,0.17019173148870467
1776442210196569300,14.2505693359375,0.0009603694647550582,0.41312750440984963,0.7084111580751836
1776442210221586200,14.275586181640625,-0.06196691909134388,0.3364529916606843,0.11892141684815287
1776442210246604500,14.3006044921875,0.34646015254259105,-0.2870635223306715,-0.05145546194911003
1776442210271621000,14.32562109375,0.40904549579322336,-0.16329554223418236,0.39669871298260984
1776442210296638200,14.35063818359375,0.13880933575332163,0.7090953409470617,0.2235521502763033
1776442210321656300,14.37565625,0.3185790429264307,0.2072879748262465,0.4073321525366977
1776442210346673200,14.400673095703125,0.0080517890304327,0.37313656254410743,0.3861285844556987
1776442210371690200,14.425690185546875,0.05113923560678959,0.3037691579379141,0.2850611695323139
1776442210396708400,14.450708251953126,0.09255845670998096,0.058296852276474236,0.24498061315435915
1776442210421725200,14.47572509765625,0.3202764944940805,-0.16768091771155594,0.1718883428061381
1776442210446743300,14.500743408203125,-0.27411095564663407,0.17091230084821582,0.2205528588624671
1776442210471760400,14.525760498046875,0.343836233779788,0.600842471498996,0.41346214319169516
1776442210496777200,14.550777099609375,0.11905308040380477,0.020427067283168433,-0.23183716354072093
1776442210521795300,14.57579541015625,0.08920797723829746,0.3009033932432532,-0.3420310109887272
1776442210546812400,14.6008125,0.5464589932739734,0.384591291885823,-0.5066151317287236
1776442210571830300,14.625830322265625,0.31187048519849775,-0.2550479067256674,-0.3970015683867037
1776442210596847400,14.650847412109375,-0.34746319210529325,-0.27007622023783623,-0.4513569895610213
1776442210621864200,14.6758642578125,0.5557002843499184,0.03908219299037009,0.02364763676486909
1776442210646882300,14.70088232421875,0.6218605634778738,0.4549741571448743,0.031261180508509276
1776442210671899400,14.7258994140625,-0.3412520625054836,-0.13445557925691828,-0.36127814777232703
1776442210696917200,14.750917236328124,0.018651508978009223,-0.22250888830106705,-1.5348764486446975
1776442210721934300,14.775934326171875,0.3888566942453384,0.34667598725035786,-0.8902902586176991
1776442210746951400,14.800951416015625,-0.7911398562967776,0.7879618107825517,0.7352560565114021
1776442210771969300,14.82596923828125,-0.0061275429695844645,0.10095533285103737,1.6440785816416144
1776442210796986400,14.850986328125,0.07696808886826038,-0.40748533380441365,0.0396614907156676
1776442210822004200,14.876004150390624,-0.22371698544919488,-0.6007932255297899,-0.983872797678411
1776442210847021300,14.901021240234375,0.20437223351001738,0.2889342846386134,-0.1374433811623603
1776442210872038400,14.926038330078125,-0.5696089827150106,0.21112243842259049,0.23877587676271794
1776442210897056300,14.95105615234375,-0.6300929697722196,-0.2892174854941666,0.5643729086924344
1776442210922073300,14.9760732421875,-0.26004852802455425,-0.24941885133013128,0.6620139293637126
1776442210947091500,15.001091552734374,0.6334674146413802,0.8808020070433616,0.37059433071538805
1776442210972108300,15.0261083984375,0.4370663061410188,0.7751040827751159,0.0105435327809304
1776442210997125400,15.05112548828125,-0.16881109078526496,-0.06752940749011467,-0.271164380800724
1776442211022143500,15.0761435546875,-0.4533072468459606,-0.24429239342818035,-0.0197483643040061
1776442211047160300,15.101160400390626,-0.021148586490750312,-0.5712342458292842,-0.2659113556433469
1776442211072178400,15.126178466796874,0.04708382273614406,-0.7543221376396715,0.2973321836929768
1776442211097195300,15.1511953125,0.109209147259593,-1.451230197186768,-0.3732912781817838
1776442211122212400,15.17621240234375,0.07352233232855797,-0.19735117576681077,-0.26620467603411524
1776442211147230500,15.20123046875,-0.005387538257241249,-0.5106697408817709,-0.32533640823215243
1776442211172247300,15.226247314453126,0.02277121925652027,-0.6676473321408033,-0.2966340818936005
1776442211197265400,15.251265380859374,-0.37159868545234204,-0.43289921305682505,-0.9874427651196718
1776442211222282500,15.276282470703125,0.2726379604846239,-0.3272721620677039,-0.9058154522687196
1776442211247299300,15.30129931640625,-0.3196493025064468,0.22896520656729116,0.2885322431763634
1776442211272317400,15.3263173828125,-0.015266542714834212,0.46819998781234023,-0.05532068600989878
1776442211297334500,15.35133447265625,0.12487901007831095,0.46136663466095923,-0.15858495339043438
1776442211322352400,15.376352294921874,-0.18209084359705446,0.14160740550663323,-0.3485048466453329
1776442211347369500,15.401369384765625,-0.1312555593729019,0.12558109393306074,0.62195145663172
1776442211372386600,15.426386474609375,0.6213806710064411,-0.14668956760913132,0.2213843595168553
1776442211397404400,15.451404296875,0.7994400671303272,0.10828107262924314,0.28110443126317114
1776442211422421500,15.47642138671875,-0.05752747533917427,0.5545242993731051,0.4715912011532113
1776442211447439400,15.501439453125,0.40422085211575026,-0.4686765923481434,-0.05994185213767923
1776442211472456400,15.52645654296875,0.6851613615214824,-1.1317280480660497,-0.20229878823682665
1776442211497473500,15.5514736328125,-0.2628518950074911,-0.6207651694566011,-0.265248398222588
1776442211522491400,15.576491455078125,-0.35821196513473985,0.0156600355444476,-0.08304656853172927
1776442211547508500,15.601508544921876,-0.4849176061183214,0.27183427941892296,-0.12751301184371114
1776442211572526300,15.6265263671875,0.034433599999547,0.3691107045615092,-0.6931435193818062
1776442211597543400,15.65154345703125,-0.043045945522189134,-0.22775573944598435,0.21484348650602622
1776442211622560500,15.676560546875,-0.27952479738891123,-0.9448338958404958,-0.12296864641234279
1776442211647578400,15.701578369140625,-0.3214455382734537,-0.4992931182775646,-0.06457949447622523
1776442211672595500,15.726595458984375,0.7929021897941827,-0.15523315874449908,-0.46715566639117895
1776442211697613600,15.751613525390624,0.07785948475003242,-0.1254902007792145,0.2411626623013988
1776442211722630400,15.77663037109375,0.06928688671588898,-0.27920440632812676,0.03511794726820663
1776442211747648500,15.8016484375,0.45303485964536666,-0.8208188091151416,-0.4252729559620842
1776442211772665600,15.82666552734375,-2.6301860065042972,0.9160445122729987,1.3433197114355862
1776442211797682400,15.851682373046875,-0.07551905910372733,-0.017829853864200412,-0.4577203871130943
1776442211822700500,15.876700439453124,0.12246493467390536,0.2864496282160282,-1.0225940849345176
1776442211847717600,15.901717529296874,-0.680346654716134,-0.5104630027959123,-0.5999434403000399
1776442211872735500,15.926735595703125,-0.3578168283373117,-0.740119132503122,0.006962751684710383
1776442211897752600,15.951752685546875,-0.29999767657518384,0.4069252157036215,0.648272185063362
1776442211922769700,15.976769775390625,0.2592483175575733,0.45762138371802863,0.5200345852721482
1776442211947787500,16.00178759765625,-0.020275310787558554,-0.24261698929555714,0.04006597986333072
1776442211972804400,16.026804443359374,0.15255845964252948,-0.020862097699567674,0.12310440162122249
1776442211997822200,16.051822265625,0.2919225066691637,0.9084476274032145,0.04951565299294889
1776442212022839300,16.07683935546875,0.07837620210051537,1.2456284218817948,0.5205932420682162
1776442212047856400,16.1018564453125,0.13643793044686317,1.3715379440516233,0.5145930518053472
1776442212072874200,16.126874267578124,0.42335108452141285,0.7746819118402898,-0.19651698996499178
1776442212097891300,16.151891357421874,-0.1373340025037527,-0.4786325344994664,0.39707083423063155
1776442212122909200,16.1769091796875,-0.7918827836185693,-0.5796903778769076,0.7492498028114437
1776442212147926300,16.20192626953125,-0.005168342548608779,-0.01111789860278368,0.7032651734888553
1776442212172944400,16.2269443359375,-0.14644377615451812,0.2782587229758501,0.4627431837111711
1776442212197961200,16.251961181640624,-0.3367401380389929,0.13827362144142388,0.6960949895985424
1776442212222978300,16.276978271484374,-0.3976631010353565,-0.463345825779438,0.001918108581006527
1776442212247996400,16.301996337890625,0.19712357755601406,-0.441219334167242,-0.09490925761982798
1776442212273013200,16.32701318359375,-0.31710254063308235,-0.4501492212064564,-0.35995617845356465
1776442212298031400,16.35203125,0.22680910624563694,0.21139161075279114,-0.9547866961866617
1776442212323048400,16.37704833984375,-0.017912088787555694,0.04145020076334476,0.015136194333434104
1776442212348065300,16.402065185546874,-0.619696663442254,0.32691125633344054,-0.08468436233401298
1776442212373083400,16.42708349609375,-0.4771399578541517,0.5559560126766562,0.1343237147718668
1776442212398100500,16.4521005859375,0.08181845150887966,0.46664333295486865,0.39870778778269883
1776442212423118300,16.477118408203125,0.528253474497795,0.262326117567718,0.0017931670270860194
1776442212448135400,16.502135498046876,0.49298751532733437,0.188820407580398,0.39767888312637806
1776442212473153300,16.5271533203125,0.43447453608214853,0.06835442817136644,0.5472973437942564
1776442212498170400,16.55217041015625,0.5103770415455102,0.33914752797428516,0.3557765546813607
1776442212523187500,16.5771875,0.4645826740980148,-0.04270661229891702,0.032089667221903796
1776442212548205300,16.602205322265625,-0.1682610556870699,-0.54200091788657,-0.03409077791124582
1776442212573222400,16.627222412109376,-0.2126893954783678,-0.4778913607433438,0.2425539339967072
1776442212598240300,16.652240234375,-0.4582183997631073,0.2110059907023795,0.4149370380498469
1776442212623257300,16.67725732421875,-0.3107312520354986,0.42459903875589367,0.7678032582424581
1776442212648275500,16.702275390625,0.09340776701569557,0.6030032297294586,0.19930194450840352
1776442212673292300,16.727292236328125,0.33706220960021016,-0.07660312801338731,-0.23401859923303125
1776442212698309400,16.752309326171876,0.3329816622883081,-0.8410439240854233,-0.628907120988518
1776442212723327500,16.777327392578126,0.196476511824131,-0.5789763843886554,-0.25221169691905376
1776442212748344300,16.80234423828125,-0.5845277349054813,-0.18562091741934417,0.051474751171469685
1776442212773362400,16.827362548828123,-0.42010348090231414,-0.20794775390923023,0.14373232523873447
1776442212798379500,16.852379638671874,0.03819792096912861,-0.6042297758497297,-0.28766455696374177
1776442212823396400,16.877396240234376,-0.2163099240630865,-0.42879130281396205,-0.03381707553640008
1776442212848414500,16.90241455078125,0.1296481241762638,-0.41179099510908124,0.04269172525703907
1776442212873431600,16.927431640625,-0.1416606335312128,-0.4659118768751621,-0.6903697438195348
1776442212898449400,16.952449462890623,0.568683100041747,-1.2202929781604557,-0.6892731807544827
1776442212923466500,16.977466552734374,0.3111889326751232,-0.5175448873482644,-0.8878384815514088
1776442212948484400,17.002484375,-0.14008300895094872,-0.07515439050979912,-0.649549949914217
1776442212973501400,17.02750146484375,0.09890811799764633,-0.4640284012161195,-0.510480940311402
1776442212998518300,17.052518310546876,0.32406185825169087,-0.5703312325749545,0.08419555590376257
1776442213023536400,17.077536376953127,0.8914385518699884,-0.3770510325741023,0.7704146097846328
1776442213048553200,17.10255322265625,0.06808978588581084,0.09623970250599086,0.13008235087506473
1776442213073571300,17.1275712890625,-0.23770517879128455,0.5851362587252631,0.05565123313851654
1776442213098588200,17.152588134765626,-0.18487199874818325,0.46845549694336946,0.253680892688781
1776442213123606500,17.1776064453125,-0.09549918633699417,-0.10313691467382013,0.018020225337147713
1776442213148623000,17.202623046875,-0.13503507791161537,-0.3725752753995359,0.2659521260451525
1776442213173640200,17.22764013671875,-1.4335019405335188,0.39392004204951225,1.125670720788464
1776442213198658300,17.252658203125,1.1402689357876776,1.533034181778878,1.7526921010956167
1776442213223675100,17.277675048828126,0.48255672220587725,0.28186246482254934,0.7346875359084457
1776442213248693200,17.302693359375,-0.08350596620440483,-0.6871113265454769,-0.3239903273854404
1776442213273710300,17.32771044921875,-0.5427116234391928,-0.6685561906140297,0.14581146960034966
1776442213298728200,17.352728271484374,0.3869236803561449,0.025203816698305306,1.5708300978183745
1776442213323745300,17.377745361328124,0.4386883543848991,0.2626995174573734,0.6156956111073494
1776442213348762400,17.402762451171874,0.3932371012866497,-0.39888219450153406,-0.7843328796956688
1776442213373780200,17.4277802734375,0.43687166035175323,-0.8953420621145516,-0.5550926007803529
1776442213398797300,17.45279736328125,-0.3680336864471435,-1.5262652721658347,0.13446999137476084
1776442213423815200,17.477815185546874,-0.5564519795000553,-0.8400992636464536,-0.7772657908536493
1776442213448832300,17.502832275390624,-0.6969616894304752,-0.5728829263517633,-0.6949763608321547
1776442213473849300,17.527849365234374,-0.7053010632306337,-0.3715736606089398,-0.21640483580492437
1776442213498867200,17.5528671875,1.1526812581151724,-0.5584296362485737,0.29174013583958147
1776442213523884300,17.57788427734375,0.6486304969817399,0.29885510067762805,0.19830014705471694
1776442213548902400,17.60290234375,-0.6497106934338808,0.642615766736865,-0.9481666935250163
1776442213573919200,17.627919189453124,-0.9007476474851369,-0.7460409237675368,-0.9906699104726314
1776442213598937300,17.652937255859374,-0.15739596280157564,-0.4929978905908763,-0.5120163331851363
1776442213623954200,17.6779541015625,0.47191783929169173,0.37380116393268104,0.06164630883485078
1776442213648971300,17.70297119140625,0.4170557837694883,1.2565186492085456,1.0637625461470335
1776442213673989400,17.7279892578125,-0.8639847277551889,1.316146019436419,0.985331179793179
1776442213699006200,17.753006103515624,-0.2676420518934727,1.3678300294443964,1.5204510329291223
1776442213724024300,17.7780244140625,-0.23183657901883123,1.3406646668821574,1.641316277321428
1776442213749041400,17.80304150390625,-1.571567764443159,-0.9240824919737874,0.8315092760860919
1776442213774059300,17.828059326171875,-0.9491735324800014,-0.6893325097262859,0.4979988772159442
1776442213799076400,17.853076416015625,1.1761778690367937,0.040447015070170164,-1.8905827145688234
1776442213824093400,17.878093505859376,1.1414560997456311,0.8429311260715127,-0.55104157182388
1776442213849111300,17.903111328125,0.5539642543375491,0.5686384571824222,-0.11161326752556487
1776442213874128400,17.92812841796875,-0.13504501478374004,0.18298348158784208,-0.03494533978081308
1776442213899146200,17.953146240234375,-0.552286091992259,0.2756601761163212,0.3372653309568763
1776442213924163300,17.978163330078125,-0.9286872092902659,0.32651462169867007,1.0787081132791936
1776442213949181400,18.003181396484376,-0.8964210164576768,0.2913195175410248,1.0750192686986177
1776442213974198500,18.028198486328126,-0.6127817694872617,-0.38034393663965166,0.26236275978367773
1776442213999215600,18.053215576171876,0.11283493654131889,-0.19444138926733284,0.3560382012922317
1776442214024233500,18.0782333984375,0.4168693212866783,-0.48509369333758945,-0.3562586391098797
1776442214049250600,18.10325048828125,0.7661720037788152,-0.7040706446528434,-0.053169901184178886
1776442214074268700,18.1282685546875,0.2981307136595249,-1.2267074483126401,-0.5246197941705584
1776442214099285500,18.153285400390626,0.4861982935786247,-0.3887460734777152,-0.039365969234658404
1776442214124303600,18.1783037109375,0.5711205563217401,-0.14106770913936198,0.3655958648409694
1776442214149320700,18.20332080078125,0.7924854256868362,0.2607078687161207,0.5157725073808804
1776442214174337300,18.228337158203125,0.6028244390964508,-0.37282946935631334,-0.6980921547651291
1776442214199355600,18.253355712890624,-0.6558598637133837,0.4411610281087458,-0.3647097296562046
1776442214224372500,18.27837255859375,0.330904271492362,1.4654155205361543,0.6550752892069518
1776442214249390600,18.303390625,0.1663479155421257,0.3027359424326569,0.16750409983992576
1776442214274407400,18.328407470703127,0.051288288688659665,-0.5589677617132663,-0.46590552019961173
1776442214299425500,18.353425537109374,-0.1314040279328823,-1.1119166284631936,0.44083932187370956
1776442214324442400,18.3784423828125,-0.252851894518733,-0.7981150290716439,0.5182688177086413
1776442214349459500,18.40345947265625,-0.11030044962763785,0.15459555496070532,0.6141396869022399
1776442214374477300,18.428477294921876,0.3147960172563791,-0.5101645678386092,0.30856033773720265
1776442214399494400,18.453494384765627,0.11581775174438953,-1.5644459497392176,-0.572965672731772
1776442214424512500,18.478512451171873,0.6248731892973184,-1.2102188164569436,-0.5900326159320771
1776442214449529300,18.503529296875,0.721938309776783,0.008685940481815486,-0.004203589169681072
1776442214474547500,18.52854736328125,-0.5235995112121105,-0.09173049971954897,0.08954992254376411
1776442214499564300,18.553564208984376,1.6424907279282808,0.34360571295954284,0.5889481816962361
1776442214524582400,18.57858251953125,-0.9710919342994689,-0.4230099429335445,-0.10760463467240333
1776442214549599500,18.603599609375,1.0601040967047215,0.13606796462330967,-0.001416734930127859
1776442214574616300,18.6286162109375,0.5798796168386936,0.11979453728771768,0.3328837548717856
1776442214599634400,18.653634521484374,-0.19688859975636006,0.32250374208949506,-0.42889308268800375
1776442214624651500,18.678651611328124,-0.3185071467339992,-0.034171807258203624,-0.8974892302110791
1776442214649669400,18.70366943359375,-0.5249333901643752,-0.20038973974511026,0.2078133138746023
1776442214674686500,18.7286865234375,-1.021422776132822,-0.04946874511130154,0.8968246288225055
1776442214699704300,18.753704345703124,-0.9990256508857012,0.047246465951949354,0.8374778291016817
1776442214724721400,18.778721435546874,-1.6756693594306706,2.522240011048317,1.660983831474185
1776442214749738500,18.803738525390624,0.1783154167115688,0.046219460991770024,-0.9050377458944916
1776442214774756400,18.82875634765625,1.608112657508254,-0.6215020323637872,-1.6108210396841167
1776442214799773400,18.8537734375,1.306789285287261,-1.9690727523073552,-0.6877903948508203
1776442214824791600,18.87879150390625,0.45327217553257937,-0.360726724434644,0.4076160475119948
1776442214849808400,18.903808349609374,-0.4444751210927963,0.10128960630670189,0.10544000398442148
1776442214874826500,18.928826416015625,-0.4841097968667745,-0.2752593950293958,0.29686113211512566
1776442214899843300,18.95384326171875,-0.43857787974774837,-0.8001848941482603,0.5717322584792971
1776442214924861400,18.978861328125,-0.47630993677079675,-0.5295633880525827,0.04670855968296528
1776442214949878500,19.00387841796875,-0.15972645157575607,-0.1583873119264841,-0.1815543986327946
1776442214974899200,19.028899169921875,0.039048400318622584,0.06714117992408573,0.5298131250299513
1776442214999917300,19.053917236328125,-0.24245032749176024,-0.13364822666309772,0.391425667950511
1776442215024934400,19.078934326171876,-0.8306786704808473,-0.44621878642234947,0.6873235079914332
1776442215049952300,19.1039521484375,1.1041489901363848,0.23500355514977125,0.4996380592577159
1776442215074969300,19.12896923828125,0.44956513770818707,0.7736476734217256,0.11444558660835027
1776442215099987200,19.1539873046875,1.087151093584299,0.15598098143711686,-0.0871539673179388
1776442215125004300,19.17900439453125,-0.20935703618526458,-0.5234864792916923,0.35101474710702896
1776442215150021400,19.204021484375,0.2837093895971775,0.2834535516725853,0.18070728028416633
1776442215175039200,19.229039306640626,0.4962468093842268,0.733264955759421,-0.20296996549665927
1776442215200056300,19.254056396484376,0.43982232685089107,0.22465985578987746,-0.7823466012492776
1776442215225074200,19.27907421875,-1.049776179435849,-0.774445618866384,-0.24112200149744747
1776442215250091300,19.30409130859375,0.18789982213675974,-0.4919599989105016,0.3865159763380885
1776442215275109400,19.329109375,-0.9399187974005937,1.1020176771961152,-0.24652605249807238
1776442215300126200,19.354126220703126,0.3801958334058523,0.8441007543727755,0.4353584793098271
1776442215325144300,19.379144287109376,0.24519115063250063,-0.6271346314232796,-0.6367554233361036
1776442215350161400,19.404161376953127,-0.201338564902544,-0.7123057543609291,-0.19404044378362595
1776442215375178000,19.429177978515625,0.025545944666862486,-0.159625932077039,-0.05519179893322289
1776442215400196400,19.4541962890625,0.26175182481110093,0.5429594241878017,0.13241831954196095
1776442215425213200,19.479213134765626,-0.3372603625208139,0.6561171264100819,-0.19647607343271373
1776442215450231300,19.504231201171876,-0.19635317770540714,-0.29399286493612453,0.06797500039972365
1776442215475248000,19.529248046875,-0.1158323647916317,-0.08354786911737173,0.10670651678889989
1776442215500266200,19.554266357421874,0.08396656945347786,0.2560146693985909,-0.2193985377281904
1776442215525283000,19.579282958984376,-0.37783904114663597,0.41031346990242595,-0.5832141680888832
1776442215550300200,19.604300048828126,-0.08819733889102935,-0.6332813174847514,-0.8527026515666395
1776442215575318000,19.629318115234376,0.48236149189472194,-0.6343479968681931,0.4117595770575106
1776442215600335000,19.654335205078127,0.16021978805065154,-0.06702902478650212,-0.028281068719178435
1776442215625353200,19.679353271484374,0.029429508101940154,-0.3914806860733777,-0.47146688065379855
1776442215650370000,19.7043701171875,0.11847498825490474,-1.2408458637803792,0.7546843950808048
1776442215675388200,19.72938818359375,-0.08086918796002865,0.40154973321035503,0.7604391592152416
1776442215700405200,19.7544052734375,0.2984802577495575,0.8219247975956648,-0.7913656278766691
1776442215725423000,19.779423095703127,-0.362383697861433,0.054101300282776356,-0.4768080955512821
1776442215750440200,19.804440185546873,-0.15839724879860878,-1.0764303776055575,0.6085062841251492
1776442215775458000,19.8294580078125,0.041132805377244945,-0.7719982257142662,0.7483338570103049
1776442215800475100,19.85447509765625,0.26970190703272817,-0.42467502660155293,-0.14725903806015847
1776442215825492200,19.8794921875,0.13439210383296013,-0.3389652667425573,-0.457892528809607
1776442215850510000,19.904510009765627,0.08920388558506966,-0.4216211189236492,0.08761763930693268
1776442215875527200,19.929527099609373,0.20691841086149215,-0.45235725264474747,-0.0854196908712387
1776442215900545000,19.954544921875,0.46487551956474776,-0.40379941183328627,-0.2094550897322595
1776442215925562000,19.97956201171875,0.36211657135784625,-0.16707560876216737,-0.331157953992486
1776442215950580200,20.004580322265625,-0.13121581188440323,-0.32757256978638466,-0.20312369475364683
1776442215975594000,20.029593994140626,0.0010784428864717482,-0.07604761302247642,0.04808832360357046
1776442216000612000,20.054612060546877,-0.0930529622286558,-0.1639352649098262,0.4528611105136573
1776442216025629000,20.07962890625,-0.2793184611618519,-0.06817662391904741,0.49839142019748683
1776442216050646000,20.10464599609375,-0.6404343310445547,-0.023706600410491226,0.19650223078727722
1776442216075664100,20.1296640625,-0.23504677323698997,-0.38734800671543923,0.2378229599520564
1776442216100681000,20.154680908203126,-0.1442477274149656,-0.10850951109025626,0.11497121791765093
1776442216125699000,20.179698974609376,-0.25481062737107274,-0.020371026246994734,0.3985935137532651
1776442216150716200,20.204716064453127,0.351585240471363,-0.8013882785886526,0.09077259620651602
1776442216175734000,20.229734130859374,0.16524258464872837,0.44330607731342314,0.035653314520232376
1776442216200751000,20.254751220703124,-0.35948096215724945,0.8503720897272229,-0.6060249887034297
1776442216225769000,20.27976904296875,-0.22812720310688017,0.609950710779801,-0.4020558926342055
1776442216250786000,20.3047861328125,-0.000789104551076889,-0.27944603306427596,0.3398436570122838
1776442216275803100,20.32980322265625,0.04690262095034122,0.325421529232338,0.08130790817085654
1776442216300821000,20.354821044921874,0.29289748918116093,0.2700674524094909,-0.8578682176362723
1776442216325838000,20.379838134765624,-0.3027975364267826,-0.24324819987118243,0.012729863844066857
1776442216350856200,20.404856201171874,0.17879881631433964,0.3197517399676144,0.509122365309298
1776442216375873000,20.429873046875,0.03833119195997715,0.5276660299986601,0.09617493017408996
1776442216400891100,20.45489111328125,0.049341246274113654,0.328715675406903,-0.5689566562861204
1776442216425908000,20.479907958984374,0.8017670487731695,-0.1685393611717969,-0.8662539147961884
1776442216450926000,20.504926025390624,-0.008970072919130325,-0.777996954672411,-0.1263691025055945
1776442216475943200,20.529943115234374,0.018487842848896978,-0.3580492488536984,0.22841170087037607
1776442216500960000,20.5549599609375,-0.79406363478899,-0.3573915886625647,-0.3695539913496002
1776442216525978000,20.57997802734375,0.015216858354210853,-0.532049432714656,0.39366756512578577
1776442216550995200,20.6049951171875,0.24714228470027444,0.053790773028880356,0.2469852675076574
1776442216576013000,20.630012939453124,0.43391514863371844,0.04715856847278774,-0.32862010607793923
1776442216601030100,20.655030029296874,0.26352351065874097,0.5506906394943595,0.34436325332857665
1776442216626048000,20.680048095703125,0.1745031649470329,0.7270151015844196,0.5878940695334226
1776442216651065000,20.705065185546875,0.4348369396537542,0.045153073869273065,0.09882526201978326
1776442216676083200,20.730083251953126,0.43222821846008297,-0.23367110096961258,-0.3362003320738673
1776442216701100000,20.75510009765625,-0.6425918013393879,0.1540343774139881,-0.09936272989735007
1776442216726117000,20.7801171875,-0.8455734572738408,0.12868249401450157,0.4534812882386148
1776442216751135200,20.80513525390625,-0.9993535676658153,-0.6353494289956987,0.33989904046133157
1776442216776152000,20.830152099609375,-1.128451656743884,-1.113687656723708,0.07280950788408518
1776442216801170200,20.855170166015625,-0.36073885326385496,-0.839276987478137,-0.512944700076431
1776442216826187000,20.88018701171875,-0.24847908626198767,-0.4893295042764395,0.04789309329241514
1776442216851205000,20.905205078125,-0.07771978401839733,-0.41813510343879456,0.4078421113528311
1776442216876222200,20.93022216796875,0.4053390424907207,-0.029087160937674342,0.24155849321857092
1776442216901240000,20.955239990234375,0.3272568549007177,0.005947583292797208,0.10146861613541841
1776442216926257200,20.980257080078125,0.26089199311137196,0.12667656101956962,0.08956833498328924
1776442216951275000,21.00527490234375,0.4730921437680721,0.18863368936926125,-0.1115956040047109
1776442216976291600,21.03029150390625,0.20413491762280464,0.059275414985045786,-0.0272054023116827
1776442217001308700,21.05530859375,0.736114134645462,-0.32603717691265044,0.05805836734548211
1776442217026326800,21.080326904296875,0.680796152049303,-0.2504052320189774,-0.0642043227545917
1776442217051343600,21.105343505859373,-0.17056699454188345,-0.3731646926600486,0.5883033079214394
1776442217076361700,21.13036181640625,0.011812018346786498,-0.21356011389829216,0.5911116433404385
1776442217101378600,21.155378662109374,0.04731704697012901,0.04110255636945367,0.4917354694396257
1776442217126396700,21.180396728515625,0.3216115424901247,-0.4523270767021924,0.020247984389215705
1776442217151413800,21.205413818359375,-0.06023965690732002,0.8267118126764893,0.23988982935398814
1776442217176431600,21.230431640625,-0.164596103438735,0.8106772081986069,0.920313714024797
1776442217201448700,21.25544873046875,0.9345745137631892,-0.7253878657087683,-0.20558650467060505
1776442217226465800,21.2804658203125,0.3197983555883169,-1.296609105926007,-0.25733079349845644
1776442217251483600,21.305483642578125,-0.10798340485692023,-0.3233031123062596,-0.2519606447674334
1776442217276500700,21.330500732421875,-0.5063151989340782,0.20368699119221417,-0.17675083427596835
1776442217301518600,21.3555185546875,-1.0616372976213693,0.4363876031618565,-0.49395062473844736
1776442217326535700,21.38053564453125,-0.4681973574638366,-0.0030584788217442108,-0.8155738941989839
1776442217351553800,21.4055537109375,0.41166590742468834,0.5435233051482588,0.2629286865707487
1776442217376570600,21.430570556640625,-0.5391594839155673,0.07806700828718022,0.42087453834004696
1776442217401588700,21.455588623046875,0.26635201208293435,1.1092458748839795,1.4715322498507797
1776442217426605800,21.480605712890625,0.6997954515516758,-0.4504898513376713,0.5604320255795493
1776442217451622400,21.505622314453124,0.8325847963631152,-0.8125828226242214,0.02260449580393033
1776442217476640800,21.530640869140626,0.26087971815168853,-0.16646116665825247,0.058943246721499594
1776442217501657600,21.55565771484375,0.01141454346179962,0.8628853882111609,0.657172480681911
1776442217526675700,21.58067578125,0.6946306161344051,0.07417173614799975,0.5121932971872389
1776442217551692500,21.605692626953125,-0.8496206868380307,-1.1258299299381673,-0.19070152688557282
1776442217576710700,21.630710693359376,-1.2520458877086638,-1.8858656229190527,-0.49970038390420374
1776442217601727500,21.6557275390625,-0.22073592381179333,-1.2106970284279435,-0.7362900026690214
1776442217626745600,21.68074560546875,0.2729612010896206,-0.6128904905587435,-0.07272771135214716
1776442217651762400,21.705762451171875,0.6615759032726287,-0.2137014951303601,1.0333495069004595
1776442217676780800,21.73078076171875,0.5905787055075168,-0.9926846843611449,1.6452379808098077
1776442217701797400,21.75579736328125,0.18987316803634166,0.3044423079591244,0.7641051343768834
1776442217726814500,21.780814453125,-0.25584756920337676,0.6647906275354325,0.7680573060687631
1776442217751832600,21.80583251953125,-1.3347738552778958,0.9910584713988005,1.0689480590261518
1776442217776849400,21.830849365234375,-0.8103823169052601,0.23533629423547534,0.675087419013679
1776442217801867500,21.855867431640625,-0.47958092126548285,-0.2094470525562763,0.025870938837528227
1776442217826884600,21.880884521484376,-1.0830886664509773,-0.5386060147512703,0.23187808007299898
1776442217851902500,21.90590234375,0.3648720075458288,-0.4478047769721597,0.3545169100090861
1776442217876919600,21.93091943359375,0.1883686086922884,0.6841045459449291,-0.10973024852424859
1776442217901937400,21.9559375,-0.020457681617140767,0.294376694888249,0.8929252832964062
1776442217926954500,21.98095458984375,0.2945791586577892,-0.15255341814123094,1.4156260921031236
1776442217951971600,22.0059716796875,1.4605243874937295,-0.10971442990060895,0.41803894958794113
1776442217976990000,22.030989990234374,1.1996347324699164,0.8776439083386212,-0.514223195579648
1776442218002007000,22.056007080078125,0.015875614523887634,1.1625381238061934,-0.5135223538339138
1776442218027025000,22.08102490234375,-3.4714860242426395,-1.1608205792985855,0.7895201461404562
1776442218052042000,22.1060419921875,0.06256254689693451,-0.3681479604765773,0.1576379548639059
1776442218077060000,22.13106005859375,0.044811201629042625,0.6473956944897771,-1.1113953080028296
1776442218102077000,22.156076904296874,-0.25985680484473705,-0.3998383992478251,0.4726999295800924
1776442218127095000,22.181094970703125,-0.20908114185333251,0.16339089236743748,1.5127753837347029
1776442218152112000,22.206112060546875,0.19754092618525027,1.8573902006715535,0.907567848894
1776442218177130000,22.2311298828125,0.11107669469714164,0.4459224338242784,0.3811234696447849
1776442218202147000,22.25614697265625,-0.6754150435328483,-1.0863812782555817,-0.2689239083975553
1776442218227164000,22.281163818359374,0.024832827961444853,-0.7879770814169198,0.9048819708108902
1776442218252182000,22.30618212890625,0.45009822167158126,0.9397107076078652,0.1969599114269018
1776442218277199000,22.33119921875,-0.45104748522043225,-0.22607889227494596,-0.9215104495286941
1776442218302217000,22.356217041015626,-0.21906214538067578,-0.17073139132335782,-0.05478080697953701
1776442218327234000,22.381234130859376,-0.6855752030193806,1.094399311146885,0.11992284897565841
1776442218352252000,22.406251953125,0.6949597019582986,1.8376916668586432,-0.11842238128483294
1776442218377269000,22.43126904296875,0.6005944880872964,-0.43092721886411306,-0.8014239344239235
1776442218402287000,22.456287109375,-0.7834832040637731,-0.550818722853437,-1.241377778699994
1776442218427304000,22.481303955078126,-1.0126809590116144,0.7622070456705987,-0.6805202577173709
1776442218452322000,22.506322021484376,-0.3185202984765172,0.20348507541194558,0.38289106383919713
1776442218477339100,22.531339111328126,-1.0045654570952056,-0.64062956135571,0.6613689825236797
1776442218502356000,22.55635595703125,-0.42780952523499727,0.29964579439759254,1.033286232405901
1776442218527374000,22.5813740234375,-0.5314005403518677,0.06644976359382271,0.4787994154989719
1776442218552391200,22.60639111328125,0.37393414266258473,-1.87623767061308,-0.16260989805757997
1776442218577409000,22.631408935546876,-0.2891562568262219,-1.4900934501968324,-0.717314741629362
1776442218602426000,22.656426025390626,-0.324923151256144,-0.4454701234795153,0.42391105649173255
1776442218627444000,22.68144384765625,0.2757508318081498,0.0663936494924128,0.4191612316161394
1776442218652461000,22.7064609375,-0.8746496218934655,-0.5216565604507922,-0.05946399635970592
1776442218677479000,22.73147900390625,0.05049713831096887,0.4610932245470583,0.4477309080183506
1776442218702496000,22.75649609375,0.6394798067986964,0.12868249401450157,-0.5156581968188285
1776442218727514000,22.78151416015625,0.6967012849286198,0.3118007809631526,0.1027215388059616
1776442218752531000,22.806531005859377,0.06972673943787813,-0.7788561287850141,-0.1797498334288597
1776442218777548000,22.831548095703123,0.2749313321188092,-0.32962986764237284,-0.19990297914147376
1776442218802566100,22.856566162109374,-0.14549422034472226,0.21557620296105742,0.19652561166286467
1776442218827583000,22.8815830078125,-0.7940060593828558,-0.2599282626457512,-0.011319850915670395
1776442218852601000,22.90660107421875,-0.06218932967036962,-0.13355375331267713,0.41869653671383855
1776442218877618200,22.9316181640625,0.7417571089684962,-0.348110842359066,0.6109755968481302
1776442218902636000,22.956635986328124,0.4136316545397043,-1.0753265080168843,-0.8886725942879915
1776442218927653000,22.981653076171874,-0.8579547999411821,0.7467042099818587,-0.7752391073316335
1776442218952671000,23.0066708984375,0.9368231694728135,0.3793406778812408,0.26631168007254596
1776442218977687300,23.031687255859374,0.4813093524932861,-0.6291758549273013,-0.28356325912475583
1776442219002705700,23.05670556640625,0.3598606091246009,-1.1826957264982163,-0.707402419424057
1776442219027722200,23.08172216796875,0.6867559372365474,-1.4619402456410229,-0.6620429362624883
1776442219052739300,23.1067392578125,1.667263350135088,-0.2187010569833219,-0.49673956133723257
1776442219077757400,23.13175732421875,2.0986974956080315,-0.44035541081428525,-1.0919582016050815
1776442219102774300,23.156774169921874,-0.1476540287271142,-1.3180904315024613,-0.11959843932688236
1776442219127792400,23.18179248046875,-6.319581791222095,-1.1102139892637728,0.9900041400402784
1776442219152809500,23.2068095703125,0.6130979958295821,-0.5177265275254845,0.7181003390491009
1776442219177827300,23.231827392578126,1.1314473314285278,-0.14025062060281634,0.08066285173296928
1776442219202844400,23.256844482421876,1.1331763471782206,-0.2141463162884116,0.29232641129493714
1776442219227862300,23.2818623046875,-0.41692192825675006,0.13404972013607622,0.4791659107238054
1776442219252879400,23.30687939453125,0.005040039993822574,0.7037662548787892,0.5228513231933116
1776442219277897500,23.3318974609375,-0.17992694356143474,-0.06137662504799664,-0.3263292186617851
1776442219302914300,23.356914306640626,0.4066130079492926,0.3173530813280493,-0.3874713773667812
1776442219327931400,23.381931396484376,0.7617223308935761,-0.20899748215787112,-0.3315472455710172
1776442219352949500,23.406949462890626,-2.0594100258365273,0.8852516799286008,0.2242442241936922
1776442219377966300,23.43196630859375,-1.5446245201990008,0.7109147383939475,0.6434019486784934
1776442219402984400,23.456984375,-0.10863280867636203,0.11431319240033626,0.045724224820733066
1776442219428001300,23.482001220703125,-1.3754180003553629,-0.21529424421451984,-0.02611877611875534
1776442219453019400,23.507019287109376,-4.100291584552824,1.4216777933575213,2.2792063307106494
1776442219478036500,23.532036376953126,-1.2704115654826162,1.8482718053229152,1.8565297844499349
1776442219503054300,23.557054443359377,2.796438352717459,0.6322880686637014,-1.2717723324418067
1776442219528071400,23.582071533203123,0.20058833105713128,0.10046550350748001,-0.8599836754202842
1776442219553089300,23.60708935546875,-0.890685687676072,-0.5249482954725623,-1.1703531084060668
1776442219578106400,23.6321064453125,-1.394103119342029,-0.862954727120325,-1.3373328921109437
1776442219603124500,23.65712451171875,-0.307820186894387,-0.39823169470354913,-1.0506471170514822
1776442219628141300,23.682141357421877,-0.0995674586892128,-0.5236234766095876,-0.419423097422719
1776442219653158400,23.707158447265623,-0.21824995221495627,-0.2769947674546391,0.015182371562719343
1776442219678176500,23.732176513671874,-0.3836830909997225,-0.7246192194238305,-0.4366793526500463
1776442219703193300,23.757193359375,-0.04026990493759513,-1.5015129620946943,0.2682061155170202
1776442219728211500,23.78221142578125,0.8609756090670824,-0.16462898279502988,0.9288514599412679
1776442219753228500,23.807228515625,2.1844810513556,0.935861923225224,0.3082312519133091
1776442219778246400,23.832246337890624,0.6227712485820055,1.0424327578704804,0.6457961503386497
1776442219803263500,23.857263427734374,-0.8553266433946788,-0.23363581046052276,0.3079839991539717
1776442219828281300,23.88228125,0.06307575711607932,0.021067484078556298,0.4674199433505535
1776442219853298400,23.90729833984375,0.8584190564520656,0.5492801151093095,0.5001029002904892
1776442219878316300,23.93231640625,0.0001689268261194229,0.010719108543545007,-0.3686924426168203
1776442219903333400,23.95733349609375,-0.3630341245941818,0.04319192986413836,0.9491326159477234
1776442219928350500,23.9823505859375,0.5596861391156912,0.30942418802492316,1.2753536980599165
1776442219953368300,24.007368408203124,0.107846772865206,0.16066468227393924,-0.6593751783579588
1776442219978385400,24.032385498046875,-0.9783967043548821,-0.25836817372217774,-1.1143944898188114
1776442220003403500,24.057403564453125,-0.18284268487766384,-0.22630174124538896,0.6776876646399498
1776442220028420400,24.08242041015625,0.5860246954649686,0.07734766277037561,0.4211825083106756
1776442220053438500,24.1074384765625,-0.37491073260977864,-0.26963278731927276,-0.7740963670372962
1776442220078455600,24.13245556640625,-0.03501096149608492,-0.503004686146602,-0.7771750438302755
1776442220103473400,24.157473388671875,0.8250504553355276,-0.666912880386412,0.33883681805729865
1776442220128490500,24.182490478515625,0.5670799026288091,-0.22927666540294883,0.028842063602805137
1776442220153508400,24.20750830078125,-0.2537004741720855,-0.33665377492979165,-0.37104046704769134
1776442220178525400,24.232525390625,-0.04649827793315053,-0.5752198083341121,-0.5376859042316675
1776442220203543600,24.25754345703125,0.2974186198674142,0.13036482107825575,0.5602998870998621
1776442220228560400,24.282560302734375,-0.4315080874919891,-0.2140950244925916,0.22912790458202362
1776442220253577500,24.307577392578125,-0.3164209881097078,-0.3361732979364693,-0.4868611414015293
1776442220278595300,24.33259521484375,-0.31191958503723144,0.5113215558540076,-0.3572130172252655
1776442220303612400,24.3576123046875,-0.5133674555331468,-0.040240167386457325,0.2442085693359375
1776442220328630500,24.382630615234376,0.07444353882670401,-1.030435665280372,-0.06110007312893867
1776442220353647400,24.4076474609375,-0.6647715575087815,0.644491424415633,-0.35117490610480306
1776442220378665500,24.43266552734375,-0.5583645351231098,1.2426850619062781,0.16311726305782795
1776442220403682600,24.4576826171875,-0.6270213072419166,0.07872026629783213,-0.30395898142158984
1776442220428700400,24.482700439453126,-0.2932370598664507,-0.42306430346928536,-0.3100070294141769
1776442220453717500,24.507717529296876,0.3248790198534727,-0.8552383805893361,0.07821662762463093
1776442220478735400,24.5327353515625,-0.09984275936610065,-0.14592757026068864,0.7658733130931854
1776442220503752400,24.55775244140625,0.07040799970030784,-0.9292093334682285,0.3785042270570993
1776442220528770600,24.5827705078125,0.251139829903841,-0.47867345103174447,-0.08578326348662375
1776442220553787400,24.607787353515626,0.2612175718039274,0.45320985088609156,0.5344003066897391
1776442220578804500,24.632804443359376,0.3547942656457424,-0.352007338340953,0.06214928992092609
1776442220603822600,24.657822509765627,0.04206276143742725,0.22161182986348865,0.1121586447149515
1776442220628839400,24.68283935546875,-0.2782646047273651,0.27590171152092513,-0.10305237819552421
1776442220653857500,24.707857421875,0.06175828130934387,0.821897836523503,-0.03352349941730499
1776442220678874400,24.732874267578126,-0.023857224394939838,-0.06374576533213257,-0.04622106842696667
1776442220703892500,24.757892578125,-0.3837386205792427,-1.0283525753960012,-0.31680326542556286
1776442220728909600,24.78290966796875,0.10054887094199656,0.1276364190276712,0.3465677045702934
1776442220753927400,24.807927490234373,-0.34231351772453633,0.1613887222321704,0.18716390907764432
1776442220778944500,24.832944580078124,-0.33117490512728687,0.26706764953900125,0.25658114417493344
1776442220803962400,24.85796240234375,-1.092030097797513,1.4394355683661997,0.14847206711173055
1776442220828979500,24.8829794921875,-1.076361988544464,0.9362138054028153,-0.25514965006709095
1776442220853996300,24.907996337890626,-0.2969277676105499,-0.141946976191923,0.07239420508146285
1776442220879014400,24.933014404296873,-0.13282675421237944,-1.0474692176677285,0.236583481284976
1776442220904031200,24.95803125,0.1200011749088764,0.6153552732370794,0.4362082280069589
1776442220929049600,24.983049560546874,0.7176350596249104,0.1223239918332547,0.20104396587014198
1776442220954066200,25.008066162109376,-0.5590349086653441,-0.4431565858401358,-0.04808627777695656
1776442220979085000,25.0330849609375,-0.48019656894579527,0.03001344546973705,-0.06907353622615336
1776442221004102000,25.058101806640625,-0.9606612873084842,-0.05220927599109709,0.029964930152893064
1776442221029120000,25.0831201171875,0.8203151704419404,-0.3650657765522599,-0.20158172600865362
1776442221054137000,25.10813720703125,1.9136632920354604,-0.5346409835778176,0.7951870858609675
1776442221079155000,25.133155029296876,-2.9076567939728495,-0.07246317866444588,-1.569647025513649
1776442221104172000,25.158172119140627,-1.156535010933876,1.1189052452415227,-0.2321393613576889
1776442221129190000,25.18318994140625,-1.0052402145516126,-0.0769919081352651,-0.020061375775933265
1776442221154207000,25.20820703125,0.21290566857755183,0.15110351159386337,-1.1348930879682302
1776442221179225000,25.23322509765625,0.2992998305041343,-0.2806514633312821,-0.4730260927945375
1776442221204242000,25.258241943359376,0.1077225619636476,0.16063194904811678,0.5259527963399887
1776442221229260000,25.283260009765623,0.5394153583727777,-0.40099633711129423,0.3395703930288553
1776442221254276900,25.30827685546875,1.3223695701263845,0.2274827677235007,-0.21170389157235622
1776442221279295000,25.333294921875,1.043010338562727,0.10176730682104826,-0.2591431036174297
1776442221304312000,25.35831201171875,1.1135229676812886,-0.7920698306232691,-0.6950164005815982
1776442221329329000,25.383328857421876,-1.0573113972462713,-0.02436133799217641,0.8662304608553647
1776442221354347000,25.408346923828127,0.06718830700144171,-0.2927853340435773,-0.23198037140369415
1776442221379364000,25.433364013671873,0.047191520894318814,0.11028693255893886,-0.1684293979912996
1776442221404382000,25.4583818359375,-0.5253681283198297,0.2392596416916698,-0.41996319564878937
1776442221429399000,25.48339892578125,-0.7370996385514735,0.6595169979814439,-0.33546821840703483
1776442221454417000,25.5084169921875,0.41875791151225566,-0.29635756650716066,-0.2843652231574058
1776442221479434000,25.53343408203125,-0.5029626736357807,0.35860607901886105,-0.27497955517470835
1776442221504452000,25.5584521484375,-0.6507014580368995,1.0690440667465329,0.08447744158506393
1776442221529469000,25.583468994140624,-0.27302053006142374,0.8327715511068702,-0.0386339742988348
1776442221554487000,25.608487060546874,-0.24937661962360141,0.7726699144307524,0.7022212173938751
1776442221579504000,25.633504150390625,-0.32791678011417386,1.2241437353044748,-0.43701779082417486
1776442221604522000,25.65852197265625,-0.23210107517391443,0.8250530126187949,0.19751286913454533
1776442221629539000,25.6835390625,-0.016755612228810786,0.08696618966087698,0.44963235772550103
1776442221654556200,25.70855615234375,0.17436638682484626,-0.049640521481633185,-0.1654237864345312
1776442221679574000,25.733573974609374,-0.06781593738049269,0.3622385172370821,-0.25947277396321294
1776442221704591000,25.758591064453125,0.3029293461129069,-0.6067519147384911,0.4573018694400787
1776442221729609000,25.78360888671875,-0.07172288169115781,0.07812420010082423,1.283579090091586
1776442221754626000,25.8086259765625,0.47039136037677526,0.1725993040870875,1.4565309339433907
1776442221779644000,25.833643798828124,0.20475071143358944,-0.6223404559493064,1.3866793990820645
1776442221804661000,25.858660888671874,-0.1936275521337986,-0.5990349836856127,-0.3425163833528757
1776442221829679000,25.88367919921875,1.3931468415305017,-0.7121226528789848,-1.277299571430683
1776442221854696000,25.908696044921875,0.9267346139177679,-1.0933459296364336,-0.8417471769839525
1776442221879714000,25.933714111328126,0.18488573501259087,-0.6921463981032371,0.3332955505430698
1776442221904731100,25.958731201171876,-0.23634967252910136,-0.37171171737276015,0.61390405151546
1776442221929748000,25.983748046875,0.0790130386993289,-0.2620139098133892,-0.9904273338884114
1776442221954766000,26.00876611328125,0.22359452811330555,0.14537556240111588,0.4049386449962854
1776442221979783000,26.033782958984375,-0.14706044674813745,0.028839067928120493,1.2805547738343477
1776442222004800800,26.05880078125,-0.14096563700437545,-0.8202737424530089,0.2520908470183611
1776442222029817900,26.08381787109375,-0.34694808219000695,-0.15393201301805673,-1.024619526347518
1776442222054835700,26.108835693359374,0.09596227380409836,0.20492906367518007,-1.2804717717260121
1776442222079852800,26.133852783203125,-0.07185030746310948,-0.17442717710137368,-0.7387514974117279
1776442222104871000,26.158870849609375,-0.1879318977754563,-0.7335662037283182,0.031955227187275885
1776442222129887700,26.1838876953125,0.5531166245322674,-0.9906581469696014,-0.7720984712183475
1776442222154905900,26.20890576171875,-0.7493249138742685,0.653965282138437,-1.1452689360320567
1776442222179923000,26.2339228515625,-0.016506902731326406,0.014218166173063217,0.19538170232474802
1776442222204940800,26.25894091796875,0.7115466796219349,-0.6591554711926728,0.6557523116856813
1776442222229958000,26.2839580078125,0.7277683311045169,-0.23105503671970218,-0.2603419580131769
1776442222254974700,26.308974609375,-0.4518536139715463,-0.12635078139761463,-0.6526689587175846
1776442222279992800,26.333992919921876,-1.375382344520092,0.19514223101306705,0.07821078240573406
1776442222305009700,26.359009765625,-0.5201742129385472,0.07456432022873777,1.0783365034878254
1776442222330027800,26.38402783203125,0.3446335216373205,-0.29879723301054906,0.6051017363786697
1776442222355044600,26.409044677734375,-0.2566577165424824,0.10365311143449507,-0.1657195545107126
1776442222380062700,26.434062744140626,-0.8624369137912988,0.02652532935934141,0.20625322495102882
1776442222405079600,26.45907958984375,0.6472271329898387,-0.4078009756248444,0.6843529677480459
1776442222430098000,26.484097900390626,0.28579847083091736,0.15470813022339716,-0.30964345679879185
1776442222455114500,26.509114501953125,-1.241788113066554,0.3398314551178366,-0.12283435250818729
1776442222480132900,26.5341328125,-1.2087041741102933,0.28151748730977993,0.40361704100370405
1776442222505149700,26.559149658203125,0.4466530496537685,-0.24521591974757612,0.582818008378148
1776442222530167800,26.584167724609376,-0.6246510709792376,-0.03925857247058302,0.17858371225893496
1776442222555184600,26.6091845703125,-0.14508710084855556,0.04508775354810059,0.2437023733794689
1776442222580201700,26.63420166015625,0.8292863393396138,-0.38863347994871433,0.009932195949554443
1776442222605219600,26.659219482421875,-0.2485089699435979,-0.19863157096616924,-0.0662093789666891
1776442222630236700,26.684236572265625,-0.07053009171001613,-0.28050825546830893,0.062415831902623176
1776442222655254500,26.709254638671876,-0.40645664834380146,-0.5857565460480749,-0.09648819737434387
1776442222680271600,26.734271728515626,-1.406094878169894,-0.6111337465519086,0.9002239158719777
1776442222705289700,26.759289794921877,-0.5808727195292711,0.2759048533260822,-0.07575812855660916
1776442222730306600,26.784306640625,-0.8316840481311082,0.2784827227237634,-0.20015490807592867
1776442222755324700,26.80932470703125,-0.1797653232589364,1.4866897792331875,-1.953530607521534
1776442222780341500,26.834341552734376,-0.991422190144658,1.2741612734049559,-1.376594642919302
1776442222805359600,26.859359619140626,-0.5604033474743366,-0.34680359568540003,-0.3050631432712078
1776442222830376700,26.884376708984377,1.2877765417814253,0.03831495321122929,-0.3844043910115957
1776442222855394600,26.90939453125,0.3560195696569979,0.0638262832224369,0.08553425716161728
1776442222880411600,26.93441162109375,-0.7366318749092519,0.6658106182329356,-0.2397995207220316
1776442222905428700,26.9594287109375,0.6524421642243862,0.2206398795587942,0.7589286085218191
1776442222930446600,26.984446533203126,-0.0483741548076272,-0.10622379303956404,0.2814309232711792
1776442222955463700,27.009463623046877,-0.3032230683624744,-0.1673008506190963,0.10721534309387207
1776442222980485600,27.034485595703124,-0.616819062179327,-0.38038931015133853,0.27528467560112474
1776442223005502700,27.059502685546875,0.254543500867486,-0.44887076223585753,0.586260842308402
1776442223030520600,27.0845205078125,1.0159294394135474,-0.5879285928575322,0.36462533930838104
1776442223055537700,27.10953759765625,0.19587087408117948,0.5771531875494867,-0.027967618855834004
1776442223080555800,27.1345556640625,-0.5073930572986602,0.18157438197489828,0.07898293582201003
1776442223105572600,27.159572509765624,-0.16799217561781404,-0.25947186064776034,0.41349604546129703
1776442223130590700,27.1845908203125,-0.21523497004164382,0.3801294171061367,0.47686347900032994
1776442223155607800,27.20960791015625,1.6969518014341591,-1.4859060815095901,2.3385995999217033
1776442223180624600,27.234624755859375,0.9445277525007724,-2.0513585290670395,1.35526251655519
1776442223205642800,27.259642822265626,-1.7638212517447769,2.723087577563524,-1.9537340211391447
1776442223230659800,27.284659912109376,0.5826070690412074,2.009222684127092,-0.15395254434943198
1776442223255677700,27.309677734375,-0.19467559988200664,-1.0866628716759383,0.5301788896024227
1776442223280694800,27.33469482421875,0.1347673668861389,-0.9823262988887727,0.42108840028643607
1776442223305712600,27.359712646484375,-0.18413082499206065,-0.3735274250252172,0.03295768222808838
1776442223330729700,27.384729736328126,0.26386428692042824,0.42476117051504547,0.4872586162865162
1776442223355747600,27.40974755859375,0.34779739249572156,-0.2083992970690131,0.012405892586708068
1776442223380764700,27.4347646484375,0.36386253824234005,-0.2589469965234399,-0.09940262351632118
1776442223405782800,27.45978271484375,0.6523490791134536,0.11999679099470376,-0.46799628193378445
1776442223430799600,27.484799560546875,-0.41214112372100353,0.08586173555031418,-0.0860386995524168
1776442223455817700,27.509817626953126,-1.2058235041074454,0.33245442354381083,1.0404396112918852
1776442223480834800,27.534834716796876,0.27517726970389483,0.12563428542502222,0.3440782258421182
1776442223505851600,27.5598515625,1.0724616201050579,0.3324653467966243,-0.35363165160715576
1776442223530869800,27.584869873046873,0.4817629414796829,-0.42183527313098307,-0.8705407252699137
1776442223555886800,27.609886962890624,-0.04887888945937156,-0.30539029286634173,-0.9095902946323156
1776442223580904700,27.63490478515625,-0.2613923438489437,0.3996007545670494,0.4751216037690639
1776442223605921800,27.659921875,0.01825008857026696,-0.26663338630758227,1.121982168468833
1776442223630939600,27.684939697265627,-1.1109674379795789,-0.8344434298418462,2.324222699522972
1776442223655956700,27.709956787109373,-1.805341595134884,0.5693691826097667,2.904363013124466
1776442223680974800,27.734974853515624,-1.873821257121116,1.1339933626495302,0.9437672895222902
1776442223705991700,27.75999169921875,-0.0047393034815788266,0.24559169425740837,-0.5081628726273775
1776442223731009800,27.785009765625,0.4124492398221046,-0.7247194649279117,-1.045814874589443
1776442223756026600,27.810026611328126,-0.6383756449490785,0.1040466499298811,-0.30174305893778797
1776442223781044700,27.835044677734373,-0.39306466732919215,1.0447584974043072,0.7084539743036031
1776442223806061800,27.860061767578124,0.6618623189985752,0.7341080555200576,0.4550964683502912
1776442223831078700,27.88507861328125,0.3913613705426454,-0.054532239045947783,-0.15390987425148486
1776442223856096800,27.9100966796875,0.3067185457954183,-0.7195898469544947,-0.30873744786977764
1776442223881113600,27.935113525390626,0.07766304886247963,-0.10638473748862742,-0.3689887952148914
1776442223906131700,27.960131591796873,1.0189573358673603,0.3694181265428662,-1.415397544044256
1776442223931148500,27.9851484375,0.5242728804290294,-0.5315089691624045,-1.695262533172965
1776442223956166700,28.010166748046874,-0.17700374959111212,-1.5164141786284744,-0.0613952566832304
1776442223981180400,28.035180419921875,-0.924783772110939,0.08053352626487613,0.1063163484275341
1776442224006198500,28.060198486328126,-0.4223837007939815,1.300469580746442,-0.44059974096417426
1776442224031215400,28.08521533203125,2.309436487670988,0.6295036255769432,1.7387515462875365
1776442224056233500,28.1102333984375,0.7289467272341251,-0.4724136599846184,-1.0186813684701919
1776442224081250300,28.135250244140625,-1.1771793011642993,0.9523762740440667,0.5031698866456746
1776442224106267400,28.160267333984375,-1.136926347361505,-0.6294838979631662,-2.0114999814093113
1776442224131285500,28.185285400390626,-0.06892609057947993,-1.721120904789865,-1.0866945819884537
1776442224156302300,28.21030224609375,0.20116759224981068,-0.565654399870336,0.984316742053628
1776442224181320400,28.235320556640627,0.43056934533715246,-1.4124310954540966,1.1725041489601133
1776442224206337500,28.260337646484373,0.09078399438336492,-2.0055362506993113,-0.4196446312189102
1776442224231355400,28.28535546875,0.38965281305909155,-1.8033419457502662,-1.1099532925009727
1776442224256372500,28.31037255859375,-1.3263769060716033,-1.2679568658068776,-0.5769540847808122
1776442224281390300,28.335390380859376,-0.1628948524788022,-0.5961478839419782,-0.2924363014101982
1776442224306407400,28.360407470703127,0.48720367122888564,-0.015925152754038573,-0.1751794567734003
1776442224331425500,28.385425537109374,0.614183745239675,0.19353271345719694,-0.18712065445780754
1776442224356442400,28.4104423828125,-0.3585423661328852,1.1085641762301326,0.5002455236315727
1776442224381460500,28.43546044921875,0.06009937165379524,1.183791851171851,0.5269833084315061
1776442224406477600,28.4604775390625,0.18808263135775924,0.9357410733245313,-0.6767039142996072
1776442224431494400,28.485494384765627,0.05166968922168016,0.9377873383298516,-0.9566127425700426
1776442224456512500,28.510512451171873,0.17894962296187877,0.8635738819319755,-0.8196119175434112
1776442224481529600,28.535529541015624,-5.937371110862493,1.9113538460493087,0.45824528777003287
1776442224506547500,28.56054736328125,-0.451700688432157,1.4732511825978756,0.12659633539021015
1776442224531564500,28.585564453125,-0.3880848330900073,0.3589388181045651,-0.5199135161757469
1776442224556582400,28.61058251953125,1.7669874606907368,-0.34827823481522496,-0.1177402442395687
1776442224581599500,28.635599609375,-0.05217910004854202,-1.994797560672462,-0.25289748722612854
1776442224606617300,28.660617431640624,-1.0983233527228236,-0.7594422571323811,-0.9495897120654583
1776442224631634400,28.685634521484374,-0.7779036503657698,-0.06646776504139415,-1.207546820768714
1776442224656652500,28.710652587890625,0.5606722275435925,0.7382320035822689,0.04111994589567184
1776442224681669400,28.73566943359375,1.0748024841427803,0.4426917082747444,0.5924333934634923
1776442224706687500,28.7606875,0.9570748071238397,-0.12543212304958143,0.6545739155560731
1776442224731704600,28.78570458984375,1.084717144435644,-0.27521592121385036,-0.039594343763589855
1776442224756721400,28.810721435546874,1.0221255175746977,-0.38480383865796025,0.6388099447131157
1776442224781739500,28.835739501953125,-0.06118782447762787,-0.00655632630828768,0.28470950655043126
1776442224806756600,28.860756591796875,-0.9860767374634742,0.47836135287526993,-0.0809060128390789
1776442224831774500,28.8857744140625,-1.1696937677145003,-0.6326855435486882,0.19292378777861593
1776442224856791600,28.91079150390625,0.1380874512195587,-0.1381879524519667,0.04074117571115494
1776442224881809400,28.935809326171874,0.10070493828654288,-0.32806649078316985,0.510595652732253
1776442224906826500,28.960826416015625,1.0181026917994023,-0.07087682278845459,1.407398946505785
1776442224931844400,28.98584423828125,1.0942203013181686,0.16268880851268766,0.6716618284791708
1776442224956861400,29.010861328125,-0.34135428077094254,0.1905424821326509,-0.5206541054099798
1776442224981879300,29.03587939453125,-1.1069191855020821,0.29775400756793097,-0.5977957972794771
1776442225006896000,29.060896240234374,-0.5948825401812792,0.04883808252494782,0.1287251641124487
1776442225031913000,29.085912841796876,-0.1896938659466803,-0.5371372208403423,0.15807283914983272
1776442225056931000,29.11093115234375,0.35273791763782497,-0.8444837623409926,-0.18580021950900555
1776442225081948200,29.1359482421875,-0.7634738507360219,-0.7988691353745758,-0.4152198005139828
1776442225106966000,29.160966064453124,-0.48151875746026634,-0.6649374155949801,0.17764321653842924
1776442225131983000,29.185983154296874,0.08736907137334346,-0.8106312501650303,0.22483751391172407
1776442225157001000,29.2110009765625,-1.0966976512171327,-0.38789223312735555,-0.29865619883835315
1776442225182018000,29.23601806640625,-0.6286246507853269,0.1608175712807104,-0.14047288505136965
1776442225207036000,29.261035888671874,0.020983166795969007,-0.5698563085395842,0.47031917192339895
1776442225232053000,29.286052978515624,-0.19439342193976045,-1.1853931488886476,0.5809983917355537
1776442225257071000,29.311071044921874,-0.8662129251986741,-0.6103025198921561,0.25170856970250605
1776442225282088000,29.336087890625,-0.49009530101716514,0.03648497957140207,0.03727846803665161
1776442225307106000,29.36110595703125,-0.32620471549928187,0.4513954218752682,-0.2438631168991327
1776442225332123100,29.386123046875,-0.0842990162782371,0.3628511692427099,-0.4125818532258272
1776442225357140000,29.411139892578124,0.07679726234599947,-0.03061623366847634,-0.38141339250206946
1776442225382158000,29.436157958984374,-0.14273688446059823,-0.2381963233090937,-0.04138064265847206
1776442225407175200,29.461175048828125,0.4666415063239634,-0.1261728492811322,0.2864414449095726
1776442225432193000,29.486193115234375,0.5798359238274395,-0.08864771300703286,0.16734686345160008
1776442225457210000,29.511210205078125,-0.01713233658671379,0.4402478587865829,0.462661350646615
1776442225482228000,29.53622802734375,-0.44757937071844933,0.26056363793984055,0.13170564122796058
1776442225507245000,29.5612451171875,-0.2737853769540787,0.6335384340509772,-0.13702654398977757
1776442225532263200,29.58626318359375,0.11980945172905921,0.030007600250840184,-0.02396072130203247
1776442225557280000,29.611280029296875,-0.0775312757089734,-0.646054801274836,-0.2492839729040861
1776442225582298000,29.636298095703125,-0.12477175031155346,0.04642243621796369,-0.16047580863833427
1776442225607315000,29.66131494140625,-0.172147541731596,0.6642471683084964,-0.3177595432370901
1776442225632332000,29.68633203125,-0.1486390942417085,0.1630211092069745,0.04941197342276573
1776442225657350100,29.71135009765625,-0.17515198424458503,-0.24072489193864166,0.8416822950541972
1776442225682367000,29.736366943359375,0.025314181737601756,-0.34242841280847786,1.0782827274739741
1776442225707385000,29.761385009765625,0.23872721531540153,0.2683970349792391,0.7720318357229232
1776442225732402200,29.786402099609376,-0.3432312536239624,0.098190946171619,0.4701508296191692
1776442225757420000,29.811419921875,0.10063947183489799,-0.08931505434196442,0.06198971544504165
1776442225782437000,29.83643701171875,0.20838672984838486,0.12413312361445278,0.041132805377244945
1776442225807455000,29.861455078125,0.044139439847320314,0.6295161927975714,-0.11743337024748325
1776442225832472000,29.88647216796875,0.07301847445964812,1.0650180261008442,-0.00022387188374996183
1776442225857490200,29.911490234375,0.04001753761172294,1.0668433418318628,-0.4462532366812229
1776442225882507000,29.936507080078126,0.250524328354001,0.787453130608052,-0.350371188506484
1776442225907524000,29.961524169921876,0.887989361264184,-0.3635967269130051,0.14263912317454813
1776442225932542200,29.986542236328123,0.02265679909661412,-0.27653138772659,0.148601830971241
1776442225957559000,30.01155908203125,1.414964997845888,0.9114898446433246,0.08943944790661335
1776442225982576600,30.03657666015625,1.2182213595181703,0.7847230480570345,0.2118395006507635
1776442226007593700,30.06159375,1.5172516523659227,0.15045081983879208,0.23721651849150657
1776442226032611600,30.086611572265625,1.0607692826151847,-0.3168071744157001,-0.35815409746766086
1776442226057628700,30.111628662109375,0.7662380547523499,-0.8253446890417486,0.05132277548015118
1776442226082646500,30.136646484375,0.41214623828753827,-0.9613275691974907,-0.2883025626063347
1776442226107663600,30.16166357421875,-0.18948241515308617,-0.2553015526931733,-0.2641279062926769
1776442226132681700,30.186681640625,-0.013261924894154072,0.03731820639199577,0.28054420356452464
1776442226157698600,30.211698486328125,-0.04686404250562191,-0.2564103541852906,0.2615495802372694
1776442226182715600,30.236715576171875,-0.6107552320957184,-0.4132143424430862,0.34893268013596535
1776442226207733500,30.2617333984375,-0.8455252342179417,0.03635382747240364,0.023538111975789068
1776442226232750600,30.28675048828125,-0.29059096580445765,0.689240009137243,0.21994681926071644
1776442226257768700,30.311768798828126,0.6918363092407583,-1.087215244861692,-0.4451631033569574
1776442226282785500,30.33678564453125,0.5374044569417834,-1.4965098931103944,-0.2386141103297472
1776442226307803600,30.3618037109375,-0.8156859762713312,-0.5095695245549082,-0.20224632739722728
1776442226332820700,30.38682080078125,-0.8781453550547361,-0.3529154661618173,-0.14398995326161385
1776442226357838600,30.411838623046876,-0.21038988636434078,-1.4075859935104846,-0.22631576977074144
1776442226382855700,30.436855712890626,-0.06070522859245538,-1.3161236614741385,0.04627718252837658
1776442226407873500,30.46187353515625,0.47695203406661746,-0.13662534277774394,0.6041337681293487
1776442226432890600,30.486890625,0.7176350596249104,-0.929797654750198,0.4191875351011753
1776442226457908700,30.51190869140625,-0.006286240662634372,-0.7593808823339641,0.1868301470786333
1776442226482925600,30.536925537109376,-0.4709072009444236,0.4547109030988067,0.38421442139744755
1776442226507942700,30.561942626953126,0.5450637395232916,-0.13312237615808845,-0.06562777968645095
1776442226532960800,30.586960693359377,1.7915630990207194,-0.39328006364554163,-0.9015940351814031
1776442226557977600,30.6119775390625,1.6950655492961406,-0.7796470599669962,-0.12114917590022087
1776442226582995700,30.63699560546875,1.2750836489468813,-0.15903803092017768,-0.1009831707060337
1776442226608012800,30.6620126953125,-0.7931605484694242,-0.1935311060220003,-0.7285667880058289
1776442226633030700,30.68703076171875,-0.9634925652116536,-0.5520924691163003,-0.5883399866700172
1776442226658047700,30.7120478515625,-0.4383317960321903,-0.3810748812627047,-0.35750703173577786
1776442226683065600,30.737065673828123,-2.3806121107429266,1.8173089501738546,0.28645138178169727
1776442226708082700,30.762082763671874,-2.481739073833823,2.9175156324252485,1.5417244148433207
1776442226733100500,30.7871005859375,-0.41614246831685303,-0.38614162660036233,0.008723404681682586
1776442226758117600,30.81211767578125,0.7252800214201212,-0.9265607917208224,-0.9446382271379232
1776442226783134700,30.837134765625,0.990379695354402,-0.6841719120927154,-1.3229635904967785
1776442226808152600,30.862152587890623,-1.122110763284564,0.1674498123694211,1.5711971775650977
