time,seconds_elapsed,z,y,x
1776442196036807000,0.090806884765625,-41.4718017578125,-1.7710113525390625,10.403717041015625
1776442196061823700,0.11582373046875,-41.747528076171875,-1.5955047607421875,10.868362426757812
1776442196086840800,0.1408408203125,-41.544921875,-1.5712127685546875,10.549774169921875
1776442196111857700,0.165857666015625,-41.676300048828125,-1.6543731689453125,10.599380493164062
1776442196136875800,0.190875732421875,-41.970611572265625,-1.2906951904296875,10.327865600585938
1776442196161892600,0.215892578125,-41.72882080078125,-1.364227294921875,10.556930541992188
1776442196186909700,0.24090966796875,-41.512786865234375,-1.135772705078125,10.8603515625
1776442196211926800,0.2659267578125,-41.8189697265625,-0.7008209228515625,11.303695678710938
1776442196236943600,0.290943603515625,-41.314727783203125,-0.102264404296875,11.142227172851562
1776442196261960700,0.315960693359375,-41.1949462890625,0.02740478515625,11.323226928710938
1776442196286977800,0.340977783203125,-41.1588134765625,0.3126220703125,11.672607421875
1776442196311995000,0.365994873046875,-40.94268798828125,0.4480438232421875,11.828384399414062
1776442196337011700,0.39101171875,-40.7998046875,1.0534515380859375,12.228057861328125
1776442196362028800,0.41602880859375,-41.36175537109375,1.0527496337890625,12.439788818359375
1776442196387046000,0.4410458984375,-41.120330810546875,1.591156005859375,12.78472900390625
1776442196412063700,0.466063720703125,-40.984771728515625,1.7791290283203125,12.828414916992188
1776442196437080800,0.491080810546875,-40.480133056640625,1.7520904541015625,13.092437744140625
1776442196462097700,0.51609765625,-41.0064697265625,1.6379852294921875,13.206512451171875
1776442196487114800,0.54111474609375,-40.941253662109375,2.1875152587890625,13.585906982421875
1776442196512131600,0.566131591796875,-40.662689208984375,2.666259765625,13.919631958007812
1776442196537148700,0.591148681640625,-40.39617919921875,2.83544921875,14.054656982421875
1776442196562165800,0.616165771484375,-40.443389892578125,3.157867431640625,14.22705078125
1776442196587182800,0.641182861328125,-40.12615966796875,3.634002685546875,14.385879516601562
1776442196612199700,0.66619970703125,-39.92529296875,3.7194366455078125,14.861907958984375
1776442196637216800,0.691216796875,-39.732086181640625,4.0511474609375,15.633636474609375
1776442196662235000,0.71623486328125,-39.221588134765625,4.3830108642578125,16.764572143554688
1776442196687251700,0.741251708984375,-38.338653564453125,5.007110595703125,18.093109130859375
1776442196712268800,0.766268798828125,-38.104827880859375,5.5379638671875,18.925338745117188
1776442196737286000,0.791285888671875,-37.302032470703125,6.3597869873046875,19.773284912109375
1776442196762302700,0.816302734375,-37.114349365234375,6.6698150634765625,20.92681884765625
1776442196787319600,0.841319580078125,-36.177032470703125,6.081329345703125,22.402420043945312
1776442196812336600,0.866336669921875,-35.543243408203125,5.313323974609375,23.186355590820312
1776442196837353700,0.891353759765625,-35.615966796875,4.0033111572265625,23.457351684570312
1776442196862370800,0.916370849609375,-35.259521484375,2.8271026611328125,23.583267211914062
1776442196887388700,0.941388671875,-35.595855712890625,1.951385498046875,23.549407958984375
1776442196912405800,0.96640576171875,-35.271575927734375,1.434967041015625,23.814178466796875
1776442196937422800,0.9914228515625,-35.3358154296875,1.5503387451171875,24.181838989257812
1776442196962439400,1.016439453125,-35.344970703125,1.2684326171875,24.27825927734375
1776442196987456300,1.041456298828125,-35.7755126953125,0.274993896484375,24.17340087890625
1776442197012473300,1.066473388671875,-35.687347412109375,0.108062744140625,24.234268188476562
1776442197037490400,1.091490478515625,-35.601715087890625,-0.30780029296875,24.446044921875
1776442197062507300,1.11650732421875,-35.5904541015625,-0.875457763671875,24.363449096679688
1776442197087525400,1.141525390625,-35.7034912109375,-1.2982025146484375,24.237045288085938
1776442197112542200,1.166542236328125,-35.211639404296875,-1.8549346923828125,24.194122314453125
1776442197137559300,1.191559326171875,-35.08038330078125,-2.5493011474609375,24.713760375976562
1776442197162576100,1.216576171875,-35.006683349609375,-3.2750396728515625,25.2584228515625
1776442197187593200,1.24159326171875,-35.28106689453125,-3.826934814453125,25.403030395507812
1776442197212610300,1.2666103515625,-34.908538818359375,-4.623931884765625,25.217193603515625
1776442197237627400,1.29162744140625,-34.782012939453125,-5.3720550537109375,26.06231689453125
1776442197262644200,1.316644287109375,-34.53265380859375,-5.5422515869140625,25.925247192382812
1776442197287661300,1.341661376953125,-34.483612060546875,-6.533782958984375,26.40423583984375
1776442197312679200,1.36667919921875,-34.24896240234375,-6.80572509765625,26.858230590820312
1776442197337696300,1.3916962890625,-34.0496826171875,-7.1550140380859375,27.135147094726562
1776442197362713300,1.41671337890625,-33.52191162109375,-7.1574554443359375,27.495315551757812
1776442197387730400,1.44173046875,-33.760040283203125,-7.3062896728515625,27.442047119140625
1776442197412747300,1.466747314453125,-33.1224365234375,-8.270599365234375,27.599227905273438
1776442197437764000,1.49176416015625,-32.970062255859375,-8.81597900390625,27.742477416992188
1776442197462781200,1.51678125,-32.893829345703125,-9.933792114257812,27.510269165039062
1776442197487798300,1.54179833984375,-33.222381591796875,-10.392974853515625,27.556167602539062
1776442197512816000,1.566816162109375,-33.40289306640625,-11.0157470703125,27.197311401367188
1776442197537833200,1.591833251953125,-33.492279052734375,-11.313446044921875,26.956466674804688
1776442197562850300,1.616850341796875,-33.6705322265625,-11.414840698242188,26.552444458007812
1776442197587867100,1.6418671875,-34.194610595703125,-11.231353759765625,26.499908447265625
1776442197612884200,1.66688427734375,-33.663665771484375,-10.000885009765625,26.837661743164062
1776442197637901300,1.6919013671875,-33.848541259765625,-9.957687377929688,26.878524780273438
1776442197662918400,1.71691845703125,-33.559173583984375,-10.244583129882812,26.80950927734375
1776442197687935200,1.741935302734375,-33.688568115234375,-10.576019287109375,26.61871337890625
1776442197712953300,1.766953369140625,-33.9188232421875,-11.06414794921875,26.086502075195312
1776442197737970400,1.791970458984375,-33.766510009765625,-11.269775390625,25.658828735351562
1776442197762987300,1.8169873046875,-34.649749755859375,-10.49102783203125,25.581787109375
1776442197788004000,1.842004150390625,-34.758209228515625,-10.742767333984375,25.478927612304688
1776442197813021200,1.867021240234375,-35.029449462890625,-10.502639770507812,24.834854125976562
1776442197838038300,1.892038330078125,-35.052520751953125,-10.692428588867188,24.363204956054688
1776442197863055000,1.91705517578125,-35.6097412109375,-10.264846801757812,23.898544311523438
1776442197888073200,1.9420732421875,-35.73260498046875,-10.211746215820312,23.642471313476562
1776442197913090300,1.96709033203125,-35.858428955078125,-10.309371948242188,23.365081787109375
1776442197938107100,1.992107177734375,-36.069671630859375,-10.372406005859375,22.934768676757812
1776442197963124200,2.017124267578125,-36.377899169921875,-11.42425537109375,22.098190307617188
1776442197988141300,2.042141357421875,-36.352142333984375,-12.07965087890625,21.397537231445312
1776442198013158400,2.067158447265625,-36.946990966796875,-12.9732666015625,20.12445068359375
1776442198038175200,2.09217529296875,-37.101837158203125,-13.7744140625,19.581527709960938
1776442198063192300,2.1171923828125,-37.16790771484375,-14.1595458984375,18.634384155273438
1776442198088210400,2.14221044921875,-37.193603515625,-14.8492431640625,18.00164794921875
1776442198113227300,2.167227294921875,-37.421051025390625,-15.266937255859375,17.008804321289062
1776442198138244000,2.192244140625,-37.31341552734375,-15.64154052734375,16.509445190429688
1776442198163261200,2.21726123046875,-37.531829833984375,-16.89215087890625,15.724029541015625
1776442198188278300,2.2422783203125,-37.489776611328125,-17.552291870117188,15.330368041992188
1776442198213295000,2.267295166015625,-37.433990478515625,-17.900482177734375,14.14251708984375
1776442198238312200,2.292312255859375,-37.666412353515625,-18.318801879882812,13.930572509765625
1776442198263330300,2.317330322265625,-37.769378662109375,-18.427078247070312,13.692825317382812
1776442198288347100,2.34234716796875,-38.005584716796875,-18.3370361328125,13.767730712890625
1776442198313364200,2.3673642578125,-37.719024658203125,-18.455825805664062,13.639434814453125
1776442198338381300,2.39238134765625,-37.488800048828125,-17.866592407226562,13.558120727539062
1776442198363398400,2.4173984375,-37.77679443359375,-17.410400390625,13.296463012695312
1776442198388415200,2.442415283203125,-38.15777587890625,-16.920730590820312,13.275604248046875
1776442198413432300,2.467432373046875,-38.394317626953125,-15.743515014648438,13.225433349609375
1776442198438449200,2.49244921875,-38.576934814453125,-15.376800537109375,13.345657348632812
1776442198463467300,2.51746728515625,-38.3382568359375,-14.794906616210938,13.812835693359375
1776442198488484000,2.542484130859375,-38.19598388671875,-14.628204345703125,13.915756225585938
1776442198513501200,2.567501220703125,-38.48028564453125,-14.734664916992188,13.490463256835938
1776442198538518300,2.592518310546875,-38.23602294921875,-14.782867431640625,13.262771606445312
1776442198563535000,2.61753515625,-38.98736572265625,-15.302810668945312,13.278228759765625
1776442198588552200,2.64255224609375,-37.855377197265625,-15.046661376953125,13.196334838867188
1776442198613569300,2.6675693359375,-38.1536865234375,-15.54486083984375,13.347824096679688
1776442198638587100,2.692587158203125,-38.059417724609375,-15.206924438476562,13.531768798828125
1776442198663604200,2.717604248046875,-38.593170166015625,-15.075210571289062,13.234954833984375
1776442198688621300,2.742621337890625,-38.41534423828125,-15.426849365234375,13.02520751953125
1776442198713638400,2.767638427734375,-38.022247314453125,-15.583877563476562,12.789688110351562
1776442198738655200,2.7926552734375,-38.04888916015625,-15.39501953125,12.614501953125
1776442198763672300,2.81767236328125,-38.5166015625,-15.363876342773438,12.714767456054688
1776442198788689200,2.842689208984375,-38.37713623046875,-15.60919189453125,12.53057861328125
1776442198813707300,2.867707275390625,-38.285064697265625,-15.813949584960938,12.301498413085938
1776442198838724000,2.89272412109375,-37.208587646484375,-16.589584350585938,12.026641845703125
1776442198863741200,2.9177412109375,-37.278594970703125,-17.672821044921875,11.838150024414062
1776442198888758300,2.94275830078125,-36.8385009765625,-17.898818969726562,11.613327026367188
1776442198913775000,2.967775146484375,-36.524627685546875,-18.635299682617188,11.107772827148438
1776442198938792200,2.992792236328125,-35.921173095703125,-19.0250244140625,10.746734619140625
1776442198963810300,3.017810302734375,-35.460418701171875,-19.755081176757812,10.401336669921875
1776442198988828200,3.042828125,-35.350982666015625,-20.051467895507812,9.973052978515625
1776442199013845200,3.06784521484375,-35.367462158203125,-20.940597534179688,9.378799438476562
1776442199038862000,3.092862060546875,-35.397491455078125,-21.203201293945312,9.145553588867188
1776442199063879000,3.11787890625,-35.177642822265625,-21.694198608398438,8.751541137695312
1776442199088896000,3.14289599609375,-34.538970947265625,-21.793487548828125,7.7578887939453125
1776442199113913000,3.1679130859375,-34.5343017578125,-22.506362915039062,7.446990966796875
1776442199138930200,3.19293017578125,-34.535552978515625,-23.077728271484375,6.3412933349609375
1776442199163948000,3.217947998046875,-34.75482177734375,-23.386566162109375,5.433319091796875
1776442199188965000,3.242965087890625,-34.392730712890625,-23.789154052734375,4.5565948486328125
1776442199213982200,3.267982177734375,-34.682769775390625,-24.040496826171875,3.8607635498046875
1776442199238999000,3.2929990234375,-34.442108154296875,-24.184768676757812,2.7997283935546875
1776442199264016100,3.31801611328125,-33.987091064453125,-23.786163330078125,2.1822967529296875
1776442199289033200,3.343033203125,-34.734161376953125,-23.223480224609375,1.166259765625
1776442199314051000,3.368051025390625,-34.981170654296875,-22.756393432617188,0.7283477783203125
1776442199339068200,3.393068115234375,-35.5181884765625,-22.415054321289062,0.359771728515625
1776442199364085200,3.418085205078125,-35.356414794921875,-22.081283569335938,-0.050689697265625
1776442199389102000,3.44310205078125,-35.850738525390625,-21.758880615234375,-0.3518218994140625
1776442199414119000,3.468118896484375,-36.21685791015625,-21.889205932617188,-0.8808441162109375
1776442199439136000,3.493135986328125,-35.47528076171875,-21.800552368164062,-1.49969482421875
1776442199464153000,3.518153076171875,-35.635589599609375,-21.67376708984375,-1.852020263671875
1776442199489171000,3.5431708984375,-35.523040771484375,-21.712326049804688,-2.3479766845703125
1776442199514188000,3.56818798828125,-35.58721923828125,-21.63934326171875,-3.0452728271484375
1776442199539205000,3.593205078125,-35.89642333984375,-21.17547607421875,-3.9421539306640625
1776442199564222200,3.61822216796875,-35.848297119140625,-21.510025024414062,-4.85272216796875
1776442199589239000,3.643239013671875,-35.238067626953125,-21.318511962890625,-5.3880157470703125
1776442199614256000,3.668256103515625,-35.48577880859375,-20.984970092773438,-5.9068603515625
1776442199639274200,3.693274169921875,-35.35247802734375,-21.04998779296875,-6.5677642822265625
1776442199664291000,3.718291015625,-35.58447265625,-20.756072998046875,-7.0135345458984375
1776442199689308200,3.74330810546875,-35.806427001953125,-20.68939208984375,-7.5208282470703125
1776442199714325200,3.7683251953125,-35.597259521484375,-20.497390747070312,-7.5886077880859375
1776442199739342000,3.793342041015625,-35.7742919921875,-20.66815185546875,-8.223709106445312
1776442199764359000,3.81835888671875,-35.29278564453125,-20.200881958007812,-8.44891357421875
1776442199789377000,3.843376953125,-35.25201416015625,-20.069168090820312,-9.44427490234375
1776442199814394000,3.86839404296875,-35.308013916015625,-19.324462890625,-9.719955444335938
1776442199839411000,3.893410888671875,-34.98046875,-19.31982421875,-10.269683837890625
1776442199864428000,3.918427978515625,-35.269744873046875,-18.922042846679688,-11.216522216796875
1776442199889445000,3.943445068359375,-34.91351318359375,-18.558792114257812,-11.411865234375
1776442199914462200,3.968462158203125,-34.984893798828125,-18.41552734375,-11.748687744140625
1776442199939480000,3.99347998046875,-34.959991455078125,-18.4163818359375,-12.147018432617188
1776442199964496100,4.01849609375,-34.79681396484375,-18.168594360351562,-12.124069213867188
1776442199989513200,4.04351318359375,-35.19891357421875,-18.005386352539062,-12.373611450195312
1776442200014530300,4.0685302734375,-35.113433837890625,-17.740447998046875,-12.677291870117188
1776442200039547100,4.093547119140625,-35.065277099609375,-17.581924438476562,-12.433792114257812
1776442200064564200,4.118564208984375,-35.05596923828125,-17.060531616210938,-12.34716796875
1776442200089582000,4.14358203125,-35.26611328125,-16.906692504882812,-12.558486938476562
1776442200114599200,4.16859912109375,-35.717010498046875,-16.577056884765625,-12.858047485351562
1776442200139616300,4.1936162109375,-35.552276611328125,-16.249893188476562,-12.877243041992188
1776442200164633300,4.21863330078125,-35.6905517578125,-15.836837768554688,-13.090667724609375
1776442200189650200,4.243650146484375,-35.758331298828125,-14.965240478515625,-13.361053466796875
1776442200214667300,4.268667236328125,-36.0950927734375,-14.487197875976562,-13.575775146484375
1776442200239685400,4.293685302734375,-36.471466064453125,-14.307815551757812,-13.920455932617188
1776442200264702200,4.3187021484375,-35.89013671875,-14.52117919921875,-13.804489135742188
1776442200289719300,4.34371923828125,-35.85888671875,-13.945938110351562,-14.221481323242188
1776442200314736400,4.368736328125,-35.784088134765625,-13.299041748046875,-14.942840576171875
1776442200339753200,4.393753173828125,-35.96343994140625,-12.695587158203125,-16.106719970703125
1776442200364770000,4.41877001953125,-35.7353515625,-12.066787719726562,-16.64251708984375
1776442200389788200,4.4437880859375,-35.74468994140625,-11.219345092773438,-17.57843017578125
1776442200414805200,4.46880517578125,-35.2210693359375,-10.155807495117188,-18.16583251953125
1776442200439822000,4.493822021484375,-35.116058349609375,-9.134963989257812,-19.813400268554688
1776442200464839200,4.518839111328125,-35.009185791015625,-7.9687957763671875,-20.795364379882812
1776442200489856300,4.543856201171875,-34.1463623046875,-6.140106201171875,-21.89849853515625
1776442200514873300,4.568873291015625,-34.171478271484375,-4.880950927734375,-23.09759521484375
1776442200539891200,4.59389111328125,-33.21820068359375,-3.265838623046875,-24.327255249023438
1776442200564908300,4.618908203125,-32.36846923828125,-1.83355712890625,-25.2615966796875
1776442200589925400,4.64392529296875,-32.315521240234375,0.2214813232421875,-25.555404663085938
1776442200614942200,4.668942138671875,-31.6314697265625,2.18182373046875,-25.900955200195312
1776442200639959300,4.693959228515625,-31.39080810546875,4.521392822265625,-25.848236083984375
1776442200664976400,4.718976318359375,-30.738433837890625,6.2371063232421875,-25.906997680664062
1776442200689994200,4.743994140625,-30.384185791015625,8.354019165039062,-25.743896484375
1776442200715011300,4.76901123046875,-30.80072021484375,9.66119384765625,-25.49359130859375
1776442200740028200,4.794028076171875,-30.983856201171875,11.766937255859375,-24.4407958984375
1776442200765045200,4.819045166015625,-31.552886962890625,12.621124267578125,-24.363021850585938
1776442200790062000,4.84406201171875,-31.376068115234375,13.055282592773438,-23.54290771484375
1776442200815080200,4.869080078125,-31.626983642578125,13.2998046875,-23.0894775390625
1776442200840097300,4.89409716796875,-31.924774169921875,13.8897705078125,-22.714584350585938
1776442200865114000,4.919114013671875,-31.771942138671875,15.02001953125,-22.09234619140625
1776442200890131200,4.944131103515625,-32.1585693359375,15.227706909179688,-21.759170532226562
1776442200915148300,4.969148193359375,-32.2117919921875,16.488876342773438,-20.278594970703125
1776442200940165400,4.994165283203125,-32.46649169921875,16.939804077148438,-19.758499145507812
1776442200965184500,5.0191845703125,-32.573577880859375,17.597747802734375,-18.62066650390625
1776442200990201300,5.044201416015625,-32.338531494140625,17.85711669921875,-17.921142578125
1776442201015218200,5.06921826171875,-33.19781494140625,18.03594970703125,-16.8223876953125
1776442201040235300,5.0942353515625,-33.124420166015625,17.905197143554688,-16.126876831054688
1776442201065252400,5.11925244140625,-33.704193115234375,17.97137451171875,-14.907989501953125
1776442201090270200,5.144270263671875,-33.702789306640625,18.087692260742188,-14.215072631835938
1776442201115287300,5.169287353515625,-34.649566650390625,18.2294921875,-13.104537963867188
1776442201140304400,5.194304443359375,-34.78216552734375,18.447265625,-12.49285888671875
1776442201165321500,5.219321533203125,-34.6192626953125,18.972122192382812,-10.804153442382812
1776442201190338300,5.24433837890625,-34.752532958984375,19.428009033203125,-9.9913330078125
1776442201215355400,5.26935546875,-34.30987548828125,20.866836547851562,-7.85980224609375
1776442201240373200,5.294373291015625,-34.072265625,21.580352783203125,-6.6415863037109375
1776442201265390300,5.319390380859375,-34.024658203125,21.997512817382812,-4.8151702880859375
1776442201290407400,5.344407470703125,-34.026336669921875,21.94244384765625,-4.36334228515625
1776442201315424500,5.369424560546875,-33.92864990234375,21.9222412109375,-3.046966552734375
1776442201340441300,5.39444140625,-33.991363525390625,22.008834838867188,-2.686065673828125
1776442201365459500,5.41945947265625,-33.9921875,22.04510498046875,-1.821044921875
1776442201390476300,5.444476318359375,-33.605499267578125,22.096267700195312,-1.414215087890625
1776442201415493400,5.469493408203125,-34.0333251953125,22.255966186523438,-0.7021026611328125
1776442201440510200,5.49451025390625,-34.14910888671875,22.518402099609375,-0.5735626220703125
1776442201465527300,5.51952734375,-34.090911865234375,22.534088134765625,0.4882965087890625
1776442201490545200,5.544545166015625,-33.74530029296875,22.68353271484375,1.237457275390625
1776442201515562200,5.569562255859375,-33.860321044921875,22.821182250976562,2.0560302734375
1776442201540579300,5.594579345703125,-33.679534912109375,22.839767456054688,2.611968994140625
1776442201565596400,5.619596435546875,-33.976898193359375,22.323623657226562,3.3693084716796875
1776442201590613200,5.64461328125,-34.03448486328125,22.45233154296875,3.683074951171875
1776442201615631400,5.66963134765625,-33.80352783203125,22.23236083984375,4.0221099853515625
1776442201640648400,5.6946484375,-33.85662841796875,22.490921020507812,3.9904327392578125
1776442201665665300,5.719665283203125,-33.74591064453125,22.45556640625,4.487548828125
1776442201690682400,5.744682373046875,-34.0567626953125,22.298233032226562,3.911376953125
1776442201715699500,5.769699462890625,-34.041778564453125,22.14715576171875,4.3445587158203125
1776442201740717300,5.79471728515625,-33.72833251953125,21.875564575195312,4.30670166015625
1776442201765734400,5.819734375,-33.888031005859375,21.874740600585938,4.90594482421875
1776442201790751200,5.844751220703125,-33.7989501953125,22.069992065429688,5.234893798828125
1776442201815768300,5.869768310546875,-33.809326171875,21.582687377929688,6.2507171630859375
1776442201840785200,5.89478515625,-34.060150146484375,21.344497680664062,6.4942626953125
1776442201865803300,5.91980322265625,-34.079833984375,21.255355834960938,7.51239013671875
1776442201890820400,5.9448203125,-34.125518798828125,21.30255126953125,7.740264892578125
1776442201915837200,5.969837158203125,-33.61163330078125,21.033905029296875,8.98126220703125
1776442201940854300,5.994854248046875,-33.89483642578125,20.585891723632812,9.427215576171875
1776442201965870800,6.019870849609375,-33.282073974609375,20.28118896484375,11.5855712890625
1776442201990889000,6.044888916015625,-33.111480712890625,20.047042846679688,13.078628540039062
1776442202015905800,6.06990576171875,-33.069793701171875,19.304473876953125,15.009735107421875
1776442202040923000,6.0949228515625,-32.4158935546875,19.047027587890625,16.226837158203125
1776442202065940000,6.11993994140625,-32.383575439453125,18.882827758789062,17.152267456054688
1776442202090956800,6.144956787109375,-31.846160888671875,18.281707763671875,17.970962524414062
1776442202115975000,6.169974853515625,-31.592254638671875,17.199295043945312,19.628921508789062
1776442202140992000,6.194991943359375,-31.342254638671875,16.256149291992188,21.1502685546875
1776442202166008800,6.2200087890625,-31.766571044921875,14.5526123046875,22.876052856445312
1776442202191026000,6.24502587890625,-31.338470458984375,13.196807861328125,23.381256103515625
1776442202216044000,6.2700439453125,-31.426422119140625,11.635162353515625,23.756088256835938
1776442202241060900,6.295060791015625,-31.907257080078125,10.204788208007812,24.315292358398438
1776442202266078000,6.320077880859375,-32.98150634765625,8.017623901367188,24.469894409179688
1776442202291095000,6.345094970703125,-33.464385986328125,6.028167724609375,24.482284545898438
1776442202316112100,6.370112060546875,-33.746307373046875,3.82427978515625,24.225448608398438
1776442202341130000,6.3951298828125,-33.759613037109375,2.9546051025390625,24.318862915039062
1776442202366147000,6.42014697265625,-34.169158935546875,2.3037109375,24.593353271484375
1776442202391164200,6.4451640625,-33.375091552734375,2.62322998046875,24.917922973632812
1776442202416180700,6.4701806640625,-33.3746337890625,2.97003173828125,25.3748779296875
1776442202441199000,6.49519921875,-33.395782470703125,3.0339508056640625,25.179214477539062
1776442202466216000,6.5202158203125,-33.074554443359375,3.171630859375,25.758621215820312
1776442202491232800,6.545232666015625,-33.079010009765625,3.502044677734375,25.628265380859375
1776442202516249900,6.570249755859375,-32.65875244140625,3.8133392333984375,25.498245239257812
1776442202541267000,6.595266845703125,-33.36175537109375,4.213836669921875,25.099227905273438
1776442202566284800,6.620284912109375,-33.32281494140625,4.807403564453125,24.796554565429688
1776442202591302000,6.645302001953125,-33.10723876953125,5.101837158203125,24.79071044921875
1776442202616319000,6.670319091796875,-33.1824951171875,5.453277587890625,24.473358154296875
1776442202641336000,6.695336181640625,-33.299652099609375,5.4072113037109375,24.683197021484375
1776442202666354000,6.72035400390625,-33.0115966796875,5.3599853515625,24.819076538085938
1776442202691371000,6.74537109375,-32.807098388671875,4.631500244140625,24.936737060546875
1776442202716388000,6.77038818359375,-32.6378173828125,4.3219451904296875,25.309661865234375
1776442202741405000,6.795405029296875,-32.327972412109375,4.40966796875,25.706710815429688
1776442202766422000,6.820422119140625,-32.39215087890625,4.23199462890625,25.8521728515625
1776442202791440100,6.845440185546875,-32.01336669921875,4.432708740234375,25.88348388671875
1776442202816457000,6.87045703125,-31.868133544921875,4.1267242431640625,25.840545654296875
1776442202841474000,6.89547412109375,-32.458465576171875,4.3160400390625,26.067352294921875
1776442202866491100,6.9204912109375,-32.695770263671875,4.388336181640625,26.132675170898438
1776442202891509000,6.945509033203125,-32.783843994140625,4.4592742919921875,25.47039794921875
1776442202916526000,6.970526123046875,-32.5400390625,4.5482025146484375,25.408370971679688
1776442202941543000,6.99554296875,-32.726348876953125,4.9662933349609375,25.886215209960938
1776442202966559500,7.0205595703125,-32.660980224609375,5.0294952392578125,25.398666381835938
1776442202991577300,7.045577392578125,-33.068267822265625,5.5962371826171875,25.1632080078125
1776442203016594400,7.070594482421875,-32.832611083984375,5.8778533935546875,25.47418212890625
1776442203041611500,7.095611572265625,-32.329345703125,5.7469024658203125,25.73260498046875
1776442203066628400,7.12062841796875,-32.404449462890625,5.7591705322265625,25.792877197265625
1776442203091646500,7.145646484375,-32.423004150390625,5.99395751953125,25.50537109375
1776442203116663600,7.17066357421875,-32.568206787109375,5.7338714599609375,25.53857421875
1776442203141680000,7.19568017578125,-32.60943603515625,4.694427490234375,26.053848266601562
1776442203166697200,7.220697265625,-32.961669921875,4.0780792236328125,25.790115356445312
1776442203191715300,7.24571533203125,-32.487030029296875,3.3277130126953125,26.060012817382812
1776442203216732200,7.270732177734375,-32.3280029296875,2.7105712890625,26.657073974609375
1776442203241749200,7.295749267578125,-31.89166259765625,1.212646484375,27.707443237304688
1776442203266766300,7.320766357421875,-31.647369384765625,0.3429107666015625,27.739120483398438
1776442203291784200,7.3457841796875,-31.391815185546875,-1.2365875244140625,28.146697998046875
1776442203316801300,7.37080126953125,-30.393157958984375,-1.4358673095703125,29.54541015625
1776442203341818400,7.395818359375,-28.5516357421875,-3.32794189453125,30.8992919921875
1776442203366835500,7.42083544921875,-27.173065185546875,-4.502410888671875,32.15855407714844
1776442203391853300,7.445853271484375,-24.847137451171875,-6.646270751953125,33.86787414550781
1776442203416870400,7.470870361328125,-22.05731201171875,-7.7383880615234375,35.17237854003906
1776442203441887500,7.495887451171875,-19.110687255859375,-9.54052734375,36.63525390625
1776442203466904300,7.520904296875,-18.52105712890625,-10.70306396484375,36.358306884765625
1776442203491922400,7.54592236328125,-18.70159912109375,-12.064498901367188,36.10113525390625
1776442203516939500,7.570939453125,-19.802978515625,-12.202056884765625,35.79017639160156
1776442203541956400,7.595956298828125,-21.0068359375,-11.988937377929688,34.85075378417969
1776442203566973400,7.620973388671875,-21.60430908203125,-11.73809814453125,34.65069580078125
1776442203591991600,7.645991455078125,-22.9462890625,-11.105377197265625,33.83158874511719
1776442203617008400,7.67100830078125,-23.850311279296875,-10.858367919921875,33.18194580078125
1776442203642025200,7.696025146484375,-25.930816650390625,-10.95123291015625,31.825759887695312
1776442203667042300,7.721042236328125,-26.810638427734375,-10.883132934570312,31.016036987304688
1776442203692060200,7.74606005859375,-27.682586669921875,-10.891860961914062,30.31890869140625
1776442203717077200,7.7710771484375,-28.21441650390625,-10.57379150390625,29.965225219726562
1776442203742094300,7.79609423828125,-29.165008544921875,-10.714111328125,28.513687133789062
1776442203767111400,7.821111328125,-30.1722412109375,-10.856414794921875,28.38555908203125
1776442203792129300,7.84612939453125,-30.178680419921875,-10.046112060546875,28.178665161132812
1776442203817146400,7.871146484375,-30.463409423828125,-9.46966552734375,27.695709228515625
1776442203842163200,7.8961630859375,-31.73193359375,-9.621551513671875,26.8988037109375
1776442203867180300,7.92118017578125,-31.678741455078125,-9.213211059570312,26.442413330078125
1776442203892198400,7.946198486328125,-32.349365234375,-9.636795043945312,26.157012939453125
1776442203917215200,7.97121533203125,-32.158782958984375,-9.300918579101562,26.170639038085938
1776442203942232300,7.996232421875,-32.718231201171875,-9.357833862304688,25.77923583984375
1776442203967250000,8.02125,-32.8817138671875,-9.074188232421875,25.8203125
1776442203992267800,8.046267822265625,-33.085113525390625,-8.781967163085938,25.331710815429688
1776442204017284900,8.071284912109375,-33.532012939453125,-8.517288208007812,25.009109497070312
1776442204042302000,8.096302001953125,-33.796875,-8.442901611328125,24.142791748046875
1776442204067319800,8.12131982421875,-34.060150146484375,-8.102890014648438,23.871185302734375
1776442204092337000,8.1463369140625,-34.834991455078125,-7.6695098876953125,23.203872680664062
1776442204117354000,8.17135400390625,-34.871429443359375,-8.172714233398438,23.063217163085938
1776442204142370800,8.196370849609375,-34.63519287109375,-8.420852661132812,22.747100830078125
1776442204167389000,8.221388916015625,-34.54083251953125,-8.5435791015625,22.686965942382812
1776442204192406000,8.246406005859376,-35.405364990234375,-8.944122314453125,22.339828491210938
1776442204217422800,8.2714228515625,-35.308868408203125,-8.693984985351562,22.259506225585938
1776442204242440000,8.29643994140625,-36.128173828125,-8.570724487304688,21.786300659179688
1776442204267458000,8.3214580078125,-36.024139404296875,-8.575057983398438,21.843170166015625
1776442204292475000,8.346474853515625,-36.09600830078125,-8.26263427734375,21.72235107421875
1776442204317491700,8.37149169921875,-35.697967529296875,-7.8404998779296875,21.49420166015625
1776442204342510000,8.396510009765626,-35.4725341796875,-7.569580078125,21.482177734375
1776442204367526700,8.421526611328124,-35.94769287109375,-7.576446533203125,21.288864135742188
1776442204392543700,8.446543701171874,-35.720611572265625,-7.7298126220703125,21.3619384765625
1776442204417560800,8.471560791015625,-35.628753662109375,-7.803985595703125,21.722335815429688
1776442204442578700,8.49657861328125,-35.571014404296875,-7.7007598876953125,21.566162109375
1776442204467595800,8.521595703125,-36.166290283203125,-7.373016357421875,21.306106567382812
1776442204492612900,8.54661279296875,-36.77044677734375,-7.034759521484375,20.634384155273438
1776442204517630700,8.571630615234374,-36.875274658203125,-6.7636566162109375,20.116836547851562
1776442204542647800,8.596647705078125,-36.706024169921875,-7.308685302734375,19.288345336914062
1776442204567665000,8.621664794921875,-37.054534912109375,-7.6078033447265625,18.517791748046875
1776442204592682000,8.646681884765625,-37.09906005859375,-8.060546875,17.30181884765625
1776442204617699800,8.671699951171876,-38.1309814453125,-8.202133178710938,15.393478393554688
1776442204642717000,8.696717041015624,-38.37371826171875,-8.326126098632812,15.305007934570312
1776442204667734000,8.721734130859375,-38.45208740234375,-8.921875,15.783309936523438
1776442204692752000,8.746751953125,-37.935821533203125,-8.905609130859375,16.087234497070312
1776442204717769000,8.77176904296875,-38.242156982421875,-8.246612548828125,16.462646484375
1776442204742786000,8.7967861328125,-38.196502685546875,-7.975189208984375,15.946624755859375
1776442204767803000,8.821802978515626,-38.48504638671875,-7.5202178955078125,15.640350341796875
1776442204792821000,8.846821044921874,-38.7015380859375,-7.5677490234375,15.476943969726562
1776442204817838000,8.871838134765625,-38.609588623046875,-8.051284790039062,15.1292724609375
1776442204842855000,8.89685498046875,-38.313079833984375,-8.367034912109375,14.74517822265625
1776442204867873000,8.921873046875,-38.86846923828125,-8.395248413085938,14.61138916015625
1776442204892889900,8.946889892578126,-38.694122314453125,-8.37445068359375,14.281723022460938
1776442204917906700,8.97190673828125,-38.743927001953125,-8.39935302734375,13.826171875
1776442204942923800,8.996923828125,-38.945220947265625,-8.441787719726562,13.490753173828125
1776442204967941400,9.02194140625,-38.9429931640625,-8.190841674804688,13.232864379882812
1776442204992958200,9.046958251953125,-39.24810791015625,-8.094680786132812,12.746810913085938
1776442205017975300,9.071975341796875,-39.2169189453125,-8.21478271484375,12.481887817382812
1776442205042993400,9.096993408203126,-39.37750244140625,-8.465118408203125,12.086090087890625
1776442205068010200,9.12201025390625,-39.20550537109375,-8.5831298828125,11.881240844726562
1776442205093027300,9.14702734375,-39.44598388671875,-9.074371337890625,11.713638305664062
1776442205118045400,9.17204541015625,-39.325469970703125,-9.633087158203125,11.288009643554688
1776442205143062300,9.197062255859375,-39.368743896484375,-9.676788330078125,11.276275634765625
1776442205168079000,9.2220791015625,-39.1591796875,-10.109893798828125,10.854278564453125
1776442205193096200,9.24709619140625,-39.19091796875,-10.583145141601562,10.390853881835938
1776442205218114000,9.272114013671874,-39.0794677734375,-11.184967041015625,9.895889282226562
1776442205243131100,9.297131103515625,-39.116180419921875,-11.556289672851562,10.039306640625
1776442205268148200,9.322148193359375,-39.29693603515625,-11.8447265625,9.431350708007812
1776442205293166000,9.347166015625,-39.0240478515625,-12.185516357421875,9.043243408203125
1776442205318183200,9.37218310546875,-38.9056396484375,-12.2210693359375,9.29840087890625
1776442205343200300,9.3972001953125,-38.990509033203125,-12.293701171875,9.275253295898438
1776442205368218000,9.422218017578125,-39.215576171875,-11.882720947265625,9.005477905273438
1776442205393235200,9.447235107421875,-39.512298583984375,-11.933135986328125,8.806060791015625
1776442205418252300,9.472252197265625,-39.379730224609375,-12.008941650390625,8.062118530273438
1776442205443270100,9.497270263671876,-38.929656982421875,-12.129989624023438,7.6563873291015625
1776442205468287200,9.522287353515624,-39.217559814453125,-12.535415649414062,7.2010345458984375
1776442205493304300,9.54730419921875,-39.445526123046875,-12.512939453125,7.0128326416015625
1776442205518322200,9.572322265625,-39.40948486328125,-13.193313598632812,6.8191680908203125
1776442205543339300,9.59733935546875,-39.650146484375,-13.291488647460938,6.314056396484375
1776442205568356400,9.6223564453125,-39.456756591796875,-13.429641723632812,6.398101806640625
1776442205593374200,9.647374267578124,-39.588134765625,-13.604888916015625,6.3353729248046875
1776442205618391300,9.672391357421875,-39.43133544921875,-13.75482177734375,6.1799468994140625
1776442205643408400,9.697408447265625,-39.48779296875,-14.17022705078125,5.7899169921875
1776442205668425200,9.72242529296875,-39.4703369140625,-14.298614501953125,5.4824676513671875
1776442205693443300,9.747443359375,-39.814300537109375,-14.36151123046875,4.93939208984375
1776442205718460400,9.77246044921875,-39.41497802734375,-14.624267578125,4.1706390380859375
1776442205743477200,9.797477294921874,-39.386688232421875,-14.764190673828125,3.7053985595703125
1776442205768495400,9.822495361328125,-39.335784912109375,-15.099899291992188,3.0389556884765625
1776442205793512400,9.847512451171875,-39.10198974609375,-14.749282836914062,2.34844970703125
1776442205818529300,9.872529296875,-39.494781494140625,-14.823135375976562,1.553070068359375
1776442205843547400,9.89754736328125,-39.58636474609375,-14.813156127929688,1.4349212646484375
1776442205868564500,9.922564453125,-38.840057373046875,-15.136428833007812,0.829071044921875
1776442205893581000,9.9475810546875,-39.22314453125,-15.257843017578125,0.2133331298828125
1776442205918599400,9.972599365234375,-38.70343017578125,-15.374542236328125,-0.731475830078125
1776442205943616300,9.9976162109375,-38.662567138671875,-14.956619262695312,-1.0606689453125
1776442205968634400,10.02263427734375,-39.079986572265625,-14.7852783203125,-1.8398590087890625
1776442205993652200,10.04765234375,-38.6871337890625,-14.618789672851562,-2.7551116943359375
1776442206018669300,10.07266943359375,-39.0986328125,-14.406112670898438,-3.347808837890625
1776442206043686400,10.097686279296875,-39.3765869140625,-14.408843994140625,-3.5421905517578125
1776442206068704300,10.122704345703125,-39.318267822265625,-14.104949951171875,-4.0371856689453125
1776442206093721300,10.147721435546876,-39.020233154296875,-14.040878295898438,-3.8715057373046875
1776442206118738400,10.172738525390624,-39.075714111328125,-13.793685913085938,-4.887420654296875
1776442206143756300,10.19775634765625,-38.957305908203125,-13.234298706054688,-5.6215972900390625
1776442206168773400,10.2227734375,-39.438323974609375,-12.493118286132812,-6.086029052734375
1776442206193790500,10.24779052734375,-39.7015380859375,-11.486358642578125,-6.4050750732421875
1776442206218808300,10.272808349609376,-39.11505126953125,-10.942413330078125,-7.62811279296875
1776442206243825400,10.297825439453124,-39.5440673828125,-10.533843994140625,-7.967315673828125
1776442206268842200,10.32284228515625,-38.99005126953125,-10.504226684570312,-9.208831787109375
1776442206293860400,10.3478603515625,-39.3543701171875,-10.461715698242188,-9.330978393554688
1776442206318877200,10.372877197265625,-39.055511474609375,-10.59576416015625,-9.8861083984375
1776442206343894300,10.397894287109375,-39.395172119140625,-10.648513793945312,-10.342529296875
1776442206368912100,10.422912109375,-38.785919189453125,-11.062911987304688,-11.30157470703125
1776442206393929200,10.44792919921875,-38.342681884765625,-11.055145263671875,-11.522567749023438
1776442206418946300,10.4729462890625,-38.049407958984375,-11.736953735351562,-12.189697265625
1776442206443964200,10.497964111328125,-38.025909423828125,-11.81195068359375,-12.474594116210938
1776442206468981200,10.522981201171875,-37.992950439453125,-12.215072631835938,-13.0345458984375
1776442206493998300,10.547998291015626,-37.738525390625,-12.07781982421875,-13.651748657226562
1776442206519016200,10.57301611328125,-37.630157470703125,-11.693603515625,-14.292343139648438
1776442206544033300,10.598033203125,-37.766021728515625,-11.52508544921875,-14.982666015625
1776442206569050400,10.62305029296875,-37.70703125,-11.040069580078125,-15.461212158203125
1776442206594068200,10.648068115234375,-36.794525146484375,-10.387359619140625,-15.641372680664062
1776442206619085300,10.673085205078126,-37.084320068359375,-9.933303833007812,-16.134765625
1776442206644102400,10.698102294921876,-37.77288818359375,-9.275482177734375,-16.421051025390625
1776442206669120300,10.723120361328125,-37.325775146484375,-8.831298828125,-16.531478881835938
1776442206694137300,10.748137451171875,-37.2196044921875,-8.59197998046875,-16.859420776367188
1776442206719154400,10.773154541015625,-36.941375732421875,-8.678787231445312,-17.2530517578125
1776442206744172300,10.79817236328125,-36.692474365234375,-8.198593139648438,-18.312362670898438
1776442206769189400,10.823189453125,-36.454864501953125,-8.349807739257812,-19.061660766601562
1776442206794207200,10.848207275390624,-36.066986083984375,-7.9546051025390625,-19.709609985351562
1776442206819224300,10.873224365234375,-35.82720947265625,-7.667633056640625,-20.063323974609375
1776442206844241400,10.898241455078125,-35.935302734375,-6.811614990234375,-20.448638916015625
1776442206869259300,10.92325927734375,-35.67242431640625,-6.8513946533203125,-20.891616821289062
1776442206894276400,10.9482763671875,-35.243194580078125,-6.360443115234375,-21.218109130859375
1776442206919293400,10.97329345703125,-35.32391357421875,-6.24676513671875,-21.307525634765625
1776442206944311300,10.998311279296875,-35.4210205078125,-6.156585693359375,-21.78912353515625
1776442206969328000,11.023328125,-35.02325439453125,-5.7454376220703125,-21.990936279296875
1776442206994345200,11.04834521484375,-35.200469970703125,-5.210693359375,-22.311431884765625
1776442207019363000,11.073363037109376,-35.109100341796875,-4.8250732421875,-22.756851196289062
1776442207044380200,11.098380126953124,-35.033050537109375,-3.1780548095703125,-22.7459716796875
1776442207069397200,11.123397216796874,-34.941497802734375,-1.963470458984375,-22.751907348632812
1776442207094415000,11.1484150390625,-34.77276611328125,0.0391845703125,-22.54656982421875
1776442207119432200,11.17343212890625,-35.0023193359375,1.4940338134765625,-22.58447265625
1776442207144450300,11.1984501953125,-34.746002197265625,4.1607818603515625,-22.20062255859375
1776442207169467100,11.223467041015626,-34.58746337890625,5.4476470947265625,-22.32171630859375
1776442207194484200,11.248484130859374,-34.5379638671875,6.8987579345703125,-22.254119873046875
1776442207219502300,11.27350244140625,-34.062469482421875,7.5172271728515625,-21.90704345703125
1776442207244519200,11.298519287109375,-34.872802734375,8.4027099609375,-21.3621826171875
1776442207269536000,11.323535888671875,-34.856109619140625,9.20458984375,-20.775054931640625
1776442207294554000,11.34855419921875,-35.42169189453125,9.83502197265625,-20.102767944335938
1776442207319571000,11.373571044921874,-35.284820556640625,10.390045166015625,-19.549728393554688
1776442207344588000,11.398588134765625,-35.2655029296875,11.493667602539062,-18.732803344726562
1776442207369606100,11.423606201171875,-35.102264404296875,11.836257934570312,-18.281448364257812
1776442207394623000,11.448623046875,-35.63330078125,12.800338745117188,-17.232177734375
1776442207419640000,11.47364013671875,-35.704010009765625,13.7723388671875,-16.623214721679688
1776442207444658000,11.498657958984374,-35.49560546875,14.63824462890625,-15.567764282226562
1776442207469675000,11.523675048828125,-35.39312744140625,15.179489135742188,-14.857528686523438
1776442207494693000,11.548693115234375,-35.557952880859375,15.704071044921875,-14.078369140625
1776442207519710000,11.5737099609375,-35.8851318359375,15.597702026367188,-13.907669067382812
1776442207544727000,11.59872705078125,-36.5291748046875,15.586502075195312,-13.2830810546875
1776442207569745200,11.6237451171875,-36.474884033203125,15.41748046875,-13.040679931640625
1776442207594762000,11.648761962890624,-37.2843017578125,15.4755859375,-11.960800170898438
1776442207619779000,11.673779052734375,-36.62506103515625,15.339157104492188,-11.254348754882812
1776442207644797200,11.698797119140625,-37.127777099609375,15.807769775390625,-10.901687622070312
1776442207669814000,11.72381396484375,-36.82049560546875,16.222061157226562,-10.977096557617188
1776442207694832000,11.74883203125,-36.7386474609375,16.709671020507812,-10.835617065429688
1776442207719849200,11.77384912109375,-36.325347900390625,16.953598022460938,-10.808456420898438
1776442207744866000,11.798865966796875,-36.205596923828125,17.793777465820312,-10.726760864257812
1776442207769884200,11.82388427734375,-36.434906005859375,17.614776611328125,-10.978607177734375
1776442207794901200,11.8489013671875,-36.218048095703125,17.362625122070312,-11.300186157226562
1776442207819918000,11.87391796875,-36.026763916015625,17.178253173828125,-11.392349243164062
1776442207844936200,11.898936279296874,-36.497283935546875,16.86566162109375,-11.060699462890625
1776442207869953300,11.923953369140625,-36.552276611328125,16.6859130859375,-10.913650512695312
1776442207894971100,11.94897119140625,-37.302215576171875,16.273529052734375,-10.224533081054688
1776442207919988200,11.97398828125,-37.0196533203125,16.106277465820312,-10.087539672851562
1776442207945005000,11.999005126953126,-37.167877197265625,16.254989624023438,-9.635772705078125
1776442207970023200,12.024023193359374,-37.105743408203125,16.34765625,-9.234909057617188
1776442207995040300,12.049040283203125,-36.76580810546875,17.10162353515625,-8.21881103515625
1776442208020057000,12.07405712890625,-36.661956787109375,17.391464233398438,-7.71893310546875
1776442208045075200,12.0990751953125,-37.127410888671875,17.771072387695312,-7.3433380126953125
1776442208070092300,12.12409228515625,-36.96795654296875,18.532943725585938,-6.513702392578125
1776442208095109000,12.149109130859374,-36.709503173828125,19.18182373046875,-5.6640777587890625
1776442208120127200,12.174127197265625,-36.175689697265625,19.313980102539062,-5.2046051025390625
1776442208145144300,12.199144287109375,-35.729522705078125,19.694808959960938,-4.4025726318359375
1776442208170162200,12.224162109375,-35.782318115234375,19.828353881835938,-4.0551910400390625
1776442208195179300,12.24917919921875,-35.75830078125,20.244049072265625,-3.497314453125
1776442208220196400,12.2741962890625,-35.631805419921875,20.343521118164062,-3.367218017578125
1776442208245214200,12.299214111328125,-36.127166748046875,20.316925048828125,-3.1432647705078125
1776442208270231300,12.324231201171875,-36.200164794921875,20.019760131835938,-2.5524444580078125
1776442208295248400,12.349248291015625,-36.248748779296875,20.0081787109375,-2.1797332763671875
1776442208320266200,12.374266357421876,-36.130218505859375,20.17437744140625,-1.8728179931640625
1776442208345283300,12.399283447265624,-36.206390380859375,20.271530151367188,-1.5599517822265625
1776442208370301200,12.42430126953125,-35.7755126953125,20.733856201171875,-1.386993408203125
1776442208395318300,12.449318359375,-36.149383544921875,20.41058349609375,-1.2675323486328125
1776442208420335400,12.47433544921875,-36.639984130859375,20.29376220703125,-0.9439697265625
1776442208445353200,12.499353271484376,-36.6722412109375,19.465377807617188,-0.8881683349609375
1776442208470370300,12.524370361328126,-37.61602783203125,18.367218017578125,-0.4578857421875
1776442208495387400,12.549387451171874,-37.869384765625,17.670272827148438,-0.1302642822265625
1776442208520405200,12.5744052734375,-38.055755615234375,17.637298583984375,0.52655029296875
1776442208545422300,12.59942236328125,-38.01434326171875,17.102554321289062,1.103485107421875
1776442208570440200,12.624440185546876,-39.142333984375,17.1387939453125,1.8286895751953125
1776442208595457300,12.649457275390626,-38.567840576171875,16.580856323242188,2.1550140380859375
1776442208620474000,12.67447412109375,-38.87701416015625,16.541839599609375,2.9296722412109375
1776442208645492200,12.6994921875,-38.8360595703125,16.948883056640625,3.2988739013671875
1776442208670509000,12.724509033203125,-38.15264892578125,16.791000366210938,3.89752197265625
1776442208695526100,12.749526123046875,-38.495086669921875,16.650909423828125,3.8466796875
1776442208720544000,12.7745439453125,-38.335296630859375,17.151473999023438,3.760986328125
1776442208745561000,12.79956103515625,-38.666900634765625,16.953231811523438,3.7307281494140625
1776442208770579200,12.8245791015625,-38.042633056640625,17.414413452148438,3.8485565185546875
1776442208795596000,12.849595947265625,-38.52569580078125,17.095413208007812,3.97998046875
1776442208820613000,12.874613037109375,-38.22406005859375,16.648117065429688,4.4609527587890625
1776442208845631200,12.89963134765625,-38.7728271484375,16.192672729492188,4.78326416015625
1776442208870648000,12.92464794921875,-38.83453369140625,15.3480224609375,4.8150177001953125
1776442208895666200,12.949666259765625,-39.355377197265625,14.684326171875,5.0652618408203125
1776442208920683300,12.974683349609375,-39.782806396484375,14.257247924804688,5.488250732421875
1776442208945700000,12.9997001953125,-39.750244140625,13.774703979492188,5.5569305419921875
1776442208970718000,13.024718017578126,-39.604278564453125,13.979476928710938,5.8164825439453125
1776442208995735000,13.049735107421874,-39.550506591796875,14.086563110351562,6.164947509765625
1776442209020752000,13.074751953125,-39.081756591796875,13.932815551757812,6.6829986572265625
1776442209045770000,13.09977001953125,-39.556793212890625,13.951263427734375,6.9496917724609375
1776442209070787000,13.124787109375,-39.37451171875,13.766586303710938,7.40216064453125
1776442209095805000,13.149804931640626,-39.4173583984375,13.737091064453125,7.5179443359375
1776442209120822000,13.174822021484376,-39.567535400390625,13.7843017578125,7.8281097412109375
1776442209145838800,13.1998388671875,-39.430145263671875,13.612091064453125,8.03594970703125
1776442209170857000,13.22485693359375,-38.815643310546875,13.644271850585938,8.779617309570312
1776442209195874000,13.2498740234375,-39.1324462890625,13.507644653320312,9.2093505859375
1776442209220892000,13.274891845703126,-38.634063720703125,13.301010131835938,10.342269897460938
1776442209245909000,13.299908935546876,-38.336578369140625,12.997802734375,11.135711669921875
1776442209270926000,13.324926025390624,-38.13189697265625,12.387603759765625,12.642059326171875
1776442209295944000,13.34994384765625,-38.377471923828125,11.910079956054688,13.451202392578125
1776442209320961000,13.3749609375,-38.084381103515625,11.094284057617188,14.294326782226562
1776442209345978000,13.39997802734375,-38.066192626953125,10.589111328125,14.8570556640625
1776442209370996000,13.424995849609376,-37.860107421875,9.9130859375,16.166488647460938
1776442209396013000,13.450012939453124,-37.813690185546875,9.157257080078125,17.259796142578125
1776442209421031000,13.475031005859375,-37.549407958984375,8.084732055664062,18.092453002929688
1776442209446048000,13.500048095703125,-37.7034912109375,7.7959442138671875,18.742141723632812
1776442209471065000,13.525065185546875,-37.15625,7.6234283447265625,19.176849365234375
1776442209496083000,13.5500830078125,-37.223358154296875,7.433502197265625,19.489151000976562
1776442209521100000,13.57510009765625,-37.1290283203125,7.8879852294921875,19.3983154296875
1776442209546118100,13.6001181640625,-37.667633056640625,7.888641357421875,19.1668701171875
1776442209571135000,13.625135009765625,-37.1329345703125,7.550323486328125,18.153839111328125
1776442209596152000,13.650152099609375,-37.644500732421875,7.325439453125,17.850051879882812
1776442209621170000,13.675169921875,-37.642547607421875,7.0313262939453125,18.0791015625
1776442209646187000,13.70018701171875,-37.75836181640625,6.8627166748046875,17.792770385742188
1776442209671205000,13.725205078125,-37.990692138671875,6.696746826171875,18.214553833007812
1776442209696222000,13.750221923828125,-37.864715576171875,6.1375579833984375,18.17803955078125
1776442209721238800,13.77523876953125,-37.93377685546875,4.9538726806640625,19.013504028320312
1776442209746257200,13.800257080078126,-37.477081298828125,3.8153076171875,20.021987915039062
1776442209771273700,13.825273681640626,-37.36810302734375,1.5731353759765625,20.903732299804688
1776442209796290800,13.850290771484374,-37.25152587890625,-0.122772216796875,21.574066162109375
1776442209821309000,13.875308837890625,-36.799530029296875,-2.3485565185546875,22.635513305664062
1776442209846325800,13.90032568359375,-36.316192626953125,-3.37005615234375,23.243148803710938
1776442209871343900,13.92534375,-36.25927734375,-4.5986480712890625,23.411758422851562
1776442209896361000,13.95036083984375,-35.77410888671875,-5.3667755126953125,24.011383056640625
1776442209921377800,13.975377685546874,-35.1219482421875,-6.84478759765625,24.214752197265625
1776442209946396000,14.00039599609375,-34.737762451171875,-8.316940307617188,24.511917114257812
1776442209971412500,14.02541259765625,-35.30975341796875,-10.124526977539062,23.685638427734375
1776442209996430300,14.050430419921875,-35.239654541015625,-11.6396484375,23.06787109375
1776442210021447400,14.075447509765626,-35.24542236328125,-14.1290283203125,21.769729614257812
1776442210046464500,14.100464599609374,-35.323577880859375,-15.44244384765625,21.28851318359375
1776442210071482400,14.125482421875,-35.285308837890625,-17.274322509765625,20.128585815429688
1776442210096499500,14.15049951171875,-34.980621337890625,-18.225173950195312,19.773025512695312
1776442210121517300,14.175517333984375,-34.7593994140625,-19.611618041992188,18.263168334960938
1776442210146534400,14.200534423828126,-34.5126953125,-19.956802368164062,17.957107543945312
1776442210171551200,14.22555126953125,-34.43695068359375,-20.203170776367188,16.746185302734375
1776442210196569300,14.2505693359375,-34.902984619140625,-20.983505249023438,15.378341674804688
1776442210221586200,14.275586181640625,-35.17535400390625,-21.37359619140625,15.027862548828125
1776442210246604500,14.3006044921875,-35.646392822265625,-21.382553100585938,13.871429443359375
1776442210271621000,14.32562109375,-35.495513916015625,-21.5816650390625,13.344024658203125
1776442210296638200,14.35063818359375,-36.01519775390625,-21.3677978515625,12.873214721679688
1776442210321656300,14.37565625,-35.883270263671875,-21.536361694335938,12.497177124023438
1776442210346673200,14.400673095703125,-36.3968505859375,-21.522567749023438,11.963912963867188
1776442210371690200,14.425690185546875,-36.330291748046875,-21.58843994140625,11.772689819335938
1776442210396708400,14.450708251953126,-36.677886962890625,-21.430206298828125,11.169998168945312
1776442210421725200,14.47572509765625,-36.58123779296875,-21.455352783203125,11.301849365234375
1776442210446743300,14.500743408203125,-36.736297607421875,-20.99578857421875,10.75885009765625
1776442210471760400,14.525760498046875,-37.091949462890625,-20.722335815429688,10.490676879882812
1776442210496777200,14.550777099609375,-37.604156494140625,-19.87286376953125,10.047393798828125
1776442210521795300,14.57579541015625,-37.635223388671875,-19.312347412109375,10.165008544921875
1776442210546812400,14.6008125,-38.12646484375,-18.235809326171875,9.970535278320312
1776442210571830300,14.625830322265625,-38.07257080078125,-18.12005615234375,10.0872802734375
1776442210596847400,14.650847412109375,-38.007415771484375,-17.770217895507812,9.888946533203125
1776442210621864200,14.6758642578125,-38.0677490234375,-17.507919311523438,10.115676879882812
1776442210646882300,14.70088232421875,-38.405975341796875,-17.033767700195312,10.730819702148438
1776442210671899400,14.7258994140625,-38.243743896484375,-16.583663940429688,10.5927734375
1776442210696917200,14.750917236328124,-38.12255859375,-16.267242431640625,10.29180908203125
1776442210721934300,14.775934326171875,-38.490631103515625,-15.931686401367188,10.561492919921875
1776442210746951400,14.800951416015625,-38.99273681640625,-14.914993286132812,10.278778076171875
1776442210771969300,14.82596923828125,-39.09503173828125,-14.350479125976562,10.121551513671875
1776442210796986400,14.850986328125,-39.65594482421875,-12.622848510742188,9.85955810546875
1776442210822004200,14.876004150390624,-39.802978515625,-11.848236083984375,9.666366577148438
1776442210847021300,14.901021240234375,-40.183837890625,-11.223373413085938,9.316787719726562
1776442210872038400,14.926038330078125,-40.230072021484375,-11.671493530273438,8.969345092773438
1776442210897056300,14.95105615234375,-40.1041259765625,-13.181015014648438,8.246322631835938
1776442210922073300,14.9760732421875,-38.887939453125,-14.595352172851562,7.2592010498046875
1776442210947091500,15.001091552734374,-38.62921142578125,-16.266921997070312,5.701629638671875
1776442210972108300,15.0261083984375,-38.70574951171875,-17.010299682617188,5.009521484375
1776442210997125400,15.05112548828125,-38.702545166015625,-17.390594482421875,3.544189453125
1776442211022143500,15.0761435546875,-38.563690185546875,-17.419754028320312,3.0915985107421875
1776442211047160300,15.101160400390626,-38.600433349609375,-17.98236083984375,2.0139312744140625
1776442211072178400,15.126178466796874,-38.39208984375,-18.083282470703125,1.678619384765625
1776442211097195300,15.1511953125,-38.500518798828125,-18.350173950195312,0.5929718017578125
1776442211122212400,15.17621240234375,-38.47210693359375,-17.824234008789062,0.0750274658203125
1776442211147230500,15.20123046875,-38.7193603515625,-17.33258056640625,-0.608154296875
1776442211172247300,15.226247314453126,-38.47723388671875,-17.226364135742188,-1.260589599609375
1776442211197265400,15.251265380859374,-38.90692138671875,-16.930267333984375,-1.6021728515625
1776442211222282500,15.276282470703125,-38.599334716796875,-16.96356201171875,-1.9348602294921875
1776442211247299300,15.30129931640625,-38.813568115234375,-17.00115966796875,-2.106689453125
1776442211272317400,15.3263173828125,-38.873931884765625,-16.736068725585938,-2.720458984375
1776442211297334500,15.35133447265625,-38.537567138671875,-17.22149658203125,-3.256011962890625
1776442211322352400,15.376352294921874,-38.923370361328125,-17.849746704101562,-3.84747314453125
1776442211347369500,15.401369384765625,-37.65179443359375,-18.443161010742188,-4.8750152587890625
1776442211372386600,15.426386474609375,-37.046783447265625,-19.079055786132812,-5.2638092041015625
1776442211397404400,15.451404296875,-37.440826416015625,-19.359664916992188,-6.081878662109375
1776442211422421500,15.47642138671875,-37.712921142578125,-19.022842407226562,-6.698028564453125
1776442211447439400,15.501439453125,-37.364990234375,-18.121536254882812,-7.2129669189453125
1776442211472456400,15.52645654296875,-38.05474853515625,-17.678787231445312,-7.4901885986328125
1776442211497473500,15.5514736328125,-38.28948974609375,-16.529815673828125,-7.839752197265625
1776442211522491400,15.576491455078125,-38.286163330078125,-15.979217529296875,-8.493743896484375
1776442211547508500,15.601508544921876,-38.526092529296875,-15.90667724609375,-9.179946899414062
1776442211572526300,15.6265263671875,-38.173065185546875,-15.786178588867188,-9.728836059570312
1776442211597543400,15.65154345703125,-38.276092529296875,-15.74859619140625,-10.213333129882812
1776442211622560500,15.676560546875,-38.0650634765625,-15.817474365234375,-10.55712890625
1776442211647578400,15.701578369140625,-37.739410400390625,-16.158584594726562,-11.553741455078125
1776442211672595500,15.726595458984375,-37.4613037109375,-16.122879028320312,-12.174209594726562
1776442211697613600,15.751613525390624,-36.792236328125,-15.858413696289062,-12.809280395507812
1776442211722630400,15.77663037109375,-37.175048828125,-14.895370483398438,-13.011032104492188
1776442211747648500,15.8016484375,-37.714385986328125,-13.25433349609375,-13.197616577148438
1776442211772665600,15.82666552734375,-38.0908203125,-12.057601928710938,-13.776748657226562
1776442211797682400,15.851682373046875,-37.94244384765625,-11.529006958007812,-15.121414184570312
1776442211822700500,15.876700439453124,-37.7174072265625,-11.208404541015625,-15.736038208007812
1776442211847717600,15.901717529296874,-37.4437255859375,-11.7789306640625,-15.858688354492188
1776442211872735500,15.926735595703125,-37.37841796875,-12.02642822265625,-16.144851684570312
1776442211897752600,15.951752685546875,-37.174835205078125,-12.1744384765625,-16.420120239257812
1776442211922769700,15.976769775390625,-37.05157470703125,-11.987396240234375,-16.501007080078125
1776442211947787500,16.00178759765625,-36.52301025390625,-11.379623413085938,-17.165618896484375
1776442211972804400,16.026804443359374,-36.300018310546875,-10.82427978515625,-17.546279907226562
1776442211997822200,16.051822265625,-36.271209716796875,-10.256500244140625,-18.705429077148438
1776442212022839300,16.07683935546875,-35.48541259765625,-9.562591552734375,-19.388275146484375
1776442212047856400,16.1018564453125,-35.82391357421875,-9.654922485351562,-20.005355834960938
1776442212072874200,16.126874267578124,-35.260498046875,-10.221038818359375,-20.632308959960938
1776442212097891300,16.151891357421874,-34.97509765625,-10.950286865234375,-21.085968017578125
1776442212122909200,16.1769091796875,-34.14849853515625,-11.991546630859375,-21.530929565429688
1776442212147926300,16.20192626953125,-34.077423095703125,-12.263595581054688,-21.958572387695312
1776442212172944400,16.2269443359375,-34.104400634765625,-12.0260009765625,-22.17095947265625
1776442212197961200,16.251961181640624,-33.969940185546875,-11.189468383789062,-22.467544555664062
1776442212222978300,16.276978271484374,-34.58935546875,-9.893325805664062,-22.548110961914062
1776442212247996400,16.301996337890625,-34.784942626953125,-8.96087646484375,-22.70855712890625
1776442212273013200,16.32701318359375,-35.16448974609375,-8.003280639648438,-22.76116943359375
1776442212298031400,16.35203125,-35.109527587890625,-6.931243896484375,-22.770492553710938
1776442212323048400,16.37704833984375,-34.657501220703125,-5.67681884765625,-23.01983642578125
1776442212348065300,16.402065185546874,-34.95806884765625,-5.2958526611328125,-22.996688842773438
1776442212373083400,16.42708349609375,-35.33770751953125,-3.45184326171875,-23.21478271484375
1776442212398100500,16.4521005859375,-35.554718017578125,-2.114959716796875,-23.152313232421875
1776442212423118300,16.477118408203125,-35.4072265625,-0.4446258544921875,-23.53790283203125
1776442212448135400,16.502135498046876,-35.31170654296875,0.8439483642578125,-23.393203735351562
1776442212473153300,16.5271533203125,-35.4796142578125,2.468597412109375,-23.440948486328125
1776442212498170400,16.55217041015625,-35.223052978515625,3.230682373046875,-23.193069458007812
1776442212523187500,16.5771875,-34.86187744140625,4.175445556640625,-23.38397216796875
1776442212548205300,16.602205322265625,-35.125335693359375,4.6468658447265625,-23.21832275390625
1776442212573222400,16.627222412109376,-35.22296142578125,5.8326263427734375,-22.833740234375
1776442212598240300,16.652240234375,-35.30169677734375,6.875091552734375,-23.068267822265625
1776442212623257300,16.67725732421875,-35.0181884765625,8.128875732421875,-22.737823486328125
1776442212648275500,16.702275390625,-34.927398681640625,8.97686767578125,-22.597030639648438
1776442212673292300,16.727292236328125,-34.656219482421875,9.933120727539062,-22.559158325195312
1776442212698309400,16.752309326171876,-34.810546875,10.464706420898438,-22.474746704101562
1776442212723327500,16.777327392578126,-34.124481201171875,11.635421752929688,-21.910064697265625
1776442212748344300,16.80234423828125,-34.393707275390625,12.300445556640625,-21.146743774414062
1776442212773362400,16.827362548828123,-34.682098388671875,13.268264770507812,-20.4075927734375
1776442212798379500,16.852379638671874,-34.48687744140625,14.2880859375,-19.749542236328125
1776442212823396400,16.877396240234376,-33.89862060546875,15.165557861328125,-18.412948608398438
1776442212848414500,16.90241455078125,-34.477020263671875,16.141265869140625,-18.012847900390625
1776442212873431600,16.927431640625,-34.222198486328125,16.813812255859375,-17.509429931640625
1776442212898449400,16.952449462890623,-34.105010986328125,16.896286010742188,-17.109527587890625
1776442212923466500,16.977466552734374,-34.99407958984375,17.198699951171875,-16.429595947265625
1776442212948484400,17.002484375,-35.051971435546875,17.019500732421875,-15.818267822265625
1776442212973501400,17.02750146484375,-35.696258544921875,17.05450439453125,-14.690093994140625
1776442212998518300,17.052518310546876,-35.843719482421875,16.824798583984375,-14.052017211914062
1776442213023536400,17.077536376953127,-36.542083740234375,16.313858032226562,-13.16790771484375
1776442213048553200,17.10255322265625,-36.582183837890625,15.6776123046875,-12.96337890625
1776442213073571300,17.1275712890625,-37.614501953125,14.74951171875,-12.634796142578125
1776442213098588200,17.152588134765626,-37.418365478515625,14.349624633789062,-12.684616088867188
1776442213123606500,17.1776064453125,-37.746826171875,14.0460205078125,-12.920852661132812
1776442213148623000,17.202623046875,-37.307586669921875,14.243087768554688,-12.88134765625
1776442213173640200,17.22764013671875,-37.47894287109375,14.90399169921875,-13.270370483398438
1776442213198658300,17.252658203125,-37.281585693359375,14.810699462890625,-13.327896118164062
1776442213223675100,17.277675048828126,-37.814849853515625,14.307342529296875,-12.891433715820312
1776442213248693200,17.302693359375,-37.748504638671875,14.09051513671875,-12.687042236328125
1776442213273710300,17.32771044921875,-38.0673828125,13.949722290039062,-12.18609619140625
1776442213298728200,17.352728271484374,-37.93328857421875,14.41387939453125,-11.953872680664062
1776442213323745300,17.377745361328124,-37.84930419921875,14.308090209960938,-12.319503784179688
1776442213348762400,17.402762451171874,-37.71527099609375,14.363296508789062,-12.439071655273438
1776442213373780200,17.4277802734375,-38.1064453125,14.022308349609375,-11.972000122070312
1776442213398797300,17.45279736328125,-38.234130859375,14.151535034179688,-11.810348510742188
1776442213423815200,17.477815185546874,-38.04254150390625,14.49835205078125,-11.23211669921875
1776442213448832300,17.502832275390624,-38.169921875,14.805816650390625,-11.091079711914062
1776442213473849300,17.527849365234374,-38.090362548828125,15.593643188476562,-10.238311767578125
1776442213498867200,17.5528671875,-37.716796875,16.227310180664062,-9.695846557617188
1776442213523884300,17.57788427734375,-37.804595947265625,16.8839111328125,-8.83892822265625
1776442213548902400,17.60290234375,-37.763153076171875,17.384475708007812,-8.173904418945312
1776442213573919200,17.627919189453124,-37.6356201171875,17.961456298828125,-6.715545654296875
1776442213598937300,17.652937255859374,-37.524749755859375,18.583694458007812,-5.6153106689453125
1776442213623954200,17.6779541015625,-37.009063720703125,19.3040771484375,-4.2668609619140625
1776442213648971300,17.70297119140625,-37.034912109375,19.029342651367188,-3.13104248046875
1776442213673989400,17.7279892578125,-37.398345947265625,18.488235473632812,-1.7213592529296875
1776442213699006200,17.753006103515624,-37.85888671875,18.306121826171875,-1.1382293701171875
1776442213724024300,17.7780244140625,-37.74127197265625,18.0140380859375,-0.3768157958984375
1776442213749041400,17.80304150390625,-38.22125244140625,17.806259155273438,-0.258758544921875
1776442213774059300,17.828059326171875,-37.859100341796875,18.32012939453125,0.386199951171875
1776442213799076400,17.853076416015625,-37.532806396484375,18.639923095703125,0.52655029296875
1776442213824093400,17.878093505859376,-37.638580322265625,18.389541625976562,1.80731201171875
1776442213849111300,17.903111328125,-37.71112060546875,17.902313232421875,2.6435699462890625
1776442213874128400,17.92812841796875,-38.239044189453125,16.870330810546875,3.3214569091796875
1776442213899146200,17.953146240234375,-38.770538330078125,15.881317138671875,4.42926025390625
1776442213924163300,17.978163330078125,-38.8232421875,15.2679443359375,4.9571990966796875
1776442213949181400,18.003181396484376,-38.976593017578125,14.683242797851562,5.740264892578125
1776442213974198500,18.028198486328126,-39.0687255859375,14.8587646484375,5.8450469970703125
1776442213999215600,18.053215576171876,-38.315460205078125,15.620361328125,5.991485595703125
1776442214024233500,18.0782333984375,-38.33453369140625,16.060989379882812,6.8282012939453125
1776442214049250600,18.10325048828125,-37.941162109375,16.178817749023438,7.180450439453125
1776442214074268700,18.1282685546875,-37.821563720703125,16.320404052734375,7.7060089111328125
1776442214099285500,18.153285400390626,-37.752716064453125,16.487594604492188,8.595916748046875
1776442214124303600,18.1783037109375,-37.4437255859375,16.183883666992188,9.258056640625
1776442214149320700,18.20332080078125,-36.9512939453125,16.39898681640625,10.415802001953125
1776442214174337300,18.228337158203125,-36.738037109375,16.212417602539062,11.150863647460938
1776442214199355600,18.253355712890624,-36.780181884765625,16.007949829101562,12.48114013671875
1776442214224372500,18.27837255859375,-36.505767822265625,15.64599609375,13.62200927734375
1776442214249390600,18.303390625,-35.978607177734375,14.798446655273438,14.9381103515625
1776442214274407400,18.328407470703127,-35.974853515625,14.6170654296875,15.660873413085938
1776442214299425500,18.353425537109374,-36.13751220703125,13.490585327148438,16.828216552734375
1776442214324442400,18.3784423828125,-36.259857177734375,12.606185913085938,17.568695068359375
1776442214349459500,18.40345947265625,-36.195037841796875,11.651840209960938,17.992568969726562
1776442214374477300,18.428477294921876,-36.46044921875,11.136734008789062,18.017013549804688
1776442214399494400,18.453494384765627,-36.316650390625,10.8662109375,18.252593994140625
1776442214424512500,18.478512451171873,-36.519775390625,10.1407470703125,18.523880004882812
1776442214449529300,18.503529296875,-36.126800537109375,9.100189208984375,19.678359985351562
1776442214474547500,18.52854736328125,-36.068817138671875,8.5770263671875,20.668548583984375
1776442214499564300,18.553564208984376,-35.965850830078125,8.05316162109375,21.597076416015625
1776442214524582400,18.57858251953125,-35.53631591796875,7.6385498046875,22.142593383789062
1776442214549599500,18.603599609375,-35.44439697265625,6.206878662109375,22.873291015625
1776442214574616300,18.6286162109375,-35.07708740234375,4.658111572265625,23.4315185546875
1776442214599634400,18.653634521484374,-34.761932373046875,1.9401092529296875,24.78668212890625
1776442214624651500,18.678651611328124,-34.414215087890625,0.0894775390625,25.497711181640625
1776442214649669400,18.70366943359375,-34.080078125,-1.7332916259765625,26.469268798828125
1776442214674686500,18.7286865234375,-33.756866455078125,-2.8845367431640625,26.597625732421875
1776442214699704300,18.753704345703124,-33.77789306640625,-3.9884033203125,26.831756591796875
1776442214724721400,18.778721435546874,-34.159088134765625,-4.27862548828125,26.572006225585938
1776442214749738500,18.803738525390624,-34.096435546875,-4.0587921142578125,26.0789794921875
1776442214774756400,18.82875634765625,-34.337860107421875,-4.524505615234375,26.079055786132812
1776442214799773400,18.8537734375,-34.551239013671875,-6.6559906005859375,25.8594970703125
1776442214824791600,18.87879150390625,-33.911407470703125,-8.5458984375,25.639724731445312
1776442214849808400,18.903808349609374,-33.690521240234375,-11.46221923828125,25.492813110351562
1776442214874826500,18.928826416015625,-33.11041259765625,-12.55364990234375,25.239547729492188
1776442214899843300,18.95384326171875,-32.79248046875,-12.997879028320312,25.107589721679688
1776442214924861400,18.978861328125,-33.16351318359375,-12.906234741210938,24.509231567382812
1776442214949878500,19.00387841796875,-33.46392822265625,-12.208786010742188,24.111724853515625
1776442214974899200,19.028899169921875,-34.32080078125,-11.696517944335938,23.728607177734375
1776442214999917300,19.053917236328125,-34.83233642578125,-10.551910400390625,22.988494873046875
1776442215024934400,19.078934326171876,-35.494415283203125,-9.63671875,22.840179443359375
1776442215049952300,19.1039521484375,-36.201385498046875,-8.321685791015625,21.927810668945312
1776442215074969300,19.12896923828125,-36.277252197265625,-7.547149658203125,21.46636962890625
1776442215099987200,19.1539873046875,-36.467987060546875,-6.8862152099609375,21.377593994140625
1776442215125004300,19.17900439453125,-36.706817626953125,-7.330474853515625,21.240615844726562
1776442215150021400,19.204021484375,-37.237457275390625,-7.708984375,20.91424560546875
1776442215175039200,19.229039306640626,-37.24652099609375,-7.980499267578125,20.6968994140625
1776442215200056300,19.254056396484376,-36.855377197265625,-9.194900512695312,20.79217529296875
1776442215225074200,19.27907421875,-36.26806640625,-9.757537841796875,21.044754028320312
1776442215250091300,19.30409130859375,-36.37518310546875,-10.001602172851562,20.768753051757812
1776442215275109400,19.329109375,-36.7532958984375,-10.508956909179688,20.130081176757812
1776442215300126200,19.354126220703126,-37.060821533203125,-10.356536865234375,19.579498291015625
1776442215325144300,19.379144287109376,-37.1766357421875,-10.460433959960938,19.012283325195312
1776442215350161400,19.404161376953127,-37.67620849609375,-10.363296508789062,18.472152709960938
1776442215375178000,19.429177978515625,-37.735565185546875,-10.078826904296875,18.3197021484375
1776442215400196400,19.4541962890625,-37.712982177734375,-10.334259033203125,18.148300170898438
1776442215425213200,19.479213134765626,-38.353240966796875,-10.450653076171875,17.724334716796875
1776442215450231300,19.504231201171876,-37.850555419921875,-10.8441162109375,17.721603393554688
1776442215475248000,19.529248046875,-37.60101318359375,-11.026611328125,17.672958374023438
1776442215500266200,19.554266357421874,-37.763519287109375,-11.310256958007812,17.596771240234375
1776442215525283000,19.579282958984376,-37.7235107421875,-11.183761596679688,16.993698120117188
1776442215550300200,19.604300048828126,-38.31158447265625,-10.78289794921875,16.401153564453125
1776442215575318000,19.629318115234376,-38.791595458984375,-10.86834716796875,15.9547119140625
1776442215600335000,19.654335205078127,-38.790802001953125,-11.5247802734375,15.594161987304688
1776442215625353200,19.679353271484374,-38.60687255859375,-11.932647705078125,15.426300048828125
1776442215650370000,19.7043701171875,-38.750152587890625,-12.546249389648438,15.100448608398438
1776442215675388200,19.72938818359375,-38.754119873046875,-12.749526977539062,14.585784912109375
1776442215700405200,19.7544052734375,-39.11328125,-13.21502685546875,14.063766479492188
1776442215725423000,19.779423095703127,-39.216461181640625,-13.10986328125,13.6884765625
1776442215750440200,19.804440185546873,-38.6427001953125,-13.681884765625,13.3551025390625
1776442215775458000,19.8294580078125,-38.525543212890625,-14.839797973632812,12.175338745117188
1776442215800475100,19.85447509765625,-38.6337890625,-15.204360961914062,11.596694946289062
1776442215825492200,19.8794921875,-38.421234130859375,-16.339599609375,10.87261962890625
1776442215850510000,19.904510009765627,-38.337310791015625,-16.860687255859375,10.27642822265625
1776442215875527200,19.929527099609373,-38.092559814453125,-17.831207275390625,9.057601928710938
1776442215900545000,19.954544921875,-37.75592041015625,-18.365966796875,8.56787109375
1776442215925562000,19.97956201171875,-37.956878662109375,-18.398040771484375,7.6235504150390625
1776442215950580200,20.004580322265625,-38.066558837890625,-18.719772338867188,7.0436859130859375
1776442215975594000,20.029593994140626,-37.682403564453125,-19.164413452148438,5.88177490234375
1776442216000612000,20.054612060546877,-37.602935791015625,-18.93804931640625,5.260894775390625
1776442216025629000,20.07962890625,-38.103851318359375,-19.48016357421875,3.9630279541015625
1776442216050646000,20.10464599609375,-38.774627685546875,-19.161148071289062,3.457366943359375
1776442216075664100,20.1296640625,-38.668304443359375,-18.897048950195312,2.2966156005859375
1776442216100681000,20.154680908203126,-38.438934326171875,-18.68994140625,1.7537994384765625
1776442216125699000,20.179698974609376,-38.939788818359375,-18.685684204101562,0.3127288818359375
1776442216150716200,20.204716064453127,-38.623565673828125,-18.689910888671875,-0.3412017822265625
1776442216175734000,20.229734130859374,-38.740875244140625,-18.647384643554688,-1.7461700439453125
1776442216200751000,20.254751220703124,-38.49322509765625,-18.504241943359375,-2.6260986328125
1776442216225769000,20.27976904296875,-38.4659423828125,-18.88531494140625,-3.2483978271484375
1776442216250786000,20.3047861328125,-38.16754150390625,-19.4166259765625,-3.7990264892578125
1776442216275803100,20.32980322265625,-37.843109130859375,-19.748031616210938,-4.3694305419921875
1776442216300821000,20.354821044921874,-37.5355224609375,-19.687973022460938,-4.7571868896484375
1776442216325838000,20.379838134765624,-37.521270751953125,-19.662872314453125,-5.9326629638671875
1776442216350856200,20.404856201171874,-37.522796630859375,-19.729690551757812,-6.35107421875
1776442216375873000,20.429873046875,-37.448699951171875,-19.140487670898438,-7.4861602783203125
1776442216400891100,20.45489111328125,-37.537872314453125,-18.564590454101562,-7.9011383056640625
1776442216425908000,20.479907958984374,-37.885711669921875,-17.82110595703125,-8.715438842773438
1776442216450926000,20.504926025390624,-37.717010498046875,-17.4803466796875,-9.2379150390625
1776442216475943200,20.529943115234374,-37.49261474609375,-16.856536865234375,-10.286544799804688
1776442216500960000,20.5549599609375,-37.478057861328125,-16.35894775390625,-11.1868896484375
1776442216525978000,20.57997802734375,-37.29034423828125,-15.538528442382812,-12.6170654296875
1776442216550995200,20.6049951171875,-37.567413330078125,-15.073715209960938,-13.2772216796875
1776442216576013000,20.630012939453124,-37.204803466796875,-14.24700927734375,-15.169265747070312
1776442216601030100,20.655030029296874,-37.210662841796875,-13.709823608398438,-16.067779541015625
1776442216626048000,20.680048095703125,-36.5731201171875,-13.027496337890625,-17.422149658203125
1776442216651065000,20.705065185546875,-35.706787109375,-12.600540161132812,-18.487075805664062
1776442216676083200,20.730083251953126,-35.8873291015625,-12.44500732421875,-19.894424438476562
1776442216701100000,20.75510009765625,-35.35455322265625,-11.747055053710938,-20.636688232421875
1776442216726117000,20.7801171875,-34.6275634765625,-10.925994873046875,-21.91009521484375
1776442216751135200,20.80513525390625,-34.644256591796875,-9.966156005859375,-22.433868408203125
1776442216776152000,20.830152099609375,-34.62396240234375,-7.888916015625,-23.725234985351562
1776442216801170200,20.855170166015625,-34.27978515625,-6.421417236328125,-24.256912231445312
1776442216826187000,20.88018701171875,-34.229583740234375,-4.15704345703125,-25.028640747070312
1776442216851205000,20.905205078125,-33.853179931640625,-2.391632080078125,-25.580184936523438
1776442216876222200,20.93022216796875,-33.614990234375,-0.163787841796875,-25.667678833007812
1776442216901240000,20.955239990234375,-33.82470703125,1.050628662109375,-25.528427124023438
1776442216926257200,20.980257080078125,-34.0003662109375,2.6698150634765625,-25.229141235351562
1776442216951275000,21.00527490234375,-33.532867431640625,3.426788330078125,-25.078521728515625
1776442216976291600,21.03029150390625,-33.749481201171875,4.3666534423828125,-24.549896240234375
1776442217001308700,21.05530859375,-34.3592529296875,5.2049407958984375,-24.138900756835938
1776442217026326800,21.080326904296875,-35.259674072265625,6.2510986328125,-23.151168823242188
1776442217051343600,21.105343505859373,-34.998321533203125,6.9457855224609375,-22.753494262695312
1776442217076361700,21.13036181640625,-35.5233154296875,8.259933471679688,-22.026382446289062
1776442217101378600,21.155378662109374,-35.448577880859375,9.322357177734375,-21.591445922851562
1776442217126396700,21.180396728515625,-36.17706298828125,10.217422485351562,-20.404190063476562
1776442217151413800,21.205413818359375,-35.977386474609375,10.678634643554688,-19.8203125
1776442217176431600,21.230431640625,-36.347381591796875,10.896697998046875,-19.00347900390625
1776442217201448700,21.25544873046875,-36.942657470703125,10.826736450195312,-18.557647705078125
1776442217226465800,21.2804658203125,-37.5379638671875,10.813369750976562,-17.074859619140625
1776442217251483600,21.305483642578125,-38.113739013671875,10.989212036132812,-15.800827026367188
1776442217276500700,21.330500732421875,-38.69512939453125,11.678802490234375,-13.8026123046875
1776442217301518600,21.3555185546875,-38.397308349609375,12.263076782226562,-12.715957641601562
1776442217326535700,21.38053564453125,-38.817626953125,12.303619384765625,-11.7247314453125
1776442217351553800,21.4055537109375,-38.99615478515625,12.551040649414062,-10.79534912109375
1776442217376570600,21.430570556640625,-39.883880615234375,12.110824584960938,-9.660919189453125
1776442217401588700,21.455588623046875,-39.552703857421875,11.84759521484375,-9.51995849609375
1776442217426605800,21.480605712890625,-39.65386962890625,11.554275512695312,-9.024185180664062
1776442217451622400,21.505622314453124,-39.649322509765625,11.316329956054688,-8.716690063476562
1776442217476640800,21.530640869140626,-40.1927490234375,11.014785766601562,-8.345367431640625
1776442217501657600,21.55565771484375,-40.669464111328125,10.671630859375,-7.94464111328125
1776442217526675700,21.58067578125,-40.828857421875,10.503631591796875,-7.8062591552734375
1776442217551692500,21.605692626953125,-40.530181884765625,9.856033325195312,-7.80230712890625
1776442217576710700,21.630710693359376,-40.82452392578125,10.195953369140625,-7.310333251953125
1776442217601727500,21.6557275390625,-40.7586669921875,11.161895751953125,-6.9385833740234375
1776442217626745600,21.68074560546875,-40.45623779296875,12.459793090820312,-6.5796661376953125
1776442217651762400,21.705762451171875,-40.26763916015625,14.09881591796875,-6.0735931396484375
1776442217676780800,21.73078076171875,-39.639007568359375,14.323699951171875,-5.6453399658203125
1776442217701797400,21.75579736328125,-39.29937744140625,14.848861694335938,-5.8386993408203125
1776442217726814500,21.780814453125,-39.073150634765625,14.9522705078125,-6.347808837890625
1776442217751832600,21.80583251953125,-39.182464599609375,14.645965576171875,-7.986114501953125
1776442217776849400,21.830849365234375,-38.64385986328125,14.659744262695312,-9.087478637695312
1776442217801867500,21.855867431640625,-38.4498291015625,14.559051513671875,-10.903762817382812
1776442217826884600,21.880884521484376,-38.394561767578125,14.848876953125,-12.002731323242188
1776442217851902500,21.90590234375,-37.525054931640625,15.366531372070312,-13.818008422851562
1776442217876919600,21.93091943359375,-36.77618408203125,15.5189208984375,-14.87353515625
1776442217901937400,21.9559375,-36.57464599609375,15.946563720703125,-16.407363891601562
1776442217926954500,21.98095458984375,-35.940185546875,15.893951416015625,-17.72467041015625
1776442217951971600,22.0059716796875,-34.914154052734375,15.23553466796875,-20.297256469726562
1776442217976990000,22.030989990234374,-34.651092529296875,14.695480346679688,-21.600723266601562
1776442218002007000,22.056007080078125,-34.23626708984375,13.549407958984375,-22.547576904296875
1776442218027025000,22.08102490234375,-33.5467529296875,13.22845458984375,-23.423324584960938
1776442218052042000,22.1060419921875,-32.116607666015625,14.568710327148438,-24.41387939453125
1776442218077060000,22.13106005859375,-31.348114013671875,14.98028564453125,-25.069107055664062
1776442218102077000,22.156076904296874,-30.81231689453125,16.176284790039062,-25.264801025390625
1776442218127095000,22.181094970703125,-30.147064208984375,17.100234985351562,-25.420013427734375
1776442218152112000,22.206112060546875,-28.834625244140625,17.684127807617188,-26.297225952148438
1776442218177130000,22.2311298828125,-28.758758544921875,17.69488525390625,-27.022979736328125
1776442218202147000,22.25614697265625,-27.66790771484375,17.3746337890625,-27.524307250976562
1776442218227164000,22.281163818359374,-27.25018310546875,17.428207397460938,-28.496978759765625
1776442218252182000,22.30618212890625,-26.232177734375,17.59613037109375,-29.235183715820312
1776442218277199000,22.33119921875,-26.180938720703125,17.446487426757812,-29.491912841796875
1776442218302217000,22.356217041015626,-25.630096435546875,17.80743408203125,-29.578506469726562
1776442218327234000,22.381234130859376,-25.307647705078125,17.746185302734375,-29.747116088867188
1776442218352252000,22.406251953125,-24.740966796875,17.298477172851562,-30.562530517578125
1776442218377269000,22.43126904296875,-25.076934814453125,16.191375732421875,-31.009002685546875
1776442218402287000,22.456287109375,-25.29290771484375,15.800323486328125,-30.991226196289062
1776442218427304000,22.481303955078126,-25.439239501953125,15.458236694335938,-31.12457275390625
1776442218452322000,22.506322021484376,-26.0443115234375,14.851150512695312,-30.483413696289062
1776442218477339100,22.531339111328126,-26.864227294921875,13.7235107421875,-30.795578002929688
1776442218502356000,22.55635595703125,-26.811492919921875,12.1588134765625,-30.989990234375
1776442218527374000,22.5813740234375,-27.4461669921875,11.206390380859375,-31.1864013671875
1776442218552391200,22.60639111328125,-27.620452880859375,10.10833740234375,-31.322036743164062
1776442218577409000,22.631408935546876,-28.198150634765625,9.194793701171875,-31.479766845703125
1776442218602426000,22.656426025390626,-28.67706298828125,8.91949462890625,-31.24517822265625
1776442218627444000,22.68144384765625,-28.7030029296875,8.348846435546875,-31.2315673828125
1776442218652461000,22.7064609375,-28.51043701171875,7.9019927978515625,-30.702743530273438
1776442218677479000,22.73147900390625,-28.364837646484375,7.4956817626953125,-31.268295288085938
1776442218702496000,22.75649609375,-27.988677978515625,6.9636993408203125,-31.908767700195312
1776442218727514000,22.78151416015625,-28.05230712890625,6.4562225341796875,-31.940826416015625
1776442218752531000,22.806531005859377,-27.500518798828125,5.5998077392578125,-32.21730041503906
1776442218777548000,22.831548095703123,-27.395965576171875,5.13421630859375,-32.53639221191406
1776442218802566100,22.856566162109374,-27.948760986328125,4.59765625,-32.380615234375
1776442218827583000,22.8815830078125,-28.369873046875,4.3212890625,-32.358001708984375
1776442218852601000,22.90660107421875,-28.27703857421875,4.1830596923828125,-32.31573486328125
1776442218877618200,22.9316181640625,-28.154388427734375,3.721923828125,-32.48246765136719
1776442218902636000,22.956635986328124,-27.313323974609375,2.8875732421875,-32.78132629394531
1776442218927653000,22.981653076171874,-27.66119384765625,3.4033050537109375,-32.65812683105469
1776442218952671000,23.0066708984375,-27.87762451171875,3.2347564697265625,-32.54011535644531
1776442218977687300,23.031687255859374,-28.21990966796875,2.901092529296875,-32.45207214355469
1776442219002705700,23.05670556640625,-27.87249755859375,2.0167694091796875,-32.463714599609375
1776442219027722200,23.08172216796875,-28.207489013671875,1.7460784912109375,-32.932891845703125
1776442219052739300,23.1067392578125,-26.772430419921875,1.57379150390625,-33.67808532714844
1776442219077757400,23.13175732421875,-26.707672119140625,0.7054595947265625,-34.067596435546875
1776442219102774300,23.156774169921874,-26.495361328125,-0.5028228759765625,-34.00700378417969
1776442219127792400,23.18179248046875,-26.0341796875,-1.0297698974609375,-34.34480285644531
1776442219152809500,23.2068095703125,-25.308135986328125,-1.31622314453125,-35.3475341796875
1776442219177827300,23.231827392578126,-25.14056396484375,-1.8541107177734375,-35.33723449707031
1776442219202844400,23.256844482421876,-24.88385009765625,-2.400177001953125,-35.16441345214844
1776442219227862300,23.2818623046875,-25.398468017578125,-3.1191558837890625,-35.44313049316406
1776442219252879400,23.30687939453125,-24.98968505859375,-4.0855865478515625,-35.37632751464844
1776442219277897500,23.3318974609375,-25.410186767578125,-5.0495758056640625,-35.12982177734375
1776442219302914300,23.356914306640626,-24.95892333984375,-6.39471435546875,-34.94873046875
1776442219327931400,23.381931396484376,-24.808349609375,-7.4037017822265625,-34.69090270996094
1776442219352949500,23.406949462890626,-24.6376953125,-8.465667724609375,-34.56011962890625
1776442219377966300,23.43196630859375,-23.565338134765625,-9.839935302734375,-35.195281982421875
1776442219402984400,23.456984375,-22.542572021484375,-11.231109619140625,-35.849029541015625
1776442219428001300,23.482001220703125,-22.493804931640625,-11.96533203125,-35.42701721191406
1776442219453019400,23.507019287109376,-23.38739013671875,-13.005050659179688,-34.41297912597656
1776442219478036500,23.532036376953126,-23.18756103515625,-14.176651000976562,-34.05509948730469
1776442219503054300,23.557054443359377,-22.3631591796875,-15.571136474609375,-33.61181640625
1776442219528071400,23.582071533203123,-21.241058349609375,-17.803970336914062,-33.53662109375
1776442219553089300,23.60708935546875,-19.971435546875,-19.154266357421875,-33.28118896484375
1776442219578106400,23.6321064453125,-18.49029541015625,-20.400100708007812,-33.58088684082031
1776442219603124500,23.65712451171875,-16.9129638671875,-21.096023559570312,-33.59588623046875
1776442219628141300,23.682141357421877,-14.496368408203125,-21.495590209960938,-34.53135681152344
1776442219653158400,23.707158447265623,-13.292510986328125,-21.711410522460938,-34.79295349121094
1776442219678176500,23.732176513671874,-11.49786376953125,-21.2625732421875,-35.7164306640625
1776442219703193300,23.757193359375,-9.258056640625,-20.895706176757812,-36.01823425292969
1776442219728211500,23.78221142578125,-5.894500732421875,-21.042572021484375,-36.596282958984375
1776442219753228500,23.807228515625,-4.956695556640625,-21.033676147460938,-36.51652526855469
1776442219778246400,23.832246337890624,-4.271331787109375,-20.956375122070312,-36.78495788574219
1776442219803263500,23.857263427734374,-4.03338623046875,-21.13714599609375,-36.632080078125
1776442219828281300,23.88228125,-3.680511474609375,-21.410354614257812,-36.82696533203125
1776442219853298400,23.90729833984375,-3.7830810546875,-20.975021362304688,-36.540618896484375
1776442219878316300,23.93231640625,-3.447540283203125,-20.759994506835938,-36.973480224609375
1776442219903333400,23.95733349609375,-3.21917724609375,-20.397064208984375,-36.66581726074219
1776442219928350500,23.9823505859375,-3.14947509765625,-20.478378295898438,-37.080291748046875
1776442219953368300,24.007368408203124,-2.972320556640625,-20.568206787109375,-36.72462463378906
1776442219978385400,24.032385498046875,-2.691558837890625,-20.09423828125,-36.973907470703125
1776442220003403500,24.057403564453125,-1.968475341796875,-19.973114013671875,-37.1953125
1776442220028420400,24.08242041015625,-1.498291015625,-19.590682983398438,-37.386505126953125
1776442220053438500,24.1074384765625,-1.031494140625,-19.709457397460938,-37.463134765625
1776442220078455600,24.13245556640625,0.06427001953125,-19.387664794921875,-37.50367736816406
1776442220103473400,24.157473388671875,0.61468505859375,-19.4237060546875,-37.5987548828125
1776442220128490500,24.182490478515625,1.86566162109375,-18.915496826171875,-37.54449462890625
1776442220153508400,24.20750830078125,2.644012451171875,-19.269119262695312,-37.31549072265625
1776442220178525400,24.232525390625,3.417327880859375,-19.23828125,-37.0904541015625
1776442220203543600,24.25754345703125,4.37225341796875,-18.969223022460938,-37.16294860839844
1776442220228560400,24.282560302734375,5.09637451171875,-18.706451416015625,-37.036834716796875
1776442220253577500,24.307577392578125,5.383575439453125,-18.6695556640625,-37.11724853515625
1776442220278595300,24.33259521484375,7.2254638671875,-17.634506225585938,-37.469757080078125
1776442220303612400,24.3576123046875,7.55517578125,-17.126541137695312,-37.53648376464844
1776442220328630500,24.382630615234376,8.25604248046875,-17.036209106445312,-37.58958435058594
1776442220353647400,24.4076474609375,9.03253173828125,-16.853240966796875,-37.411041259765625
1776442220378665500,24.43266552734375,9.446258544921875,-16.34796142578125,-37.31297302246094
1776442220403682600,24.4576826171875,9.81256103515625,-16.475433349609375,-37.1177978515625
1776442220428700400,24.482700439453126,10.961273193359375,-16.363922119140625,-37.08110046386719
1776442220453717500,24.507717529296876,11.591949462890625,-15.83526611328125,-36.96354675292969
1776442220478735400,24.5327353515625,12.51953125,-15.761566162109375,-36.5430908203125
1776442220503752400,24.55775244140625,12.94976806640625,-15.322952270507812,-36.585174560546875
1776442220528770600,24.5827705078125,13.814849853515625,-14.293975830078125,-36.57514953613281
1776442220553787400,24.607787353515626,14.26934814453125,-13.27044677734375,-36.89103698730469
1776442220578804500,24.632804443359376,14.763702392578125,-12.0595703125,-37.224395751953125
1776442220603822600,24.657822509765627,14.58111572265625,-11.039398193359375,-37.42179870605469
1776442220628839400,24.68283935546875,14.44903564453125,-9.928176879882812,-37.88075256347656
1776442220653857500,24.707857421875,14.406280517578125,-9.691390991210938,-37.92181396484375
1776442220678874400,24.732874267578126,14.9522705078125,-9.90087890625,-37.891265869140625
1776442220703892500,24.757892578125,14.9696044921875,-9.449798583984375,-37.92756652832031
1776442220728909600,24.78290966796875,15.214019775390625,-8.918899536132812,-37.82896423339844
1776442220753927400,24.807927490234373,14.797210693359375,-8.206466674804688,-38.16973876953125
1776442220778944500,24.832944580078124,14.153900146484375,-7.70989990234375,-38.65631103515625
1776442220803962400,24.85796240234375,13.641571044921875,-7.548919677734375,-38.835174560546875
1776442220828979500,24.8829794921875,13.464080810546875,-7.4608001708984375,-38.683349609375
1776442220853996300,24.907996337890626,13.184722900390625,-7.48492431640625,-39.07696533203125
1776442220879014400,24.933014404296873,13.00341796875,-7.662139892578125,-39.04429626464844
1776442220904031200,24.95803125,12.62188720703125,-7.37115478515625,-38.87773132324219
1776442220929049600,24.983049560546874,12.809844970703125,-7.6134490966796875,-39.11344909667969
1776442220954066200,25.008066162109376,12.6412353515625,-7.3108062744140625,-39.033477783203125
1776442220979085000,25.0330849609375,12.639801025390625,-7.142425537109375,-39.06927490234375
1776442221004102000,25.058101806640625,12.389923095703125,-7.548370361328125,-39.350830078125
1776442221029120000,25.0831201171875,12.09246826171875,-7.4255218505859375,-39.106109619140625
1776442221054137000,25.10813720703125,12.067138671875,-7.182373046875,-39.336517333984375
1776442221079155000,25.133155029296876,12.044708251953125,-6.9291229248046875,-39.298065185546875
1776442221104172000,25.158172119140627,13.01513671875,-6.5397796630859375,-39.27226257324219
1776442221129190000,25.18318994140625,12.75152587890625,-5.992645263671875,-38.92948913574219
1776442221154207000,25.20820703125,12.70440673828125,-5.2670440673828125,-39.212799072265625
1776442221179225000,25.23322509765625,12.80499267578125,-4.3906097412109375,-39.33357238769531
1776442221204242000,25.258241943359376,12.190582275390625,-3.4200439453125,-39.427825927734375
1776442221229260000,25.283260009765623,11.90924072265625,-2.95751953125,-39.732391357421875
1776442221254276900,25.30827685546875,11.500213623046875,-3.0531005859375,-39.792816162109375
1776442221279295000,25.333294921875,11.181488037109375,-3.1508941650390625,-40.433685302734375
1776442221304312000,25.35831201171875,10.32421875,-3.3023681640625,-40.22877502441406
1776442221329329000,25.383328857421876,9.79693603515625,-3.062744140625,-40.52207946777344
1776442221354347000,25.408346923828127,9.68975830078125,-3.0171966552734375,-40.36433410644531
1776442221379364000,25.433364013671873,9.6982421875,-2.774444580078125,-40.29109191894531
1776442221404382000,25.4583818359375,9.622467041015625,-3.040679931640625,-40.28334045410156
1776442221429399000,25.48339892578125,9.26422119140625,-3.20367431640625,-40.30389404296875
1776442221454417000,25.5084169921875,8.62811279296875,-3.687591552734375,-40.31721496582031
1776442221479434000,25.53343408203125,8.331634521484375,-3.6175994873046875,-40.67546081542969
1776442221504452000,25.5584521484375,7.783294677734375,-3.538238525390625,-40.39569091796875
1776442221529469000,25.583468994140624,7.475006103515625,-3.6233367919921875,-40.83268737792969
1776442221554487000,25.608487060546874,7.215606689453125,-4.1551513671875,-40.570037841796875
1776442221579504000,25.633504150390625,6.81146240234375,-4.2681732177734375,-40.696319580078125
1776442221604522000,25.65852197265625,5.8577880859375,-4.035797119140625,-40.83549499511719
1776442221629539000,25.6835390625,5.28570556640625,-4.1703338623046875,-40.91009521484375
1776442221654556200,25.70855615234375,4.983184814453125,-3.973358154296875,-41.15708923339844
1776442221679574000,25.733573974609374,4.332000732421875,-3.6355133056640625,-41.287750244140625
1776442221704591000,25.758591064453125,3.73291015625,-3.1922454833984375,-41.57881164550781
1776442221729609000,25.78360888671875,2.6875,-2.5090484619140625,-41.568756103515625
1776442221754626000,25.8086259765625,3.44976806640625,-2.079559326171875,-41.662384033203125
1776442221779644000,25.833643798828124,3.698760986328125,-1.14752197265625,-41.70806884765625
1776442221804661000,25.858660888671874,3.717254638671875,0.017333984375,-41.50318908691406
1776442221829679000,25.88367919921875,4.32037353515625,0.45391845703125,-41.40776062011719
1776442221854696000,25.908696044921875,5.065643310546875,0.4571533203125,-41.6748046875
1776442221879714000,25.933714111328126,5.52197265625,0.029327392578125,-41.68116760253906
1776442221904731100,25.958731201171876,6.64959716796875,-0.2042999267578125,-41.47856140136719
1776442221929748000,25.983748046875,7.645721435546875,-0.193603515625,-41.47955322265625
1776442221954766000,26.00876611328125,8.9420166015625,0.3439178466796875,-41.206298828125
1776442221979783000,26.033782958984375,9.468597412109375,0.7675323486328125,-40.878662109375
1776442222004800800,26.05880078125,10.2535400390625,0.8512420654296875,-40.644134521484375
1776442222029817900,26.08381787109375,10.696533203125,0.9193572998046875,-40.37416076660156
1776442222054835700,26.108835693359374,11.58697509765625,1.2729034423828125,-39.89451599121094
1776442222079852800,26.133852783203125,11.562408447265625,1.2540740966796875,-39.98675537109375
1776442222104871000,26.158870849609375,12.588897705078125,1.6630401611328125,-39.844268798828125
1776442222129887700,26.1838876953125,13.248321533203125,2.3834686279296875,-39.51774597167969
1776442222154905900,26.20890576171875,15.22894287109375,3.73504638671875,-38.85447692871094
1776442222179923000,26.2339228515625,16.02972412109375,4.8195648193359375,-38.1314697265625
1776442222204940800,26.25894091796875,15.805572509765625,6.299957275390625,-38.15171813964844
1776442222229958000,26.2839580078125,15.32257080078125,6.7042083740234375,-38.542327880859375
1776442222254974700,26.308974609375,13.57073974609375,7.6870574951171875,-38.70918273925781
1776442222279992800,26.333992919921876,12.867401123046875,8.593795776367188,-38.92491149902344
1776442222305009700,26.359009765625,12.425567626953125,9.021499633789062,-38.98945617675781
1776442222330027800,26.38402783203125,11.7269287109375,9.630661010742188,-39.14512634277344
1776442222355044600,26.409044677734375,10.698974609375,9.8717041015625,-39.339019775390625
1776442222380062700,26.434062744140626,9.082305908203125,10.34246826171875,-39.57844543457031
1776442222405079600,26.45907958984375,8.61041259765625,10.68621826171875,-39.72357177734375
1776442222430098000,26.484097900390626,7.1839599609375,11.548385620117188,-39.731475830078125
1776442222455114500,26.509114501953125,6.43853759765625,11.934555053710938,-39.80458068847656
1776442222480132900,26.5341328125,5.313568115234375,12.298507690429688,-39.693267822265625
1776442222505149700,26.559149658203125,5.608642578125,12.757461547851562,-39.73687744140625
1776442222530167800,26.584167724609376,5.039825439453125,13.037017822265625,-39.767791748046875
1776442222555184600,26.6091845703125,5.357696533203125,13.473541259765625,-39.611846923828125
1776442222580201700,26.63420166015625,4.61297607421875,13.864776611328125,-39.45137023925781
1776442222605219600,26.659219482421875,3.934814453125,14.285659790039062,-39.319732666015625
1776442222630236700,26.684236572265625,1.8792724609375,14.709625244140625,-39.330413818359375
1776442222655254500,26.709254638671876,-0.6710205078125,15.204116821289062,-39.38206481933594
1776442222680271600,26.734271728515626,-4.592987060546875,15.671905517578125,-38.904815673828125
1776442222705289700,26.759289794921877,-6.489288330078125,16.0924072265625,-38.30085754394531
1776442222730306600,26.784306640625,-8.153839111328125,16.538787841796875,-37.889190673828125
1776442222755324700,26.80932470703125,-8.66217041015625,16.64385986328125,-37.99369812011719
1776442222780341500,26.834341552734376,-8.2269287109375,16.752670288085938,-38.02906799316406
1776442222805359600,26.859359619140626,-7.87823486328125,17.05029296875,-37.92262268066406
1776442222830376700,26.884376708984377,-8.060546875,17.397811889648438,-37.73094177246094
1776442222855394600,26.90939453125,-7.7896728515625,17.669189453125,-37.649322509765625
1776442222880411600,26.93441162109375,-7.190948486328125,17.889236450195312,-37.995819091796875
1776442222905428700,26.9594287109375,-6.534027099609375,17.964752197265625,-37.94746398925781
1776442222930446600,26.984446533203126,-5.215362548828125,17.934158325195312,-38.35636901855469
1776442222955463700,27.009463623046877,-4.82867431640625,18.201629638671875,-38.424896240234375
1776442222980485600,27.034485595703124,-3.788665771484375,17.891448974609375,-38.60589599609375
1776442223005502700,27.059502685546875,-2.928558349609375,17.748886108398438,-38.42008972167969
1776442223030520600,27.0845205078125,-1.34527587890625,17.869720458984375,-38.65997314453125
1776442223055537700,27.10953759765625,-0.74066162109375,17.6439208984375,-38.6925048828125
1776442223080555800,27.1345556640625,-0.360992431640625,17.651107788085938,-38.96073913574219
1776442223105572600,27.159572509765624,-0.309661865234375,17.673110961914062,-38.78208923339844
1776442223130590700,27.1845908203125,1.204345703125,17.784927368164062,-38.865264892578125
1776442223155607800,27.20960791015625,1.49786376953125,17.518325805664062,-39.032318115234375
1776442223180624600,27.234624755859375,-1.48443603515625,18.343521118164062,-38.38298034667969
1776442223205642800,27.259642822265626,-3.20556640625,18.202224731445312,-38.30216979980469
1776442223230659800,27.284659912109376,-4.27716064453125,18.536224365234375,-38.307342529296875
1776442223255677700,27.309677734375,-5.515716552734375,18.899978637695312,-37.69830322265625
1776442223280694800,27.33469482421875,-6.274444580078125,19.008224487304688,-37.383941650390625
1776442223305712600,27.359712646484375,-6.77978515625,19.232086181640625,-37.392120361328125
1776442223330729700,27.384729736328126,-7.5875244140625,19.209213256835938,-37.460418701171875
1776442223355747600,27.40974755859375,-7.969635009765625,19.1287841796875,-36.96452331542969
1776442223380764700,27.4347646484375,-9.378204345703125,19.274261474609375,-37.04884338378906
1776442223405782800,27.45978271484375,-9.784027099609375,18.962417602539062,-37.307891845703125
1776442223430799600,27.484799560546875,-10.38861083984375,18.611587524414062,-37.09344482421875
1776442223455817700,27.509817626953126,-11.04840087890625,18.270660400390625,-37.19117736816406
1776442223480834800,27.534834716796876,-10.804656982421875,17.201644897460938,-37.601348876953125
1776442223505851600,27.5598515625,-10.80133056640625,16.197860717773438,-37.888824462890625
1776442223530869800,27.584869873046873,-12.03271484375,15.090744018554688,-38.07154846191406
1776442223555886800,27.609886962890624,-12.45477294921875,14.19873046875,-38.229278564453125
1776442223580904700,27.63490478515625,-14.526031494140625,13.28265380859375,-37.794219970703125
1776442223605921800,27.659921875,-15.719635009765625,12.560089111328125,-37.64207458496094
1776442223630939600,27.684939697265627,-16.602630615234375,11.37530517578125,-37.8150634765625
1776442223655956700,27.709956787109373,-16.357635498046875,10.078765869140625,-38.467559814453125
1776442223680974800,27.734974853515624,-16.1624755859375,7.7008514404296875,-39.102386474609375
1776442223705991700,27.75999169921875,-15.86376953125,6.0861358642578125,-39.66911315917969
1776442223731009800,27.785009765625,-15.340728759765625,4.1418914794921875,-40.00230407714844
1776442223756026600,27.810026611328126,-15.208282470703125,3.5969696044921875,-40.0894775390625
1776442223781044700,27.835044677734373,-14.992645263671875,2.9783935546875,-40.173919677734375
1776442223806061800,27.860061767578124,-14.600494384765625,2.1365966796875,-40.30616760253906
1776442223831078700,27.88507861328125,-14.0782470703125,0.99810791015625,-40.3392333984375
1776442223856096800,27.9100966796875,-13.7509765625,0.453643798828125,-40.532562255859375
1776442223881113600,27.935113525390626,-12.60137939453125,-0.1804656982421875,-40.739288330078125
1776442223906131700,27.960131591796873,-12.218017578125,-0.740386962890625,-40.765350341796875
1776442223931148500,27.9851484375,-11.990203857421875,-0.7293548583984375,-40.86199951171875
1776442223956166700,28.010166748046874,-11.57080078125,-0.6314697265625,-41.01560974121094
1776442223981180400,28.035180419921875,-10.769683837890625,-0.5248565673828125,-41.36639404296875
1776442224006198500,28.060198486328126,-10.5091552734375,-0.6061859130859375,-41.2879638671875
1776442224031215400,28.08521533203125,-9.818634033203125,-1.1121826171875,-41.25642395019531
1776442224056233500,28.1102333984375,-9.9212646484375,-1.831298828125,-41.3441162109375
1776442224081250300,28.135250244140625,-9.115692138671875,-2.18804931640625,-41.49305725097656
1776442224106267400,28.160267333984375,-8.791595458984375,-2.2467193603515625,-41.72630310058594
1776442224131285500,28.185285400390626,-7.54046630859375,-2.0834808349609375,-42.22760009765625
1776442224156302300,28.21030224609375,-7.301666259765625,-2.2545166015625,-42.47752380371094
1776442224181320400,28.235320556640627,-6.83807373046875,-2.2845916748046875,-42.30049133300781
1776442224206337500,28.260337646484373,-7.595855712890625,-3.03143310546875,-42.050384521484375
1776442224231355400,28.28535546875,-8.233123779296875,-4.0296630859375,-41.92802429199219
1776442224256372500,28.31037255859375,-8.537750244140625,-4.51220703125,-41.91105651855469
1776442224281390300,28.335390380859376,-8.18572998046875,-4.8456878662109375,-42.25201416015625
1776442224306407400,28.360407470703127,-8.705902099609375,-4.9138946533203125,-41.66778564453125
1776442224331425500,28.385425537109374,-8.310791015625,-4.937652587890625,-41.882110595703125
1776442224356442400,28.4104423828125,-8.406646728515625,-5.2095794677734375,-41.67835998535156
1776442224381460500,28.43546044921875,-8.169281005859375,-5.6888275146484375,-41.84077453613281
1776442224406477600,28.4604775390625,-7.8551025390625,-6.5374755859375,-41.99552917480469
1776442224431494400,28.485494384765627,-7.82855224609375,-6.768707275390625,-41.8619384765625
1776442224456512500,28.510512451171873,-8.547027587890625,-6.3150634765625,-41.89215087890625
1776442224481529600,28.535529541015624,-7.956634521484375,-6.065277099609375,-41.901763916015625
1776442224506547500,28.56054736328125,-8.638092041015625,-4.6927490234375,-42.18022155761719
1776442224531564500,28.585564453125,-9.658050537109375,-4.258697509765625,-42.29527282714844
1776442224556582400,28.61058251953125,-9.6800537109375,-3.758514404296875,-41.97871398925781
1776442224581599500,28.635599609375,-9.59539794921875,-3.54730224609375,-42.25715637207031
1776442224606617300,28.660617431640624,-9.09466552734375,-3.1489715576171875,-42.161346435546875
1776442224631634400,28.685634521484374,-9.1531982421875,-2.4969024658203125,-42.264556884765625
1776442224656652500,28.710652587890625,-8.830169677734375,-2.00714111328125,-42.16021728515625
1776442224681669400,28.73566943359375,-9.113067626953125,-2.599029541015625,-42.19316101074219
1776442224706687500,28.7606875,-9.3392333984375,-3.469573974609375,-42.363128662109375
1776442224731704600,28.78570458984375,-9.596832275390625,-3.7823028564453125,-41.82890319824219
1776442224756721400,28.810721435546874,-11.5272216796875,-5.0823974609375,-41.695709228515625
1776442224781739500,28.835739501953125,-13.38470458984375,-5.52337646484375,-41.35105895996094
1776442224806756600,28.860756591796875,-14.58489990234375,-6.80291748046875,-40.625579833984375
1776442224831774500,28.8857744140625,-15.53070068359375,-7.41473388671875,-40.46539306640625
1776442224856791600,28.91079150390625,-15.800567626953125,-8.648193359375,-40.0999755859375
1776442224881809400,28.935809326171874,-15.938995361328125,-8.930450439453125,-39.6898193359375
1776442224906826500,28.960826416015625,-16.42205810546875,-9.608261108398438,-39.35148620605469
1776442224931844400,28.98584423828125,-17.614044189453125,-9.957565307617188,-38.88325500488281
1776442224956861400,29.010861328125,-19.06561279296875,-10.67974853515625,-38.14361572265625
1776442224981879300,29.03587939453125,-19.708953857421875,-10.333465576171875,-37.849395751953125
1776442225006896000,29.060896240234374,-19.9420166015625,-10.317764282226562,-38.05992126464844
1776442225031913000,29.085912841796876,-20.330169677734375,-10.007766723632812,-38.06462097167969
1776442225056931000,29.11093115234375,-19.627471923828125,-10.498992919921875,-38.070404052734375
1776442225081948200,29.1359482421875,-20.14764404296875,-10.841812133789062,-37.942291259765625
1776442225106966000,29.160966064453124,-19.6917724609375,-11.324295043945312,-37.982940673828125
1776442225131983000,29.185983154296874,-19.15948486328125,-11.4859619140625,-37.859527587890625
1776442225157001000,29.2110009765625,-19.085906982421875,-11.377090454101562,-38.09379577636719
1776442225182018000,29.23601806640625,-18.576141357421875,-11.064010620117188,-38.1793212890625
1776442225207036000,29.261035888671874,-17.887908935546875,-10.582778930664062,-38.97210693359375
1776442225232053000,29.286052978515624,-17.614990234375,-10.0478515625,-39.070953369140625
1776442225257071000,29.311071044921874,-16.863128662109375,-9.192901611328125,-39.68278503417969
1776442225282088000,29.336087890625,-16.23626708984375,-8.931533813476562,-40.10102844238281
1776442225307106000,29.36110595703125,-15.709014892578125,-8.675582885742188,-40.244110107421875
1776442225332123100,29.386123046875,-15.450408935546875,-8.744476318359375,-40.20918273925781
1776442225357140000,29.411139892578124,-14.492340087890625,-8.979644775390625,-40.225006103515625
1776442225382158000,29.436157958984374,-13.962738037109375,-9.064926147460938,-40.40892028808594
1776442225407175200,29.461175048828125,-13.462310791015625,-8.906417846679688,-40.69183349609375
1776442225432193000,29.486193115234375,-13.204498291015625,-9.162933349609375,-41.07829284667969
1776442225457210000,29.511210205078125,-12.945709228515625,-9.035003662109375,-40.985107421875
1776442225482228000,29.53622802734375,-12.2186279296875,-8.847503662109375,-40.82661437988281
1776442225507245000,29.5612451171875,-11.563079833984375,-8.738128662109375,-40.978759765625
1776442225532263200,29.58626318359375,-10.903411865234375,-9.124374389648438,-41.07249450683594
1776442225557280000,29.611280029296875,-10.566741943359375,-9.644119262695312,-41.17384338378906
1776442225582298000,29.636298095703125,-10.12823486328125,-10.312774658203125,-41.03663635253906
1776442225607315000,29.66131494140625,-9.01995849609375,-11.439193725585938,-41.1064453125
1776442225632332000,29.68633203125,-8.182891845703125,-11.861114501953125,-41.0970458984375
1776442225657350100,29.71135009765625,-7.41693115234375,-13.153182983398438,-40.92543029785156
1776442225682367000,29.736366943359375,-6.667449951171875,-13.969711303710938,-40.70556640625
1776442225707385000,29.761385009765625,-5.24700927734375,-14.663909912109375,-40.62713623046875
1776442225732402200,29.786402099609376,-4.141693115234375,-14.752471923828125,-40.42408752441406
1776442225757420000,29.811419921875,-2.51434326171875,-14.822662353515625,-40.46134948730469
1776442225782437000,29.83643701171875,-1.2230224609375,-15.135726928710938,-40.450408935546875
1776442225807455000,29.861455078125,0.186981201171875,-14.75689697265625,-40.51603698730469
1776442225832472000,29.88647216796875,1.14739990234375,-15.119918823242188,-40.46708679199219
1776442225857490200,29.911490234375,1.948760986328125,-15.072433471679688,-40.19938659667969
1776442225882507000,29.936507080078126,3.059478759765625,-14.620147705078125,-40.083343505859375
1776442225907524000,29.961524169921876,4.2178955078125,-13.642059326171875,-40.60545349121094
1776442225932542200,29.986542236328123,4.252044677734375,-12.79339599609375,-40.8590087890625
1776442225957559000,30.01155908203125,4.26190185546875,-11.91351318359375,-41.180267333984375
1776442225982576600,30.03657666015625,4.76177978515625,-11.762176513671875,-41.25604248046875
1776442226007593700,30.06159375,5.11114501953125,-11.860671997070312,-41.09295654296875
1776442226032611600,30.086611572265625,5.93023681640625,-11.976882934570312,-41.186492919921875
1776442226057628700,30.111628662109375,6.214324951171875,-11.97100830078125,-40.86506652832031
1776442226082646500,30.136646484375,6.677520751953125,-11.2022705078125,-40.85491943359375
1776442226107663600,30.16166357421875,6.957305908203125,-10.277435302734375,-41.331695556640625
1776442226132681700,30.186681640625,7.184051513671875,-8.34429931640625,-42.06752014160156
1776442226157698600,30.211698486328125,7.16802978515625,-6.9329681396484375,-42.28849792480469
1776442226182715600,30.236715576171875,8.672393798828125,-4.3173675537109375,-42.46287536621094
1776442226207733500,30.2617333984375,8.438995361328125,-2.73663330078125,-42.51670837402344
1776442226232750600,30.28675048828125,9.209014892578125,-0.635467529296875,-42.72148132324219
1776442226257768700,30.311768798828126,9.5059814453125,1.2062835693359375,-42.74920654296875
1776442226282785500,30.33678564453125,9.251373291015625,3.3813934326171875,-42.750885009765625
1776442226307803600,30.3618037109375,9.05487060546875,4.861297607421875,-42.74815368652344
1776442226332820700,30.38682080078125,8.013885498046875,6.2643890380859375,-42.83946228027344
1776442226357838600,30.411838623046876,8.136383056640625,7.0838623046875,-42.67289733886719
1776442226382855700,30.436855712890626,7.808502197265625,8.482040405273438,-42.80171203613281
1776442226407873500,30.46187353515625,7.520782470703125,9.11029052734375,-42.68133544921875
1776442226432890600,30.486890625,6.348052978515625,10.446197509765625,-42.55133056640625
1776442226457908700,30.51190869140625,5.57861328125,11.044097900390625,-42.51097106933594
1776442226482925600,30.536925537109376,5.078826904296875,11.454635620117188,-42.58685302734375
1776442226507942700,30.561942626953126,4.350341796875,11.937744140625,-42.41424560546875
1776442226532960800,30.586960693359377,3.9583740234375,12.737518310546875,-42.34303283691406
1776442226557977600,30.6119775390625,3.273284912109375,13.690277099609375,-42.1920166015625
1776442226582995700,30.63699560546875,1.555755615234375,14.508804321289062,-42.25474548339844
1776442226608012800,30.6620126953125,0.00848388671875,14.975006103515625,-42.0069580078125
1776442226633030700,30.68703076171875,-1.330963134765625,15.53668212890625,-41.64231872558594
1776442226658047700,30.7120478515625,-2.56475830078125,15.915908813476562,-41.24992370605469
1776442226683065600,30.737065673828123,-3.86181640625,16.731643676757812,-41.072479248046875
1776442226708082700,30.762082763671874,-4.2420654296875,16.753143310546875,-41.352020263671875
1776442226733100500,30.7871005859375,-3.56671142578125,16.322769165039062,-41.35682678222656
1776442226758117600,30.81211767578125,-3.1124267578125,16.180389404296875,-41.7125244140625
1776442226783134700,30.837134765625,-3.513214111328125,17.041748046875,-41.09840393066406
1776442226808152600,30.862152587890623,-4.087188720703125,17.91058349609375,-40.667144775390625
1776442226833169700,30.887169677734374,-4.710906982421875,18.848236083984375,-40.42803955078125
1776442226858187800,30.912187744140624,-4.484771728515625,19.0343017578125,-40.555908203125
1776442226883204600,30.93720458984375,-4.425262451171875,19.543502807617188,-39.94700622558594
1776442226908222700,30.96222265625,-3.5318603515625,21.032058715820312,-39.5126953125
1776442226933239800,30.98723974609375,-3.68951416015625,21.976669311523438,-38.42002868652344
1776442226958257700,31.012257568359374,-3.600250244140625,22.372329711914062,-38.43577575683594
1776442226983275000,31.03727490234375,-3.914825439453125,22.317550659179688,-38.507354736328125
1776442227008291800,31.062291748046874,-4.446563720703125,22.360748291015625,-38.65367126464844
1776442227033310000,31.08731005859375,-5.500640869140625,22.22894287109375,-38.385467529296875
1776442227058326800,31.112326904296875,-6.581390380859375,22.583221435546875,-38.22123718261719
1776442227083345000,31.137344970703126,-7.497100830078125,23.147293090820312,-37.6519775390625
1776442227108361700,31.16236181640625,-9.037689208984375,23.549575805664062,-37.040252685546875
1776442227133379800,31.1873798828125,-11.119842529296875,23.79840087890625,-36.71763610839844
1776442227158396700,31.212396728515625,-12.104705810546875,23.204086303710938,-36.60838317871094
1776442227183415000,31.2374150390625,-12.647430419921875,22.637863159179688,-36.85302734375
1776442227208431600,31.262431640625,-13.305816650390625,21.798873901367188,-36.99839782714844
1776442227233450000,31.287449951171876,-14.556640625,20.083709716796875,-37.40553283691406
1776442227258466800,31.312466796875,-15.440093994140625,19.334671020507812,-37.8687744140625
1776442227283483600,31.337483642578125,-15.89752197265625,17.9365234375,-37.96888732910156
1776442227308501800,31.362501708984375,-16.440032958984375,17.315185546875,-38.11555480957031
1776442227333518800,31.387518798828125,-17.60467529296875,17.2110595703125,-37.7581787109375
1776442227358536700,31.41253662109375,-18.431365966796875,17.171279907226562,-37.74169921875
1776442227383553800,31.4375537109375,-19.17059326171875,16.9111328125,-37.08549499511719
1776442227408571600,31.462571533203125,-19.82855224609375,16.441909790039062,-37.16270446777344
1776442227433588700,31.487588623046875,-20.83294677734375,15.772109985351562,-36.79505920410156
1776442227458606600,31.512606689453126,-21.299346923828125,14.89300537109375,-36.78216552734375
1776442227483623700,31.537623779296876,-22.001251220703125,14.612442016601562,-36.61454772949219
1776442227508641800,31.562641845703126,-22.688140869140625,14.273788452148438,-36.620880126953125
1776442227533658600,31.58765869140625,-23.004150390625,13.490036010742188,-36.19624328613281
1776442227558675700,31.61267578125,-22.830810546875,13.08935546875,-36.469970703125
1776442227583693800,31.63769384765625,-23.1689453125,13.135101318359375,-36.45573425292969
1776442227608710700,31.662710693359376,-23.396270751953125,13.015350341796875,-36.73797607421875
1776442227633728800,31.687728759765626,-23.23968505859375,12.30108642578125,-36.85163879394531
1776442227658745900,31.712745849609377,-23.331817626953125,12.252029418945312,-37.24822998046875
1776442227683763700,31.737763671875,-22.82891845703125,11.7803955078125,-36.92561340332031
1776442227708780800,31.76278076171875,-22.461181640625,11.722442626953125,-37.03749084472656
1776442227733798700,31.787798583984376,-22.974853515625,11.452835083007812,-37.28233337402344
1776442227758815700,31.812815673828126,-23.00299072265625,11.679306030273438,-37.224029541015625
1776442227783833900,31.837833740234377,-23.171722412109375,11.594711303710938,-37.07676696777344
1776442227808850700,31.8628505859375,-23.5423583984375,11.45050048828125,-37.022125244140625
1776442227833867800,31.88786767578125,-23.4232177734375,11.531600952148438,-36.61268615722656
1776442227858886000,31.912885986328124,-24.630859375,11.277069091796875,-36.25187683105469
1776442227883902700,31.93790283203125,-24.740997314453125,11.44805908203125,-36.307159423828125
