time,seconds_elapsed,z,y,x
1776442196020545800,0.0745458984375,-0.03315768763422966,0.20542000234127045,-0.38263818621635437
1776442196045562600,0.099562744140625,-0.14332014322280884,0.184291273355484,-0.16009433567523956
1776442196070579700,0.124579833984375,-0.13065335154533386,-0.09726130217313766,-0.07049866765737534
1776442196095596800,0.1495966796875,-0.022433137521147728,-0.24927747249603271,-0.15231789648532867
1776442196120614000,0.17461376953125,0.13242648541927338,-0.07488702237606049,-0.24583905935287476
1776442196145630700,0.199630615234375,0.25015684962272644,0.24314448237419128,-0.3076574206352234
1776442196170647800,0.224647705078125,0.2072456032037735,0.3687969446182251,-0.2599855065345764
1776442196195666000,0.249666015625,0.036742035299539566,0.2946398854255676,-0.20592600107192993
1776442196220682800,0.274682861328125,-0.02611495740711689,0.23010963201522827,-0.2565356492996216
1776442196245699600,0.299699462890625,0.013130449689924717,0.13485422730445862,-0.2407393753528595
1776442196270716700,0.324716552734375,0.021143633872270584,0.09485647082328796,-0.2049587368965149
1776442196295733800,0.349733642578125,-0.0336141511797905,0.22338275611400604,-0.2741870880126953
1776442196320750600,0.37475048828125,-0.039250198751688004,0.2859998047351837,-0.3401296138763428
1776442196345767700,0.399767578125,-0.02634878270328045,0.2543763518333435,-0.3481270968914032
1776442196370784800,0.42478466796875,0.014456436969339848,0.3361242115497589,-0.3493947386741638
1776442196395801900,0.4498017578125,0.06432439386844635,0.28829410672187805,-0.26149898767471313
1776442196420818700,0.474818603515625,0.024335699155926704,0.2168353796005249,-0.11588931828737259
1776442196445835800,0.499835693359375,-0.012042015790939331,0.2108384668827057,-0.10366008430719376
1776442196470854000,0.52485400390625,-0.037890657782554626,0.26051679253578186,-0.17697690427303314
1776442196495870700,0.54987060546875,-0.011543737724423409,0.3004074990749359,-0.19424563646316528
1776442196520887800,0.5748876953125,0.03436862677335739,0.3011119067668915,-0.22829149663448334
1776442196545904600,0.599904541015625,0.006217682268470526,0.23609454929828644,-0.28575319051742554
1776442196570921700,0.624921630859375,-0.13048583269119263,0.2199142575263977,-0.27402862906455994
1776442196595938600,0.6499384765625,-0.2727276682853699,0.47647973895072937,-0.22952640056610107
1776442196620955600,0.67495556640625,-0.27362966537475586,0.9019692540168762,-0.3093376159667969
1776442196645972700,0.69997265625,-0.11353934556245804,1.0568584203720093,-0.5089066624641418
1776442196670989800,0.72498974609375,0.15819363296031952,1.0557031631469727,-0.7404463887214661
1776442196696007700,0.750007568359375,0.7375614047050476,0.883003294467926,-0.9905710220336914
1776442196721024800,0.775024658203125,1.258235216140747,0.6338917016983032,-1.1871024370193481
1776442196746041900,0.800041748046875,1.7501477003097534,0.7081372141838074,-1.2833291292190552
1776442196771058700,0.82505859375,2.2526581287384033,1.0445165634155273,-1.0127966403961182
1776442196796075800,0.85007568359375,2.2641282081604004,0.5608726143836975,-0.4385533928871155
1776442196821092900,0.8750927734375,1.7278141975402832,-0.046367764472961426,0.0969606339931488
1776442196846110000,0.90010986328125,1.4176584482192993,0.0031039142049849033,0.41606220602989197
1776442196871126500,0.92512646484375,1.5120331048965454,-0.09440986067056656,0.14751727879047394
1776442196896143600,0.9501435546875,1.5188729763031006,0.3020906150341034,-0.6091304421424866
1776442196921161700,0.97516162109375,1.2508779764175415,0.3229764699935913,-0.9637303352355957
1776442196946178300,1.00017822265625,1.1048656702041626,-0.1283654272556305,-0.6019201874732971
1776442196971195100,1.025195068359375,1.0911189317703247,-0.2648676037788391,-0.06600911170244217
1776442196996212200,1.050212158203125,1.1919571161270142,-0.002642122097313404,-0.1614762395620346
1776442197021229300,1.075229248046875,1.177983045578003,0.08228182047605515,-0.20918144285678864
1776442197046246400,1.100246337890625,1.0611295700073242,0.09825173765420914,-0.07842503488063812
1776442197071263200,1.12526318359375,0.887416422367096,-0.04201988875865936,0.054792143404483795
1776442197096280300,1.1502802734375,0.7362779974937439,-0.05014466121792793,0.19262270629405975
1776442197121297400,1.17529736328125,0.6885046362876892,0.3540153205394745,0.16265416145324707
1776442197146315300,1.200315185546875,0.6711301803588867,0.5999414920806885,0.049433596432209015
1776442197171332400,1.225332275390625,0.7808625102043152,0.2870469391345978,0.21941198408603668
1776442197196349200,1.25034912109375,0.8144151568412781,0.2620137631893158,0.2772606313228607
1776442197221366300,1.2753662109375,0.8337758183479309,0.4825347065925598,0.19484005868434906
1776442197246383000,1.300383056640625,0.6930311918258667,0.4986627995967865,0.14101438224315643
1776442197271400200,1.325400146484375,0.6739054322242737,0.3545950949192047,0.1191767230629921
1776442197296417300,1.350417236328125,0.5249508619308472,0.36948615312576294,0.02220996469259262
1776442197321434400,1.375434326171875,0.1473204791545868,0.4585105776786804,-0.08552874624729156
1776442197346452200,1.4004521484375,0.048223987221717834,0.4691786766052246,0.06065935268998146
1776442197371469300,1.42546923828125,0.3571373522281647,0.24467046558856964,0.2761080265045166
1776442197396486400,1.450486328125,0.7742682695388794,0.26974838972091675,0.31458431482315063
1776442197421503200,1.475503173828125,1.325719952583313,0.2640175223350525,-0.051120176911354065
1776442197446520300,1.500520263671875,1.4339532852172852,0.2708189785480499,-0.38002750277519226
1776442197471537400,1.525537353515625,1.5741907358169556,0.15132027864456177,-0.511368453502655
1776442197496554200,1.55055419921875,1.7384915351867676,0.18089282512664795,-0.7922012209892273
1776442197521571000,1.575571044921875,1.770411729812622,0.15479810535907745,-1.0668442249298096
1776442197546589200,1.600589111328125,1.6177648305892944,0.18359699845314026,-1.3049960136413574
1776442197571606300,1.625606201171875,0.8268792629241943,0.13744334876537323,-1.2500749826431274
1776442197596623000,1.650623046875,-0.00033635724685154855,0.17248468101024628,-0.8921278119087219
1776442197621640200,1.67564013671875,-0.06187242269515991,0.22252042591571808,-0.4427819550037384
1776442197646657300,1.7006572265625,0.589596152305603,0.12378399074077606,0.020296482369303703
1776442197671674400,1.72567431640625,1.1551014184951782,0.04333442449569702,0.07013381272554398
1776442197696691200,1.750691162109375,1.0344386100769043,-0.0979691743850708,-0.44915837049484253
1776442197721708300,1.775708251953125,0.7938113212585449,-0.0026546388398855925,-0.8489819169044495
1776442197746726400,1.800726318359375,0.8660567998886108,-0.013655357994139194,-0.8419058918952942
1776442197771743200,1.8257431640625,0.9524731636047363,-0.22515136003494263,-0.7673728466033936
1776442197796760300,1.85076025390625,0.9062971472740173,-0.22929710149765015,-0.7792574167251587
1776442197821777400,1.87577734375,0.6624591946601868,-0.15398477017879486,-0.7620097398757935
1776442197846794200,1.900794189453125,0.5941594839096069,-0.24687103927135468,-0.6459832787513733
1776442197871811000,1.92581103515625,0.6940927505493164,-0.2330540269613266,-0.4312613904476166
1776442197896828200,1.950828125,0.6837929487228394,-0.11850560456514359,-0.4548300802707672
1776442197921846300,1.97584619140625,0.9269707202911377,-0.26959338784217834,-0.27019020915031433
1776442197946863000,2.000863037109375,1.1739994287490845,-0.35970836877822876,0.06668075919151306
1776442197971880200,2.025880126953125,1.354997158050537,-0.36541205644607544,0.2476598620414734
1776442197996897300,2.050897216796875,1.6013227701187134,-0.3735213875770569,0.24814775586128235
1776442198021914400,2.075914306640625,1.4573991298675537,-0.4014566242694855,0.13623400032520294
1776442198046931200,2.10093115234375,1.3310718536376953,-0.4021253287792206,-0.1347024142742157
1776442198071948300,2.1259482421875,1.3269908428192139,-0.22956635057926178,-0.23999714851379395
1776442198096965400,2.15096533203125,1.1898555755615234,-0.2002851516008377,-0.0547037236392498
1776442198121983200,2.175983154296875,1.1124694347381592,-0.2810830771923065,0.14017760753631592
1776442198147000300,2.201000244140625,1.1423789262771606,-0.2146848738193512,0.31247854232788086
1776442198172017400,2.226017333984375,1.1276021003723145,-0.18088136613368988,0.358982652425766
1776442198197034200,2.2510341796875,0.9213237762451172,-0.1348201334476471,0.20354460179805756
1776442198222051000,2.276051025390625,0.6794328689575195,-0.2298254668712616,0.0952378362417221
1776442198247068200,2.301068115234375,0.38905322551727295,-0.15175411105155945,-0.073709636926651
1776442198272085200,2.326085205078125,0.3355599045753479,0.190211221575737,-0.36609330773353577
1776442198297103000,2.35110302734375,0.6943039298057556,0.317920446395874,-0.38201794028282166
1776442198322120200,2.3761201171875,0.4759660065174103,0.002650910522788763,-0.30522435903549194
1776442198347137300,2.40113720703125,0.04204438999295235,-0.013668674044311047,-0.541020393371582
1776442198372154000,2.426154052734375,0.024224912747740746,0.019398199394345284,-0.8473845720291138
1776442198397171200,2.451171142578125,0.1762722283601761,0.16064827144145966,-0.9248588681221008
1776442198422188300,2.476188232421875,0.30714210867881775,0.33743050694465637,-0.840419590473175
1776442198447205400,2.501205322265625,0.407022088766098,0.4398130476474762,-0.6887542009353638
1776442198472222200,2.52622216796875,0.4471990764141083,0.3130870759487152,-0.37823811173439026
1776442198497240300,2.551240234375,0.387744277715683,-0.03351029008626938,-0.16351808607578278
1776442198522257400,2.57625732421875,0.19067753851413727,-0.085289865732193,0.027884628623723984
1776442198547274200,2.601274169921875,0.16195827722549438,0.012562663294374943,0.2195989340543747
1776442198572291000,2.626291015625,0.2510402202606201,0.08232230693101883,0.1448884755373001
1776442198597308200,2.65130810546875,0.26803863048553467,0.14537610113620758,-0.06484823673963547
1776442198622325200,2.6763251953125,0.07510939985513687,0.11900255084037781,-0.12438533455133438
1776442198647342000,2.701342041015625,0.20333288609981537,0.04700159654021263,-0.1385861039161682
1776442198672360200,2.726360107421875,0.5515398383140564,0.07847137004137039,-0.017230918630957603
1776442198697377300,2.751377197265625,0.7211019992828369,0.17696785926818848,-0.008406800217926502
1776442198722394000,2.77639404296875,0.6487550735473633,0.1964443475008011,-0.14268817007541656
1776442198747411200,2.8014111328125,0.659531831741333,0.1994643658399582,-0.2475818395614624
1776442198772428300,2.82642822265625,0.7697118520736694,0.16649523377418518,-0.26225024461746216
1776442198797445400,2.8514453125,0.8766987919807434,0.08862227946519852,0.10016654431819916
1776442198822462200,2.876462158203125,0.9843900799751282,0.14555001258850098,0.5340844392776489
1776442198847480300,2.901480224609375,1.1046818494796753,0.3095722198486328,0.6330363154411316
1776442198872497400,2.926497314453125,1.3639459609985352,0.41959646344184875,0.3634738028049469
1776442198897514200,2.95151416015625,1.4218145608901978,0.4436565339565277,0.20569084584712982
1776442198922531300,2.97653125,1.1869288682937622,0.2908683121204376,0.29209044575691223
1776442198947549200,3.001549072265625,1.0270967483520508,0.13663721084594727,0.36534228920936584
1776442198972566000,3.02656591796875,1.0280534029006958,0.09663679450750351,0.4120408296585083
1776442198997583000,3.0515830078125,1.2249091863632202,0.25309669971466064,0.39966830611228943
1776442199022601200,3.076601318359375,1.372418761253357,0.38015294075012207,0.3547295928001404
1776442199047618000,3.1016181640625,1.3997780084609985,0.27480146288871765,0.2722027599811554
1776442199072635100,3.12663525390625,1.3680682182312012,0.17882727086544037,0.2996729910373688
1776442199097652200,3.15165234375,1.519378423690796,0.1832640916109085,0.27246373891830444
1776442199122669000,3.1766689453125,1.9140915870666504,0.3048568367958069,0.1976132094860077
1776442199147686000,3.201685791015625,2.137524366378784,0.3297336995601654,0.1794845461845398
1776442199172704000,3.2267041015625,2.0571913719177246,0.32898586988449097,0.17621497809886932
1776442199197721000,3.25172119140625,1.999829649925232,0.3215210437774658,0.09579843282699585
1776442199222738000,3.276738037109375,1.7049245834350586,0.22955569624900818,-0.10332479327917099
1776442199247755000,3.301755126953125,1.474905252456665,0.23575899004936218,-0.3781539499759674
1776442199272772000,3.326772216796875,1.2571874856948853,0.10297112166881561,-0.5928460359573364
1776442199297789200,3.3517890625,1.111201286315918,0.10758238285779953,-0.692635715007782
1776442199322806000,3.376805908203125,0.9399927854537964,0.08841055631637573,-0.5708858370780945
1776442199347824000,3.40182421875,0.5418030619621277,0.10524013638496399,-0.29869693517684937
1776442199372841200,3.42684130859375,0.41196703910827637,0.0015006912872195244,-0.22397078573703766
1776442199397858000,3.451858154296875,0.7727694511413574,-0.05323925241827965,-0.15651105344295502
1776442199422875100,3.476875244140625,1.055454969406128,0.015515043400228024,0.05654903128743172
1776442199447892200,3.501892333984375,1.191673755645752,0.013606090098619461,0.23420104384422302
1776442199472909000,3.526908935546875,1.2863057851791382,0.044073719531297684,0.10224461555480957
1776442199497927200,3.55192724609375,1.2465580701828003,-0.03668610751628876,-0.03229775279760361
1776442199522944000,3.576944091796875,1.3178415298461914,-0.128999263048172,0.03771382197737694
1776442199547961000,3.601961181640625,1.3392057418823242,-0.12907542288303375,0.18929509818553925
1776442199572978000,3.62697802734375,1.1836776733398438,-0.06690952181816101,0.0753091350197792
1776442199597995000,3.6519951171875,1.070617914199829,-0.024774855002760887,-0.06422452628612518
1776442199623012000,3.67701220703125,1.2182542085647583,0.10728543996810913,-0.01938541606068611
1776442199648029200,3.702029296875,1.163482904434204,0.14670822024345398,-0.013695838861167431
1776442199673047000,3.727047119140625,0.9932416081428528,0.11751730740070343,0.0034669029992073774
1776442199698064100,3.752064208984375,0.7047616243362427,-0.08378038555383682,0.11695351451635361
1776442199723081200,3.777081298828125,0.8262763619422913,-0.15910708904266357,0.23397201299667358
1776442199748098000,3.80209814453125,1.0601495504379272,-0.07851957529783249,0.11772210896015167
1776442199773115100,3.827115234375,1.0687187910079956,0.07424014061689377,-0.21859465539455414
1776442199798132200,3.85213232421875,0.814649224281311,-0.041491784155368805,-0.27043336629867554
1776442199823150000,3.877150146484375,0.7762145400047302,-0.20930342376232147,-0.06187428534030914
1776442199848167200,3.902167236328125,0.8068890571594238,-0.23765037953853607,-0.06684774160385132
1776442199873184300,3.927184326171875,0.793279230594635,-0.0026375947054475546,0.09429347515106201
1776442199898201000,3.952201171875,0.6692864894866943,0.052562277764081955,0.1441931277513504
1776442199923218000,3.977218017578125,0.3198049068450928,-0.1076846495270729,-0.07149149477481842
1776442199948234200,4.002234130859375,0.2246086150407791,-0.16471198201179504,-0.08627363294363022
1776442199973252400,4.02725244140625,0.22103971242904663,0.005987851414829493,0.03879240155220032
1776442199998269400,4.05226953125,0.2867915630340576,0.03820597380399704,-0.12843573093414307
1776442200023286300,4.077286376953125,0.3423458933830261,-0.027941619977355003,-0.3409099280834198
1776442200048303400,4.102303466796875,0.2567548155784607,-0.060077451169490814,-0.3549940586090088
1776442200073320200,4.1273203125,0.24747584760189056,-0.011227620765566826,-0.28816893696784973
1776442200098337300,4.152337158203125,0.24532480537891388,-0.03786029666662216,-0.3305605947971344
1776442200123355100,4.177355224609375,0.11311589926481247,-0.08242643624544144,-0.3767502009868622
1776442200148372200,4.202372314453125,0.17398777604103088,-0.004037352278828621,-0.6182869076728821
1776442200173389300,4.227389404296875,0.5219172239303589,0.011169031262397766,-0.7136491537094116
1776442200198406100,4.25240625,0.5182924270629883,-0.0036914076190441847,-0.3824363350868225
1776442200223423200,4.27742333984375,0.43843328952789307,-0.03117709420621395,0.034813106060028076
1776442200248440300,4.3024404296875,0.3381034731864929,-0.027355991303920746,0.16634051501750946
1776442200273458200,4.327458251953125,0.5816959142684937,-0.10885324329137802,-0.15568093955516815
1776442200298475300,4.352475341796875,0.9429411888122559,-0.38803428411483765,-0.42717236280441284
1776442200323492400,4.377492431640625,1.1579270362854004,-0.6055485010147095,-0.48162177205085754
1776442200348509200,4.40250927734375,1.09819757938385,-0.5141195058822632,-0.3214920163154602
1776442200373526300,4.4275263671875,1.3105602264404297,-0.5637025237083435,-0.20202793180942535
1776442200398543400,4.45254345703125,1.7096284627914429,-0.7886975407600403,-0.16508881747722626
1776442200423561200,4.477561279296875,2.2281765937805176,-0.7765066623687744,-0.269241064786911
1776442200448578300,4.502578369140625,2.3418970108032227,-0.751140296459198,-0.2839187979698181
1776442200473595100,4.52759521484375,2.3520917892456055,-0.8008918762207031,-0.16608324646949768
1776442200498612200,4.5526123046875,2.4120407104492188,-0.8948066830635071,-0.211300790309906
1776442200523629300,4.57762939453125,2.5143582820892334,-0.9784019589424133,-0.27246880531311035
1776442200548646100,4.602646240234375,2.6798415184020996,-0.6776418685913086,0.061052169650793076
1776442200573664300,4.627664306640625,3.06827449798584,-0.5913093686103821,0.03902942314743996
1776442200598681000,4.65268115234375,3.22297739982605,-0.48044437170028687,-0.4187178909778595
1776442200623698200,4.6776982421875,2.830625534057617,-0.40944904088974,-0.5894062519073486
1776442200648715300,4.70271533203125,2.5724709033966064,-0.34859952330589294,-0.39632096886634827
1776442200673732400,4.727732421875,2.6178348064422607,-0.20826664566993713,-0.21561990678310394
1776442200698750200,4.752750244140625,2.676588296890259,-0.18405106663703918,-0.10753019154071808
1776442200723767300,4.777767333984375,2.699982166290283,-0.1815546154975891,0.2022511065006256
1776442200748784400,4.802784423828125,2.421358346939087,-0.14387407898902893,0.6362672448158264
1776442200773801200,4.82780126953125,1.8478087186813354,0.027599936351180077,0.8411673903465271
1776442200798818300,4.852818359375,1.753038763999939,0.18573178350925446,0.697857677936554
1776442200823835100,4.877835205078125,1.923139214515686,-0.15194319188594818,0.45827195048332214
1776442200848853200,4.902853271484375,1.8558807373046875,-0.038841139525175095,0.3487901985645294
1776442200873870300,4.927870361328125,1.8830596208572388,0.044437240809202194,0.25748613476753235
1776442200898887200,4.95288720703125,2.1576709747314453,-0.012612464837729931,0.23694729804992676
1776442200923904300,4.977904296875,2.1829330921173096,0.04222282022237778,0.37685805559158325
1776442200948922400,5.00292236328125,1.9164119958877563,0.15761838853359222,0.5256629586219788
1776442200973939500,5.027939453125,1.8258315324783325,0.15331338346004486,0.5940366983413696
1776442200998957300,5.052957275390625,1.7225373983383179,0.0594625286757946,0.7294179797172546
1776442201023974400,5.077974365234375,1.536643147468567,0.2973794937133789,0.8371806740760803
1776442201048991500,5.102991455078125,1.6615504026412964,0.4043394923210144,0.7486774325370789
1776442201074008300,5.12800830078125,1.703275203704834,0.35627609491348267,0.5682027339935303
1776442201099025200,5.153025146484375,1.4440791606903076,0.2761823236942291,0.2784947454929352
1776442201124043300,5.178043212890625,1.2630517482757568,0.2978660464286804,0.0375945121049881
1776442201149060400,5.203060302734375,1.319813847541809,0.393279105424881,-0.22528532147407532
1776442201174077200,5.2280771484375,1.669869065284729,0.6964964866638184,-0.5293895602226257
1776442201199094300,5.25309423828125,1.9039087295532227,0.8177603483200073,-0.7154108285903931
1776442201224111400,5.278111328125,1.8504830598831177,0.7147879004478455,-0.5747048258781433
1776442201249129200,5.303129150390625,1.4431664943695068,0.4848838746547699,-0.1744232028722763
1776442201274146300,5.328146240234375,1.2628755569458008,0.29895979166030884,0.11951654404401779
1776442201299163400,5.353163330078125,1.2487258911132812,0.24040168523788452,0.17261704802513123
1776442201324180500,5.378180419921875,1.0979927778244019,0.11244318634271622,0.11119282990694046
1776442201349197300,5.403197265625,1.0663526058197021,0.07145847380161285,-0.034618962556123734
1776442201374214400,5.42821435546875,0.9594892859458923,0.07107790559530258,-0.1335143893957138
1776442201399232500,5.453232421875,0.6782543659210205,0.05549841374158859,-0.19151723384857178
1776442201424249300,5.478249267578125,0.7240445017814636,0.11302215605974197,-0.22124236822128296
1776442201449266400,5.503266357421875,0.9545056819915771,0.16025279462337494,-0.21612323820590973
1776442201474283300,5.528283203125,1.1916388273239136,0.07956673204898834,-0.1970749795436859
1776442201499300400,5.55330029296875,1.252126932144165,0.08001254498958588,-0.07947511970996857
1776442201524318200,5.578318115234375,1.1160058975219727,0.10190878808498383,0.06892367452383041
1776442201549335300,5.603335205078125,0.8810506463050842,0.00350445369258523,0.09867517650127411
1776442201574352400,5.628352294921875,0.8070517778396606,-0.19088180363178253,0.026458771899342537
1776442201599369200,5.653369140625,0.7670822739601135,-0.33457398414611816,0.012605540454387665
1776442201624386300,5.67838623046875,0.7158611416816711,-0.316914826631546,-0.021333517506718636
1776442201649404200,5.703404052734375,0.6042294502258301,-0.3096548020839691,0.010891263373196125
1776442201674421200,5.728421142578125,0.4842148721218109,-0.19546936452388763,0.09137119352817535
1776442201699438300,5.753438232421875,0.34390437602996826,-0.07827775925397873,0.1501772552728653
1776442201724455400,5.778455322265625,0.34306761622428894,-0.014816762879490852,0.07187925279140472
1776442201749472300,5.80347216796875,0.7571089863777161,0.05144428089261055,-0.002482066163793206
1776442201774490400,5.828490478515625,0.9505863189697266,0.16828115284442902,0.038533009588718414
1776442201799507500,5.853507568359375,0.8349624872207642,0.1427222639322281,0.08321899175643921
1776442201824524300,5.878524169921875,0.8068629503250122,0.11805340647697449,0.014624216593801975
1776442201849541400,5.903541259765625,1.1063392162322998,-0.04241669923067093,-0.17469032108783722
1776442201874558500,5.928558349609375,1.1361883878707886,0.014415957033634186,-0.22047458589076996
1776442201899576300,5.953576416015625,1.3353638648986816,0.03249935433268547,-0.16823641955852509
1776442201924593400,5.978593505859375,1.7100263833999634,0.10307738184928894,-0.12557443976402283
1776442201949610200,6.0036103515625,2.0852060317993164,0.4231400787830353,-0.060257479548454285
1776442201974627000,6.028626953125,2.2668159008026123,0.651081383228302,-0.1181921511888504
1776442201999644200,6.05364404296875,2.326313018798828,0.5234890580177307,-0.26637470722198486
1776442202024662000,6.078662109375,1.9971705675125122,0.3632359802722931,-0.40922293066978455
1776442202049679000,6.10367919921875,1.5884504318237305,0.16287760436534882,-0.5547367334365845
1776442202074696000,6.128696044921875,1.664399266242981,0.3783254623413086,-0.4336259961128235
1776442202099712800,6.153712646484375,1.9796850681304932,0.6834073662757874,-0.10541830211877823
1776442202124731100,6.178731201171875,1.9517085552215576,0.8690869212150574,0.18863223493099213
1776442202149748000,6.203748046875,1.8085955381393433,0.650482177734375,0.5567495226860046
1776442202174764800,6.228764892578125,1.4859530925750732,0.3874737024307251,0.8623741865158081
1776442202199782000,6.253781982421875,1.1446900367736816,0.09103989601135254,1.0125354528427124
1776442202224799000,6.278799072265625,1.0977048873901367,-0.1664385050535202,1.270789623260498
1776442202249816800,6.30381689453125,1.0518666505813599,0.03912103548645973,1.7428048849105835
1776442202274834000,6.328833984375,0.7225997447967529,-0.0032623722217977047,1.9802207946777344
1776442202299851000,6.35385107421875,0.36912158131599426,-0.2848072350025177,1.9480881690979004
1776442202324867800,6.378867919921875,0.13455674052238464,-0.12270248681306839,1.384366512298584
1776442202349886000,6.403885986328125,-0.021508753299713135,0.150517076253891,0.26051440834999084
1776442202374903000,6.428903076171875,0.3109259307384491,0.6541770100593567,-0.33083465695381165
1776442202399919900,6.453919921875,0.1706620156764984,0.04537440463900566,-0.6061389446258545
1776442202424937000,6.47893701171875,0.2710975408554077,0.30993548035621643,-0.5317355394363403
1776442202449954000,6.5039541015625,0.29234665632247925,0.35449469089508057,-0.3126838803291321
1776442202474972000,6.528971923828125,-0.04995797201991081,0.23126544058322906,-0.21032235026359558
1776442202499989000,6.553989013671875,-0.19321925938129425,-0.2323480248451233,-0.11590449512004852
1776442202525006000,6.579006103515625,-0.3091767430305481,-0.46279001235961914,-0.24419721961021423
1776442202550023200,6.604023193359375,-0.2613418400287628,0.03136777505278587,-0.5577051043510437
1776442202575041000,6.629041015625,-0.2458299994468689,0.0005531385540962219,-0.5115525126457214
1776442202600058000,6.65405810546875,-0.08230046182870865,-0.20283646881580353,-0.3225948214530945
1776442202625075000,6.679074951171875,0.24677303433418274,0.044680651277303696,0.012782907113432884
1776442202650091800,6.704091796875,0.22095608711242676,0.14586399495601654,0.23835770785808563
1776442202675108900,6.72910888671875,0.2874980866909027,0.404109925031662,0.3972879648208618
1776442202700127000,6.754126953125,0.2011227160692215,0.4143385887145996,0.3150503635406494
1776442202725143800,6.779143798828125,0.22549597918987274,0.1620650738477707,0.018883144482970238
1776442202750161000,6.804160888671875,0.017740914598107338,0.24487899243831635,-0.1809130609035492
1776442202775178000,6.829177978515625,0.06320133805274963,0.09085746854543686,0.011385812424123287
1776442202800195800,6.85419580078125,0.16413700580596924,0.13108611106872559,0.010873153805732727
1776442202825213000,6.879212890625,0.14954954385757446,0.0707055926322937,-0.19367839395999908
1776442202850230000,6.90422998046875,0.033786460757255554,-0.3414396047592163,-0.2089441567659378
1776442202875247000,6.9292470703125,0.052016597241163254,-0.48207369446754456,-0.10126909613609314
1776442202900265000,6.954264892578125,0.18170322477817535,0.10577596724033356,-0.30713942646980286
1776442202925282000,6.979281982421875,0.3057551383972168,0.0502498559653759,-0.4009186625480652
1776442202950299100,7.004299072265625,0.27648672461509705,-0.491079181432724,-0.6096566915512085
1776442202975315500,7.0293154296875,0.43874886631965637,-0.20291689038276672,-0.7804769277572632
1776442203000333300,7.054333251953125,0.5376676917076111,0.43392959237098694,-0.8343116641044617
1776442203025350400,7.079350341796875,0.38449573516845703,0.27557113766670227,-0.31127744913101196
1776442203050367200,7.1043671875,0.34500932693481445,-0.19612982869148254,-0.5644431114196777
1776442203075384300,7.12938427734375,0.5977417230606079,-0.3704180121421814,-0.48112934827804565
1776442203100401400,7.1544013671875,0.42320531606674194,0.23391422629356384,0.11985396593809128
1776442203125419300,7.179419189453125,0.4941900074481964,0.23074212670326233,0.7460348010063171
1776442203150436400,7.204436279296875,0.6188613772392273,-0.1207735538482666,0.2863047420978546
1776442203175453400,7.229453369140625,0.7631876468658447,0.14274649322032928,0.3971652090549469
1776442203200470500,7.254470458984375,0.5427786111831665,0.9746474623680115,0.6843982934951782
1776442203225488400,7.27948828125,0.6165186166763306,0.7342220544815063,0.6184014678001404
1776442203250505500,7.30450537109375,1.0294345617294312,0.249668151140213,0.6833727359771729
1776442203275522300,7.329522216796875,1.132184624671936,0.46409761905670166,0.4511147141456604
1776442203300539100,7.3545390625,0.7995472550392151,1.8724520206451416,0.3648573160171509
1776442203325557200,7.37955712890625,0.9959977269172668,2.1451079845428467,0.8264630436897278
1776442203350574300,7.40457421875,1.2082279920578003,2.057725429534912,1.2226731777191162
1776442203375591200,7.429591064453125,1.079902172088623,2.1632134914398193,1.5257132053375244
1776442203400608300,7.454608154296875,0.7016473412513733,3.130704402923584,1.2830049991607666
1776442203425626400,7.47962646484375,1.0653421878814697,2.806525707244873,0.840419352054596
1776442203450643200,7.504643310546875,1.1718345880508423,0.2594994902610779,0.793051540851593
1776442203475660300,7.529660400390625,0.6963814496994019,-0.6384316086769104,0.9935697317123413
1776442203500677400,7.554677490234375,0.28240880370140076,-0.7242855429649353,0.06722963601350784
1776442203525695200,7.5796953125,0.4968060255050659,-0.9018701910972595,-1.2761955261230469
1776442203550712300,7.60471240234375,0.12052960693836212,-0.7612084150314331,-1.0567705631256104
1776442203575729400,7.6297294921875,-0.0929829403758049,-0.9644877314567566,-0.5355952382087708
1776442203600746500,7.65474658203125,0.11616628617048264,-1.547248363494873,-0.3780061602592468
1776442203625764400,7.679764404296875,0.3086622357368469,-1.5087318420410156,-0.6581291556358337
1776442203650781400,7.704781494140625,0.4183272123336792,-1.3272994756698608,-0.5970761775970459
1776442203675798500,7.729798583984375,0.31067344546318054,-0.879422664642334,-0.34004172682762146
1776442203700816400,7.75481640625,0.17925524711608887,-0.8502975106239319,-0.19112388789653778
1776442203725833500,7.77983349609375,0.21892328560352325,-1.0695548057556152,-0.29368114471435547
1776442203750850600,7.8048505859375,0.17556330561637878,-0.6055567264556885,-0.4552394151687622
1776442203775867100,7.8298671875,-0.11559716612100601,-0.11155981570482254,-0.5772044658660889
1776442203800885500,7.854885498046875,-0.06495476514101028,-0.7097273468971252,-0.3645137846469879
1776442203825902300,7.87990234375,0.025958096608519554,-1.2780264616012573,-0.19968008995056152
1776442203850919200,7.904919189453125,0.0648820623755455,-0.7647834420204163,-0.29697975516319275
1776442203875936300,7.929936279296875,0.05559588596224785,-0.04416719451546669,-0.13534797728061676
1776442203900954400,7.954954345703125,0.06024975702166557,-0.08651811629533768,-0.04422418773174286
1776442203925971200,7.97997119140625,0.0953102707862854,-0.16108156740665436,-0.2010345757007599
1776442203950988300,8.00498828125,0.21232104301452637,-0.08219633251428604,-0.435676634311676
1776442203976006000,8.030005859375,0.26628413796424866,-0.4026390612125397,-0.45121726393699646
1776442204001023700,8.055023681640625,0.3261227011680603,-0.4962920546531677,-0.5821340084075928
1776442204026040800,8.080040771484375,0.35232049226760864,-0.6514994502067566,-0.6251813173294067
1776442204051058000,8.105057861328126,0.4898008704185486,-0.6314932703971863,-0.5227169990539551
1776442204076074800,8.13007470703125,0.5190359950065613,-0.4159780442714691,-0.4428999423980713
1776442204101092900,8.1550927734375,0.6822872161865234,-0.22110389173030853,-0.2263239473104477
1776442204126110000,8.18010986328125,0.8773927688598633,0.09823521971702576,-0.15873637795448303
1776442204151126800,8.205126708984375,0.8260606527328491,-0.049664225429296494,-0.2503128945827484
1776442204176145000,8.230144775390626,0.8213814496994019,-0.12514859437942505,-0.6319995522499084
1776442204201162000,8.255161865234374,0.8585695624351501,-0.021988390013575554,-0.6670941710472107
1776442204226178800,8.2801787109375,0.8554246425628662,-0.07896192371845245,-0.6363887190818787
1776442204251196000,8.30519580078125,0.6723155379295349,-0.17270679771900177,-0.5148904919624329
1776442204276213800,8.3302138671875,0.4792134761810303,-0.13002191483974457,-0.45326095819473267
1776442204301230800,8.35523095703125,0.16940580308437347,0.08646991103887558,-0.3333553373813629
1776442204326248000,8.380248046875,0.2557305693626404,-0.13962315022945404,-0.39791834354400635
1776442204351265000,8.40526513671875,0.2524588704109192,-0.05182431638240814,-0.26459863781929016
1776442204376283000,8.430282958984375,0.2584499418735504,0.26449984312057495,-0.16436684131622314
1776442204401300000,8.455300048828125,0.46797412633895874,0.4428008496761322,-0.24844017624855042
1776442204426317000,8.480317138671875,0.11482138931751251,0.11597773432731628,0.08669228106737137
1776442204451335000,8.5053349609375,-0.04441353678703308,-0.41256386041641235,-0.4436440169811249
1776442204476352000,8.53035205078125,0.2938486635684967,-0.6774168014526367,-0.6078420281410217
1776442204501368800,8.555368896484374,0.5292345285415649,-0.4242956340312958,-0.3994973301887512
1776442204526385700,8.5803857421875,0.8717455863952637,-0.688747227191925,-0.08498253673315048
1776442204551403800,8.60540380859375,1.3796396255493164,-0.8842208981513977,-0.1523922085762024
1776442204576420900,8.6304208984375,1.494653344154358,-0.9699552059173584,-0.34429800510406494
1776442204601437700,8.655437744140626,1.3678879737854004,-1.5976483821868896,-0.3436114192008972
1776442204626455800,8.680455810546874,1.1659228801727295,0.27251195907592773,0.144950270652771
1776442204651473000,8.705472900390625,1.4848662614822388,0.6741001009941101,-0.41648244857788086
1776442204676489700,8.73048974609375,1.4771928787231445,0.7167006134986877,-0.7730419039726257
1776442204701506800,8.7555068359375,1.2191261053085327,0.5655187964439392,-1.108945608139038
1776442204726525000,8.78052490234375,0.8836280703544617,-0.11952586472034454,-1.01011323928833
1776442204751541800,8.805541748046876,0.8481446504592896,-0.23779524862766266,-0.5820242762565613
1776442204776558800,8.830558837890624,0.9754272103309631,-0.07460472732782364,-0.2627703845500946
1776442204801577000,8.855576904296875,1.0149767398834229,-0.03025936894118786,-0.09031205624341965
1776442204826593800,8.88059375,0.8133224844932556,0.04627428948879242,-0.12533502280712128
1776442204851611000,8.90561083984375,0.6837753653526306,-0.07948870211839676,-0.26763197779655457
1776442204876629000,8.93062890625,0.70660001039505,-0.2951434850692749,-0.15063771605491638
1776442204901645800,8.955645751953124,0.8414574265480042,-0.34936198592185974,-0.12196984887123108
1776442204926663000,8.980662841796875,0.8500482439994812,-0.17748689651489258,-0.3815755844116211
1776442204951680000,9.005679931640625,0.9267401099205017,-0.1297324299812317,-0.5894587635993958
1776442204976697000,9.030697021484375,1.0953993797302246,-0.1946595013141632,-0.570609450340271
1776442205001714200,9.055714111328125,1.304415225982666,-0.18194396793842316,-0.39038798213005066
1776442205026731300,9.080731201171876,1.3466734886169434,0.11080241203308105,-0.25620409846305847
1776442205051749000,9.1057490234375,1.332725167274475,0.20980621874332428,-0.133092001080513
1776442205076766200,9.13076611328125,1.450260043144226,0.12977184355258942,-0.06586983054876328
1776442205101783300,9.155783203125,1.5736299753189087,0.13513705134391785,-0.06043538078665733
1776442205126801200,9.18080126953125,1.5851523876190186,0.1433108150959015,0.0407964326441288
1776442205151818200,9.205818359375,1.5470675230026245,0.1274580955505371,0.07285875827074051
1776442205176835300,9.23083544921875,1.5090333223342896,0.010388725437223911,0.006119145080447197
1776442205201852400,9.255852294921874,1.4137321710586548,0.019420569762587547,0.05804439261555672
1776442205226870300,9.280870361328125,1.3250653743743896,0.0856509879231453,0.050938546657562256
1776442205251887400,9.305887451171875,1.5675475597381592,0.18663538992404938,-0.05878208950161934
1776442205276904400,9.330904541015625,1.8101657629013062,0.34523168206214905,-0.12307772040367126
1776442205301922300,9.35592236328125,1.5383049249649048,0.47521767020225525,-0.297526478767395
1776442205326939400,9.380939453125,1.1576316356658936,0.3298516869544983,-0.4807210862636566
1776442205351956500,9.40595654296875,0.8181672692298889,0.032873526215553284,-0.5040661096572876
1776442205376974300,9.430974365234375,0.8441557288169861,-0.006192914675921202,-0.3086680769920349
1776442205401991400,9.455991455078125,1.2430256605148315,-0.001787779969163239,-0.07250695675611496
1776442205427008300,9.48100830078125,1.38399076461792,-0.12637285888195038,0.10976245254278183
1776442205452026400,9.5060263671875,1.2790981531143188,-0.08188208192586899,0.07115859538316727
1776442205477043200,9.531043212890625,1.2997558116912842,0.1376715749502182,0.042938411235809326
1776442205502060300,9.556060302734375,1.3841992616653442,0.24266403913497925,0.03177763521671295
1776442205527077000,9.5810771484375,1.3730385303497314,0.2300821989774704,0.03123328648507595
1776442205552095200,9.60609521484375,1.3333715200424194,0.18389393389225006,0.016393886879086494
1776442205577112300,9.6311123046875,1.4235730171203613,0.403476357460022,0.054064568132162094
1776442205602129200,9.656129150390624,1.4946086406707764,0.46216338872909546,0.009412942454218864
1776442205627147300,9.681147216796875,1.152733325958252,0.09319093078374863,-0.05284217745065689
1776442205652164000,9.7061640625,1.0843864679336548,-0.07233971357345581,-0.1013343408703804
1776442205677181200,9.73118115234375,1.3592922687530518,-0.020921792834997177,0.012896889820694923
1776442205702199300,9.75619921875,1.6503558158874512,-0.039565518498420715,0.1333727091550827
1776442205727216000,9.781216064453124,1.613806128501892,-0.0024117587599903345,0.10688277333974838
1776442205752233200,9.806233154296875,1.4174392223358154,-0.15908418595790863,0.022372417151927948
1776442205777251300,9.831251220703125,1.2182923555374146,-0.1166139617562294,-0.10254687815904617
1776442205802268200,9.85626806640625,1.1558356285095215,0.0024591628462076187,-0.16529442369937897
1776442205827285200,9.88128515625,1.3282513618469238,0.02792857028543949,0.04460342228412628
1776442205852303400,9.906303466796874,1.5926387310028076,-0.037400368601083755,0.32487449049949646
1776442205877320200,9.9313203125,1.650414228439331,-0.20917558670043945,0.23521678149700165
1776442205902337300,9.956337158203125,1.4349581003189087,-0.13663773238658905,0.07049467414617538
1776442205927355400,9.98135546875,1.176071047782898,-0.022910108789801598,-0.19270606338977814
1776442205952372200,10.006372314453126,0.8611858487129211,-0.1479969173669815,-0.2159663885831833
1776442205977390300,10.031390380859374,1.070701241493225,-0.6712518930435181,-0.07755418121814728
1776442206002408200,10.056408203125,1.4488967657089233,-0.32612085342407227,0.0813441276550293
1776442206027425300,10.08142529296875,1.5172667503356934,0.2423418015241623,-0.01501223910599947
1776442206052442400,10.1064423828125,1.7293657064437866,0.47422564029693604,-0.08004236966371536
1776442206077460200,10.131460205078126,2.1718575954437256,0.3953563868999481,0.10984447598457336
1776442206102477300,10.156477294921874,2.7825605869293213,0.1950824111700058,0.12963628768920898
1776442206127494400,10.181494384765625,2.7529261112213135,0.3333369493484497,-0.48622795939445496
1776442206152512300,10.20651220703125,2.1266815662384033,0.3510128855705261,-0.7091034054756165
1776442206177529300,10.231529296875,1.465360403060913,-0.22238832712173462,-0.5636526942253113
1776442206202546400,10.25654638671875,0.8393926620483398,-0.7556596994400024,-0.30762359499931335
1776442206227564300,10.281564208984374,0.6224297285079956,-0.6890830993652344,-0.23269343376159668
1776442206252581400,10.306581298828124,0.33176249265670776,-0.48110857605934143,-0.21629075706005096
1776442206277598500,10.331598388671875,0.3716965913772583,-0.27738019824028015,0.11816898733377457
1776442206302616300,10.3566162109375,0.5000010132789612,-0.39158135652542114,0.21707531809806824
1776442206327633400,10.38163330078125,0.46513599157333374,-0.506277322769165,0.20770525932312012
1776442206352650500,10.406650390625,0.39386048913002014,-0.47632208466529846,0.29376983642578125
1776442206377668400,10.43166845703125,0.5274965763092041,-0.4431324303150177,0.6200366020202637
1776442206402685400,10.456685546875,0.8069628477096558,-0.4020819365978241,0.7671030163764954
1776442206427702500,10.48170263671875,0.849311113357544,-0.34339597821235657,0.6179977059364319
1776442206452720400,10.506720458984375,0.7662093043327332,-0.33311110734939575,0.42575371265411377
1776442206477737500,10.531737548828126,0.7741971611976624,-0.3639760911464691,0.2563689351081848
1776442206502754600,10.556754638671874,1.0318447351455688,-0.45388492941856384,0.08283096551895142
1776442206527772400,10.5817724609375,1.2307140827178955,-0.40415146946907043,-0.10036122798919678
1776442206552789500,10.60678955078125,1.0970960855484009,-0.15593074262142181,-0.2011120766401291
1776442206577806300,10.631806396484375,0.8808618187904358,-0.035043470561504364,-0.17335288226604462
1776442206602824400,10.656824462890626,0.9067568182945251,-0.05884760245680809,-0.14347034692764282
1776442206627841300,10.68184130859375,1.1130268573760986,0.024955417960882187,-0.07961360365152359
1776442206652858400,10.7068583984375,1.3447288274765015,0.06048225238919258,0.26379916071891785
1776442206677876200,10.731876220703125,1.489954948425293,-0.04436879605054855,0.43167391419410706
1776442206702893300,10.756893310546875,1.4165966510772705,-0.28660860657691956,0.5007904171943665
1776442206727910400,10.781910400390625,1.3841418027877808,-0.4943932294845581,0.554110586643219
1776442206752928300,10.80692822265625,1.5377088785171509,-0.5550901293754578,0.4666111171245575
1776442206777945300,10.8319453125,1.4891622066497803,-0.3912055790424347,0.31093069911003113
1776442206802962200,10.856962158203125,1.351860523223877,-0.2835286557674408,0.2891702950000763
1776442206827980300,10.881980224609375,1.247776746749878,-0.28888267278671265,0.16532717645168304
1776442206852997400,10.906997314453125,1.2310731410980225,-0.12053467333316803,0.1494792401790619
1776442206878015200,10.93201513671875,1.4028184413909912,0.13610084354877472,0.5707990527153015
1776442206903032300,10.9570322265625,1.6725314855575562,-0.21259455382823944,0.8415541052818298
1776442206928049400,10.98204931640625,1.911485195159912,-0.13554823398590088,1.0382357835769653
1776442206953067300,11.0070673828125,2.15657901763916,0.11079202592372894,1.060029149055481
1776442206978084000,11.032083984375,2.1820836067199707,-0.08955758064985275,0.8028437495231628
1776442207003101200,11.05710107421875,2.1622190475463867,-0.09641814976930618,0.21058467030525208
1776442207028119000,11.082119140625,1.454383134841919,0.08135344833135605,-0.6135635375976562
1776442207053136100,11.10713623046875,0.9401525855064392,0.3136165142059326,-1.2054712772369385
1776442207078153200,11.1321533203125,1.1809444427490234,0.22106420993804932,-1.1923909187316895
1776442207103171000,11.157171142578125,1.9586193561553955,-0.0015603461069986224,-1.041354775428772
1776442207128188200,11.182188232421876,2.280362367630005,0.08806833624839783,-1.0630723237991333
1776442207153205200,11.207205322265626,2.0576725006103516,0.023388946428894997,-0.9532153606414795
1776442207178223000,11.23222314453125,1.8516067266464233,-0.1938600093126297,-0.31710150837898254
1776442207203240200,11.257240234375,1.976279616355896,-0.13562732934951782,0.36549514532089233
1776442207228258000,11.282258056640625,2.269038200378418,0.16152578592300415,0.5143932700157166
1776442207253275100,11.307275146484375,2.488537311553955,0.12348758429288864,0.37223294377326965
1776442207278292200,11.332292236328126,2.3018689155578613,0.05004265904426575,0.38135427236557007
1776442207303310000,11.35731005859375,1.7648332118988037,0.19075104594230652,0.4107145667076111
1776442207328327200,11.3823271484375,1.526543140411377,0.3367721736431122,0.23955772817134857
1776442207353344300,11.40734423828125,1.5309966802597046,0.39096829295158386,-0.031991489231586456
1776442207378362000,11.432362060546875,1.6251591444015503,0.2750001549720764,-0.23923441767692566
1776442207403379200,11.457379150390626,1.9473776817321777,0.1713232845067978,-0.32081982493400574
1776442207428396300,11.482396240234374,1.7030867338180542,0.40047311782836914,-0.22094835340976715
1776442207453414100,11.5074140625,1.4077807664871216,0.39196085929870605,-0.19533860683441162
1776442207478431200,11.53243115234375,1.318676233291626,0.0805443748831749,-0.05179235711693764
1776442207503449000,11.557448974609375,1.1804208755493164,0.11899030208587646,0.5003307461738586
1776442207528466200,11.582466064453126,1.0038799047470093,0.06120876222848892,0.5274164080619812
1776442207553483000,11.60748291015625,0.9166054725646973,0.1938147395849228,0.5077995657920837
1776442207578501000,11.632501220703125,1.1359580755233765,0.40369606018066406,0.42320024967193604
1776442207603518200,11.657518310546875,1.1257562637329102,0.25931838154792786,0.13669472932815552
1776442207628535000,11.68253515625,0.6731719970703125,-0.03978149965405464,-0.15062066912651062
1776442207653553200,11.70755322265625,0.3422289788722992,-0.22353775799274445,-0.2801983654499054
1776442207678570000,11.732570068359376,0.5461999773979187,-0.07157005369663239,-0.27245548367500305
1776442207703587000,11.757587158203124,0.8428518772125244,-0.10775522887706757,-0.2813006341457367
1776442207728605000,11.78260498046875,0.7181506752967834,-0.39809730648994446,-0.3048262298107147
1776442207753622000,11.8076220703125,0.46700525283813477,-0.6144990921020508,0.04670332372188568
1776442207778640100,11.83264013671875,0.5530685186386108,-0.48061028122901917,0.40396663546562195
1776442207803657000,11.857656982421876,0.4222463071346283,-0.1824483722448349,0.39768266677856445
1776442207828674000,11.882674072265624,0.2547433376312256,0.17878305912017822,0.29622021317481995
1776442207853692200,11.907692138671875,0.4067395329475403,0.1902993768453598,0.4091065526008606
1776442207878709000,11.932708984375,0.7425583004951477,-0.08654234558343887,0.7853065729141235
1776442207903726000,11.95772607421875,0.8341859579086304,0.057684335857629776,0.47402989864349365
1776442207928744200,11.982744140625,0.9367778301239014,0.07202386111021042,-0.054363373667001724
1776442207953761000,12.007760986328124,0.9739204049110413,0.0797097459435463,-0.14137336611747742
1776442207978779400,12.032779296875,0.9803183674812317,0.1006576344370842,-0.11879695951938629
1776442208003796200,12.057796142578125,1.1095725297927856,0.15785114467144012,-0.1309494972229004
1776442208028813000,12.08281298828125,1.347898006439209,0.016352342441678047,-0.30862441658973694
1776442208053831200,12.1078310546875,1.4544425010681152,0.1396186202764511,-0.4941796362400055
1776442208078848000,12.132847900390624,1.5094208717346191,0.0340072363615036,-0.4711747169494629
1776442208103865000,12.157864990234375,1.3042069673538208,-0.019286878407001495,-0.24714401364326477
1776442208128883200,12.18288330078125,1.2944589853286743,0.11016298830509186,0.05903136357665062
1776442208153900000,12.207900146484375,1.0884512662887573,0.2193792313337326,-0.05112896487116814
1776442208178918100,12.232918212890626,0.8533228635787964,-0.03646266832947731,-0.3368256986141205
1776442208203935200,12.257935302734374,0.6987063884735107,-0.2609330713748932,-0.09246761351823807
1776442208228952000,12.2829521484375,0.4795849621295929,-0.034633345901966095,0.20594650506973267
1776442208253970200,12.30797021484375,0.6073546409606934,0.14822515845298767,0.2656726837158203
1776442208278987300,12.3329873046875,0.8551391363143921,0.004117779433727264,0.10833100229501724
1776442208304004000,12.358004150390625,0.9170107841491699,-0.21478340029716492,-0.08145304769277573
1776442208329022200,12.383022216796874,0.7253966331481934,-0.0601608082652092,-0.2038540542125702
1776442208354039300,12.408039306640624,0.5713625550270081,-0.008559399284422398,-0.14675721526145935
1776442208379057200,12.43305712890625,0.4819096624851227,0.046662043780088425,0.11734925955533981
1776442208404074200,12.45807421875,0.4221019744873047,0.07234849780797958,0.5135511755943298
1776442208429091300,12.48309130859375,0.5256070494651794,-0.13685399293899536,1.108741044998169
1776442208454109200,12.508109130859374,0.6771659851074219,0.011216169223189354,1.3394163846969604
1776442208479126300,12.533126220703124,0.6632277965545654,0.009440107271075249,0.40107792615890503
1776442208504143400,12.558143310546875,0.9005537629127502,0.313475638628006,0.2724674642086029
1776442208529161200,12.5831611328125,1.1765238046646118,0.1406434029340744,0.19156649708747864
1776442208554178300,12.60817822265625,1.0769498348236084,0.13698208332061768,0.17573747038841248
1776442208579196200,12.633196044921876,1.0018402338027954,-0.05374445393681526,0.12514646351337433
1776442208604213200,12.658213134765624,0.950190544128418,0.23508840799331665,-0.10065736621618271
1776442208629230300,12.683230224609375,0.7443479299545288,0.19985239207744598,-0.1622546911239624
1776442208654248200,12.708248291015625,0.5623648166656494,0.2202996164560318,0.03658730536699295
1776442208679265300,12.733265380859375,0.10145338624715805,0.08539719134569168,0.058638546615839005
1776442208704282400,12.758282470703126,0.05224482715129852,-0.22292602062225342,-0.041963428258895874
1776442208729300200,12.78330029296875,0.014398912899196148,-0.1315620243549347,-0.3561336100101471
1776442208754317300,12.8083173828125,0.3011428117752075,-0.02455887198448181,-0.34747540950775146
1776442208779335200,12.833335205078125,0.4879246652126312,0.0548054575920105,0.11949949711561203
1776442208804352300,12.858352294921875,0.7484201788902283,0.17371533811092377,0.4307612478733063
1776442208829369300,12.883369384765626,0.9126724600791931,-0.04426919296383858,0.5074642896652222
1776442208854387200,12.90838720703125,0.6939534544944763,-0.19245998561382294,0.6887786984443665
1776442208879404300,12.933404296875,0.5865204930305481,-0.12186598777770996,0.6854007244110107
1776442208904421400,12.95842138671875,0.5631853342056274,0.23490118980407715,0.35422733426094055
1776442208929439200,12.983439208984375,0.2271876186132431,0.1923699826002121,0.050219226628541946
1776442208954456300,13.008456298828126,0.25839611887931824,0.10563960671424866,-0.1715635061264038
1776442208979474200,13.03347412109375,0.4132312536239624,0.11537053436040878,-0.05187464877963066
1776442209004490800,13.05849072265625,0.5994493365287781,0.20529723167419434,0.10016654431819916
1776442209029507800,13.0835078125,0.7342244386672974,0.1898767203092575,-0.11379207670688629
1776442209054526000,13.10852587890625,0.691662073135376,0.09227373450994492,-0.16568776965141296
1776442209079542800,13.133542724609375,0.6324147582054138,0.017834391444921494,-0.132754847407341
1776442209104561000,13.158560791015624,0.6147065758705139,0.0014088122406974435,-0.1377762407064438
1776442209129578000,13.183577880859374,0.7877201437950134,-0.04198500141501427,-0.02147706225514412
1776442209154594800,13.2085947265625,1.0421122312545776,0.275254487991333,-0.14303384721279144
1776442209179613000,13.233613037109375,1.1052308082580566,0.2986871004104614,-0.18785113096237183
1776442209204630000,13.258630126953125,1.3008407354354858,0.3195132911205292,-0.023695209994912148
1776442209229646800,13.283646728515626,1.5500023365020752,0.5043265223503113,-0.1720532476902008
1776442209254665000,13.3086650390625,1.793745994567871,0.4778507351875305,0.08004077523946762
1776442209279682000,13.33368212890625,1.7748898267745972,0.43918776512145996,0.14453640580177307
1776442209304700000,13.358699951171875,1.6096235513687134,0.14028413593769073,0.08247517049312592
1776442209329717000,13.383717041015625,1.5644851922988892,0.3131677806377411,-0.06524638086557388
1776442209354733800,13.40873388671875,1.6308090686798096,0.574271559715271,-0.03337793052196503
1776442209379752000,13.433751953125,1.7868719100952148,0.5279716849327087,0.16673651337623596
1776442209404769000,13.45876904296875,1.565192699432373,0.3275371193885803,0.030978688970208168
1776442209429787000,13.483786865234375,1.131502628326416,0.46316099166870117,-0.19342033565044403
1776442209454804000,13.508803955078125,1.0268528461456299,0.34697607159614563,-0.3873589038848877
1776442209479821000,13.533821044921876,0.9545515179634094,0.184235081076622,-0.7350862622261047
1776442209504839000,13.5588388671875,0.693675696849823,-0.1995037943124771,-0.6117904186248779
1776442209529856000,13.58385595703125,0.18623831868171692,-0.2591862976551056,0.05158250033855438
1776442209554873900,13.608873779296875,-0.02580682933330536,-0.5597871541976929,0.3658008873462677
1776442209579891000,13.633890869140625,0.03386981785297394,-0.5051529407501221,0.3507140874862671
1776442209604908000,13.658907958984376,0.13376125693321228,-0.24859143793582916,0.16645929217338562
1776442209629926000,13.68392578125,0.2867409586906433,-0.03626932576298714,0.06430335342884064
1776442209654943000,13.70894287109375,0.6818296909332275,0.03762034699320793,0.0441695898771286
1776442209679960000,13.7339599609375,0.9677035212516785,0.007381217088550329,0.04689507186412811
1776442209704978000,13.75897802734375,1.5321348905563354,0.44124290347099304,0.2505171597003937
1776442209729995000,13.7839951171875,1.9041540622711182,0.8965241312980652,0.6529082655906677
1776442209755012900,13.809012939453124,2.1643776893615723,0.6775185465812683,0.9647921323776245
1776442209780030000,13.834030029296875,2.3585033416748047,0.7420642375946045,0.8419229388237
1776442209805047000,13.859047119140625,2.5453782081604004,0.8433341383934021,0.3923826813697815
1776442209830065000,13.88406494140625,2.509561061859131,0.9311231374740601,-0.153133362531662
1776442209855082000,13.90908203125,2.415808916091919,0.7159551382064819,-0.5977792739868164
1776442209880100000,13.93410009765625,2.84843111038208,0.6778978109359741,-0.8002700209617615
1776442209905117000,13.959116943359374,3.5088160037994385,0.7770760655403137,-0.9279366731643677
1776442209930134000,13.984134033203125,3.8987183570861816,0.8505547642707825,-1.076287031173706
1776442209955152100,14.009152099609375,4.150889873504639,0.3290055990219116,-0.965345561504364
1776442209980168400,14.03416845703125,3.5755128860473633,-0.08688589930534363,-0.25482377409935
1776442210005186300,14.059186279296876,2.7399160861968994,0.020661868155002594,0.5608199238777161
1776442210030203400,14.084203369140624,2.013777017593384,0.0430193729698658,0.5700315237045288
1776442210055220500,14.109220458984375,2.0854601860046387,0.019460516050457954,0.42157894372940063
1776442210080238300,14.13423828125,2.095411539077759,-0.09693346917629242,0.44513753056526184
1776442210105255400,14.15925537109375,1.6902151107788086,-0.08193561434745789,0.184588223695755
1776442210130272500,14.1842724609375,1.6287353038787842,-0.0685577541589737,-0.10793764889240265
1776442210155290400,14.209290283203124,1.9689937829971313,-0.06612362712621689,-0.22239339351654053
1776442210180307500,14.234307373046875,1.837662935256958,-0.13403023779392242,-0.2838359773159027
1776442210205325300,14.2593251953125,1.2716047763824463,-0.05879993364214897,-0.38263392448425293
1776442210230342400,14.28434228515625,1.1551493406295776,-0.14258670806884766,-0.3685476779937744
1776442210255360300,14.3093603515625,1.1929805278778076,-0.03334810212254524,-0.2765703499317169
1776442210280377300,14.33437744140625,1.0186582803726196,0.04554271697998047,-0.33954930305480957
1776442210305394400,14.35939453125,0.8703721761703491,0.026387399062514305,-0.34260183572769165
1776442210330412300,14.384412353515625,0.7732788920402527,-0.013253221288323402,-0.2764124274253845
1776442210355429400,14.409429443359375,0.5326558947563171,0.04253041744232178,-0.30630213022232056
1776442210380446500,14.434446533203126,0.3966884911060333,0.14388419687747955,-0.2765035033226013
1776442210405464300,14.45946435546875,0.5759442448616028,0.17842459678649902,-0.30781880021095276
1776442210430481400,14.4844814453125,0.795814573764801,-0.08078113198280334,-0.4672934114933014
1776442210455499500,14.50949951171875,0.7035240530967712,-0.21398445963859558,-0.7382724285125732
1776442210480516400,14.534516357421875,0.5147445797920227,-0.006190784275531769,-0.8124353885650635
1776442210505533200,14.559533203125,0.24536049365997314,0.18340525031089783,-0.8462743163108826
1776442210530551600,14.584551513671874,0.005922337528318167,0.27999329566955566,-0.8436108827590942
1776442210555568000,14.609568115234374,0.2939322888851166,0.22776152193546295,-0.5799999833106995
1776442210580586500,14.63458642578125,0.5334458351135254,0.1106836348772049,-0.2646700143814087
1776442210605603300,14.659603271484375,0.37692490220069885,0.4276386797428131,-0.4138709306716919
1776442210630620200,14.6846201171875,0.09328440576791763,0.27214762568473816,-0.6863565444946289
1776442210655638300,14.70963818359375,0.18406197428703308,0.19187062978744507,-0.3871122896671295
1776442210680655400,14.7346552734375,0.6622365713119507,0.17129479348659515,-0.2793208658695221
1776442210705673200,14.759673095703125,0.8859530091285706,0.3845231831073761,-0.6186072826385498
1776442210730690300,14.784690185546875,1.0021253824234009,0.2504415512084961,-0.964152455329895
1776442210755707100,14.80970703125,0.7481487989425659,-0.05531305819749832,-1.5116571187973022
1776442210780725200,14.834725341796876,0.39114752411842346,-0.13240544497966766,-1.5836114883422852
1776442210805742300,14.859742431640624,0.2994471490383148,-0.14547863602638245,-1.1678416728973389
1776442210830760200,14.88476025390625,0.5583016276359558,0.03274915739893913,-0.6922439932823181
1776442210855777300,14.90977734375,1.3339300155639648,-0.07653924822807312,0.23268809914588928
1776442210880794400,14.93479443359375,2.0104281902313232,-0.14249776303768158,1.1811028718948364
1776442210905812200,14.959812255859376,2.1607425212860107,-0.40639039874076843,1.5991907119750977
1776442210930829300,14.984829345703124,1.9839903116226196,-0.3913315534591675,1.2540439367294312
1776442210955847200,15.00984716796875,1.7595340013504028,-0.1230769231915474,0.6331886649131775
1776442210980864500,15.034864501953125,1.6778117418289185,-0.15693555772304535,-0.009850766509771347
1776442211005881600,15.059881591796875,1.5471285581588745,-0.21344250440597534,0.002880475018173456
1776442211030899500,15.0848994140625,1.4772701263427734,-0.2215062975883484,0.3051745593547821
1776442211055916500,15.10991650390625,1.293582558631897,-0.28638756275177,0.2958953082561493
1776442211080934400,15.134934326171875,1.244415521621704,-0.22118325531482697,0.07000571489334106
1776442211105951500,15.159951416015625,1.362683892250061,-0.08219101279973984,-0.15821146965026855
1776442211130968600,15.184968505859375,1.2543307542800903,-0.029259352013468742,-0.336004376411438
1776442211155986400,15.209986328125,1.250159740447998,-0.0409809872508049,-0.5350751280784607
1776442211181003500,15.23500341796875,1.074607014656067,0.006684800609946251,-0.21049225330352783
1776442211206021600,15.260021728515625,0.997108519077301,0.1411997377872467,-0.0710962787270546
1776442211231038500,15.28503857421875,1.0004113912582397,0.05054200440645218,0.018024273216724396
1776442211256055300,15.31005517578125,1.161940097808838,-0.09626767784357071,0.16470558941364288
1776442211281073700,15.33507373046875,1.3418911695480347,-0.09435845911502838,0.3582518994808197
1776442211306090200,15.36009033203125,1.0967917442321777,-0.0759485587477684,0.759496808052063
1776442211331108600,15.385108642578125,0.8756681084632874,-0.4135015606880188,0.9737526178359985
1776442211356125400,15.41012548828125,0.8115953803062439,-0.3288436532020569,1.0363765954971313
1776442211381142300,15.435142333984375,1.1357476711273193,-0.1291971355676651,0.5711439251899719
1776442211406160400,15.460160400390626,1.1114939451217651,0.002284725895151496,-0.1519961953163147
1776442211431177500,15.485177490234374,1.1556105613708496,-0.058106712996959686,-0.5567598938941956
1776442211456195300,15.5101953125,1.3629933595657349,0.18097591400146484,-0.6998127102851868
1776442211481212400,15.53521240234375,1.444219708442688,0.41302990913391113,-0.9066289663314819
1776442211506229500,15.5602294921875,1.6409043073654175,0.07797122746706009,-0.45375576615333557
1776442211531247400,15.585247314453126,1.59051513671875,-0.1562412679195404,0.12325002998113632
1776442211556264400,15.610264404296874,1.1476266384124756,-0.19534526765346527,0.43968310952186584
1776442211581282300,15.6352822265625,0.8293882608413696,-0.01637497916817665,0.4157831072807312
1776442211606299400,15.66029931640625,1.1084930896759033,-0.08945531398057938,0.5366488099098206
1776442211631316500,15.68531640625,1.3124054670333862,-0.32400602102279663,0.6416476368904114
1776442211656334300,15.710334228515626,1.4727821350097656,-0.3103165924549103,0.5349454283714294
1776442211681351400,15.735351318359376,1.5635367631912231,0.05283418670296669,-0.10411494970321655
1776442211706369300,15.760369384765625,1.4989391565322876,0.27336549758911133,-0.5566827058792114
1776442211731386400,15.785386474609375,1.484557867050171,0.4245864450931549,-1.0083814859390259
1776442211756403500,15.810403564453125,1.5686657428741455,0.15745487809181213,-1.1931848526000977
1776442211781421300,15.83542138671875,1.6042362451553345,-0.6129648685455322,-0.03471776843070984
1776442211806438400,15.8604384765625,1.2099039554595947,-0.4540649652481079,0.313397079706192
1776442211831456500,15.88545654296875,0.9169170260429382,0.06581416726112366,0.6858468055725098
1776442211856473300,15.910473388671875,0.8655771613121033,-0.12350089848041534,1.047907829284668
1776442211881491500,15.935491455078125,1.2830750942230225,-0.01986824721097946,0.8811699748039246
1776442211906508500,15.960508544921876,1.5594078302383423,0.07000891119241714,0.43352481722831726
1776442211931525400,15.985525390625,1.566970944404602,-0.052625127136707306,0.15466360747814178
1776442211956543500,16.01054345703125,1.461408257484436,-0.2871886193752289,-0.0929882600903511
1776442211981560600,16.035560546875,1.5123966932296753,-0.36099866032600403,0.025557823479175568
1776442212006578400,16.060578369140625,1.4257766008377075,-0.4480036199092865,0.37997129559516907
1776442212031595500,16.085595458984375,1.0701504945755005,-0.5095441937446594,0.759057879447937
1776442212056612600,16.110612548828126,0.7444373965263367,-0.48935985565185547,1.0496623516082764
1776442212081630500,16.13563037109375,0.6278823018074036,-0.4477894902229309,1.4342243671417236
1776442212106647600,16.1606474609375,0.9822787046432495,-0.12032268196344376,1.5161200761795044
1776442212131665400,16.18566552734375,1.3944008350372314,0.04212082177400589,1.0880714654922485
1776442212156682500,16.2106826171875,1.4967976808547974,0.22638919949531555,0.46787452697753906
1776442212181699300,16.23569921875,1.4446858167648315,0.25703951716423035,-0.1307995617389679
1776442212206717400,16.260717529296876,1.4580436944961548,0.3650330901145935,-0.5882225036621094
1776442212231734300,16.285734375,1.2803261280059814,0.30291512608528137,-0.5376706719398499
1776442212256752400,16.31075244140625,0.9702779650688171,0.23925386369228363,-0.23164334893226624
1776442212281769200,16.335769287109375,1.1309894323349,-0.019025355577468872,-0.24637408554553986
1776442212306787600,16.36078759765625,1.5733145475387573,0.19231857359409332,-0.14742541313171387
1776442212331804200,16.38580419921875,1.705945611000061,0.19891150295734406,-0.08783265203237534
1776442212356821200,16.4108212890625,1.7570228576660156,0.14787548780441284,-0.4712543487548828
1776442212381839400,16.43583935546875,1.7861422300338745,0.06926882266998291,-0.9389286041259766
1776442212406856200,16.460856201171875,1.8056559562683105,-0.058396730571985245,-0.9281241297721863
1776442212431874300,16.485874267578126,1.8760334253311157,0.0057348511181771755,-0.4721243977546692
1776442212456891400,16.510891357421876,1.80119788646698,-0.04141721501946449,-0.1361226886510849
1776442212481908200,16.535908203125,1.7355093955993652,-0.07050985097885132,-0.011983958072960377
1776442212506926300,16.56092626953125,1.8605674505233765,-0.14503414928913116,0.21509313583374023
1776442212531943400,16.585943359375,2.0868141651153564,-0.1527855545282364,0.4489184021949768
1776442212556961300,16.610961181640626,2.1759655475616455,-0.12494006752967834,0.2306867390871048
1776442212581978400,16.635978271484376,2.080195665359497,-0.06721099466085434,-0.07348247617483139
1776442212606996200,16.660996337890627,1.8559974431991577,-0.1645175814628601,-0.16476525366306305
1776442212632013300,16.686013427734373,1.5315219163894653,-0.2526889741420746,-0.129186749458313
1776442212657030400,16.711030517578124,1.346933126449585,-0.24801114201545715,0.018546786159276962
1776442212682048300,16.73604833984375,1.540615200996399,-0.189520925283432,0.2989427447319031
1776442212707065300,16.7610654296875,2.040900230407715,0.04573606327176094,0.3735767900943756
1776442212732083200,16.786083251953126,2.240163564682007,0.26491421461105347,0.18636827170848846
1776442212757100300,16.811100341796877,2.069570541381836,0.1476786732673645,-0.012854811735451221
1776442212782118400,16.836118408203124,1.8408254384994507,0.197382852435112,-0.22650876641273499
1776442212807135200,16.86113525390625,1.6910006999969482,0.33923131227493286,-0.3131427466869354
1776442212832152300,16.88615234375,1.25180983543396,0.20753242075443268,-0.24028849601745605
1776442212857170400,16.91117041015625,0.9203490614891052,0.1521778106689453,-0.12468067556619644
1776442212882187300,16.936187255859377,0.7631306648254395,0.12252058833837509,0.015547268092632294
1776442212907205400,16.961205322265624,0.8834258913993835,0.21577942371368408,0.2245769202709198
1776442212932222500,16.986222412109374,1.0176697969436646,0.29268884658813477,0.425439715385437
1776442212957240300,17.011240234375,0.9322643280029297,0.474416583776474,0.5812849998474121
1776442212982257400,17.03625732421875,0.9852915406227112,0.43946364521980286,0.6940855383872986
1776442213007274500,17.0612744140625,0.6747108101844788,0.5949499011039734,0.8224887847900391
1776442213032292400,17.086292236328124,0.12258051335811615,0.49665290117263794,0.8692986369132996
1776442213057309400,17.111309326171874,-0.22005434334278107,0.2862655818462372,0.7625833749771118
1776442213082327300,17.136327392578124,-0.3687114417552948,-0.018161160871386528,0.5052224397659302
1776442213107344400,17.161344482421875,-0.2793557345867157,-0.16038568317890167,0.11900148540735245
1776442213132361500,17.186361572265625,0.03856949508190155,-0.026744529604911804,-0.323672354221344
1776442213157379300,17.21137939453125,0.3883139193058014,-0.19936823844909668,-0.6176501512527466
1776442213182396400,17.236396484375,0.5991755723953247,-0.45750337839126587,0.35755655169487
1776442213207414300,17.261414306640624,0.7439018487930298,-0.0022799321450293064,0.9287561178207397
1776442213232431400,17.286431396484375,1.0344362258911133,0.18668439984321594,0.5701042413711548
1776442213257449500,17.311449462890625,1.007178544998169,0.1441316157579422,0.22100748121738434
1776442213282466300,17.33646630859375,0.3542979061603546,-0.08522328734397888,-0.006178800016641617
1776442213307483400,17.3614833984375,0.07110799849033356,-0.26681891083717346,0.019352659583091736
1776442213332501500,17.38650146484375,0.22307249903678894,-0.07941626012325287,0.1590820550918579
1776442213357518300,17.411518310546874,0.6630988717079163,0.1765824854373932,0.264682799577713
1776442213382536400,17.436536376953125,0.8964706063270569,-0.09189823269844055,0.23111124336719513
1776442213407553500,17.461553466796875,1.0790507793426514,-0.1462906301021576,0.08208714425563812
1776442213432571400,17.4865712890625,1.415155053138733,0.11005939543247223,-0.1526705026626587
1776442213457588500,17.51158837890625,1.5771842002868652,0.12730441987514496,-0.3740263283252716
1776442213482605300,17.536605224609374,1.5662345886230469,-0.03242585062980652,-0.333731085062027
1776442213507623400,17.56162353515625,1.6441807746887207,0.04243587329983711,-0.11716523766517639
1776442213532640300,17.58664013671875,1.624639868736267,0.22535349428653717,-0.0437309704720974
1776442213557658400,17.611658447265626,1.7208294868469238,0.44133374094963074,-0.3156024217605591
1776442213582675200,17.63667529296875,2.1063902378082275,0.3361327350139618,-0.5864387154579163
1776442213607693300,17.661693359375,2.3763864040374756,0.10401295125484467,-0.4055245816707611
1776442213632710100,17.686710205078125,2.159942388534546,0.2622595727443695,0.14427675306797028
1776442213657727200,17.711727294921875,1.5092203617095947,0.611258327960968,0.45708978176116943
1776442213682745300,17.736745361328126,1.0913937091827393,0.402351975440979,0.4451444447040558
1776442213707762200,17.76176220703125,0.8026213645935059,0.1175716370344162,0.4105033874511719
1776442213732780300,17.7867802734375,0.49292048811912537,-0.08686032891273499,0.28065961599349976
1776442213757797000,17.811797119140625,0.27372369170188904,0.0688118189573288,-0.4735819399356842
1776442213782815200,17.836815185546875,0.7234956622123718,0.1496478170156479,-0.5064786672592163
1776442213807832300,17.861832275390626,1.4029511213302612,0.16814319789409637,0.03628263995051384
1776442213832849200,17.88684912109375,1.595306396484375,0.3309193253517151,0.6251259446144104
1776442213857867300,17.9118671875,1.6167750358581543,0.26315438747406006,0.9703235626220703
1776442213882884400,17.93688427734375,1.502801537513733,0.2628028690814972,0.9395946264266968
1776442213907902200,17.961902099609375,1.439078450202942,0.16740337014198303,0.6212635636329651
1776442213932919300,17.986919189453126,1.0735266208648682,-0.044982653111219406,0.103166863322258
1776442213957937200,18.011937255859376,0.8844081163406372,-0.02363981492817402,-0.417141318321228
1776442213982954500,18.03695458984375,1.0128613710403442,-0.03726508095860481,-0.7875454425811768
1776442214007971600,18.0619716796875,1.0353374481201172,0.01762426644563675,-0.805526077747345
1776442214032989400,18.086989501953123,1.2197320461273193,0.083944171667099,-0.5738915205001831
1776442214058006500,18.112006591796874,1.1642061471939087,0.11877884715795517,-0.26368382573127747
1776442214083024400,18.1370244140625,1.1736655235290527,0.23274536430835724,-0.32865166664123535
1776442214108041500,18.16204150390625,1.365301489830017,0.32308563590049744,-0.28593695163726807
1776442214133059600,18.1870595703125,1.3018133640289307,0.2405170053243637,-0.23367294669151306
1776442214158076400,18.212076416015623,1.2409640550613403,0.4101784825325012,-0.040942106395959854
1776442214183093500,18.237093505859374,1.5578317642211914,0.38417136669158936,-0.2019115537405014
1776442214208111600,18.262111572265624,1.5532463788986206,0.5670202970504761,-0.24395540356636047
1776442214233128400,18.28712841796875,1.329830288887024,0.510246753692627,0.1516427844762802
1776442214258146600,18.312146484375,1.3712555170059204,0.5202961564064026,0.21706973016262054
1776442214283163600,18.33716357421875,1.6393250226974487,0.4923156797885895,0.1823599487543106
1776442214308181500,18.362181396484374,1.5982047319412231,0.2688085734844208,0.16178277134895325
1776442214333198600,18.387198486328124,1.1060794591903687,-0.1286565065383911,0.29313334822654724
1776442214358215700,18.412215576171874,0.6078864932060242,-0.11596335470676422,0.27354738116264343
1776442214383233500,18.437233642578125,0.6744822859764099,0.030642863363027573,0.19840310513973236
1776442214408250600,18.462250732421875,1.233652949333191,0.16737967729568481,0.13087092339992523
1776442214433268500,18.4872685546875,1.6388968229293823,0.5999358892440796,-0.0757160633802414
1776442214458285600,18.51228564453125,1.649389386177063,0.8247535228729248,-0.37286651134490967
1776442214483303400,18.537303466796875,1.6454812288284302,0.23179008066654205,-0.34986719489097595
1776442214508320500,18.562320556640625,1.7935279607772827,0.36551353335380554,-0.27871444821357727
1776442214533337600,18.587337646484375,2.266857147216797,0.17723523080348969,-0.059844691306352615
1776442214558355500,18.61235546875,2.5474302768707275,0.5238386988639832,0.4707517921924591
1776442214583372500,18.63737255859375,2.4485042095184326,0.6666635274887085,0.9457294940948486
1776442214608390700,18.662390625,2.0801827907562256,0.8699633479118347,0.8816245794296265
1776442214633407500,18.687407470703125,1.8461202383041382,0.8541359305381775,0.6045098900794983
1776442214658425600,18.712425537109375,1.7318278551101685,0.5913517475128174,0.24953579902648926
1776442214683442700,18.737442626953126,1.993239164352417,0.23754625022411346,-0.4425047039985657
1776442214708460500,18.76246044921875,1.5611226558685303,-0.09308014065027237,-1.1194387674331665
1776442214733477600,18.7874775390625,0.4660033881664276,-0.47830691933631897,-0.8345105648040771
1776442214758494700,18.81249462890625,1.1326930522918701,-0.16826944053173065,-0.117839016020298
1776442214783512600,18.8375126953125,2.284275531768799,0.09689085930585861,0.7562035322189331
1776442214808529700,18.86252978515625,2.6667802333831787,0.21692033112049103,1.188368797302246
1776442214833547500,18.887547607421876,2.2153496742248535,0.2719859778881073,0.9362912774085999
1776442214858564600,18.912564697265626,1.5679986476898193,0.3730156421661377,0.3617382347583771
1776442214883582700,18.937582763671877,1.1646533012390137,0.027958929538726807,-0.26662182807922363
1776442214908599600,18.962599609375,1.1029505729675293,-0.061406102031469345,-0.9134660959243774
1776442214933616400,18.987616455078125,1.1845593452453613,-0.03724350780248642,-1.5004401206970215
1776442214958634500,19.012634521484376,1.2928414344787598,-0.19884945452213287,-1.8594590425491333
1776442214983655200,19.0376552734375,1.02077317237854,-0.19015929102897644,-1.933854103088379
1776442215008673300,19.06267333984375,0.6649801135063171,-0.4487855136394501,-1.8765006065368652
1776442215033690000,19.087690185546876,0.337502121925354,-0.6086846590042114,-1.5989164113998413
1776442215058708200,19.112708251953126,0.051546014845371246,-0.2669574022293091,-1.088112711906433
1776442215083725300,19.137725341796877,-0.00956660695374012,-0.13017292320728302,-0.5687766075134277
1776442215108743200,19.1627431640625,0.24493224918842316,-0.173548623919487,0.018000571057200432
1776442215133760300,19.18776025390625,0.3847351670265198,-0.1645556539297104,0.33260032534599304
1776442215158777300,19.21277734375,0.3361857235431671,-0.017521735280752182,0.6048097610473633
1776442215183795200,19.237795166015626,0.3064928352832794,0.0735088363289833,0.8423349261283875
1776442215208812300,19.262812255859377,0.8953462243080139,0.28277283906936646,0.5199829936027527
1776442215233830100,19.287830078125,0.7108703851699829,0.03562457114458084,-0.3558390736579895
1776442215258847200,19.31284716796875,0.6306226849555969,-0.1992236226797104,-0.17234566807746887
1776442215283865000,19.337864990234376,0.7644201517105103,-0.40352535247802734,-0.21207976341247559
1776442215308882200,19.362882080078126,0.7095414996147156,-0.3636367917060852,-0.286987841129303
1776442215333900300,19.387900390625,0.5917893052101135,-0.2471858263015747,-0.352067768573761
1776442215358917000,19.412917236328123,0.5478151440620422,0.03790849819779396,-0.43182411789894104
1776442215383934200,19.437934326171874,1.0058882236480713,-0.11326956748962402,-0.3117682635784149
1776442215408952300,19.462952392578124,1.2160762548446655,-0.03266553580760956,-0.27385178208351135
1776442215433969200,19.48796923828125,1.164995789527893,0.12408173084259033,-0.18418395519256592
1776442215458987300,19.5129873046875,1.3034085035324097,0.3824259340763092,-0.3086736798286438
1776442215484004400,19.53800439453125,1.3944194316864014,0.21618156135082245,-0.6052318215370178
1776442215509022200,19.563022216796874,1.19077467918396,-0.12061402946710587,-0.7967818379402161
1776442215534039300,19.588039306640624,0.981636106967926,-0.14567331969738007,-0.6598141193389893
1776442215559057200,19.61305712890625,1.1112412214279175,-0.11349700391292572,-0.40681248903274536
1776442215584074200,19.63807421875,1.377873182296753,0.08581210672855377,-0.23548229038715363
1776442215609091300,19.66309130859375,1.417307734489441,0.21881702542304993,-0.05404246225953102
1776442215634109200,19.688109130859374,1.4702644348144531,0.05549122020602226,-0.11353614926338196
1776442215659126300,19.713126220703124,1.5864897966384888,-0.16134734451770782,-0.17439471185207367
1776442215684144400,19.738144287109375,1.4558825492858887,-0.09515581279993057,-0.17792339622974396
1776442215709161200,19.7631611328125,1.3900561332702637,0.06756732612848282,-0.12094319611787796
1776442215734179300,19.788179443359375,1.5552290678024292,0.02918531559407711,0.08748883754014969
1776442215759196200,19.813196044921874,1.8585509061813354,-0.017678063362836838,0.37438398599624634
1776442215784213200,19.838213134765624,1.834594964981079,-0.1087065041065216,0.3984310030937195
1776442215809231400,19.8632314453125,1.7287912368774414,-0.044971734285354614,0.30499425530433655
1776442215834248200,19.888248291015625,1.7349003553390503,-0.051058124750852585,0.2696394622325897
1776442215859266300,19.913266357421875,1.8003685474395752,-0.016526246443390846,0.2634468078613281
1776442215884283400,19.938283447265626,1.8199760913848877,-0.043225500732660294,0.21385715901851654
1776442215909301200,19.96330126953125,1.68254816532135,-0.08163121342658997,0.051118578761816025
1776442215934318300,19.988318359375,1.435626745223999,-0.07788094878196716,-0.04151415452361107
1776442215959336200,20.013336181640625,1.3527412414550781,-0.1498350352048874,0.0469944067299366
1776442215984350200,20.03835009765625,1.436673879623413,-0.16026663780212402,0.08149299770593643
1776442216009368000,20.0633681640625,1.4411070346832275,-0.24932034313678741,-0.014580274000763893
1776442216034385200,20.08838525390625,1.090427279472351,-0.3185090124607086,-0.32370030879974365
1776442216059402000,20.113402099609374,0.9895358681678772,-0.3486897945404053,-0.2895444631576538
1776442216084420000,20.138420166015624,1.2730330228805542,-0.2021179497241974,-0.163613423705101
1776442216109437000,20.16343701171875,1.4462804794311523,-0.2576594948768616,-0.06768610328435898
1776442216134455300,20.188455322265625,1.684141755104065,-0.2925485074520111,-0.009547166526317596
1776442216159471900,20.213471923828124,1.9822810888290405,-0.17369163036346436,0.054664842784404755
1776442216184490200,20.238490234375,1.7593656778335571,-0.2022271305322647,0.1159505695104599
1776442216209507000,20.263507080078124,1.5911327600479126,0.03621393069624901,0.4322448968887329
1776442216234525200,20.288525146484375,1.5070316791534424,0.1207309439778328,0.6803281903266907
1776442216259542000,20.3135419921875,1.5070152282714844,0.20295578241348267,0.44157713651657104
1776442216284559000,20.33855908203125,1.4235788583755493,0.30386000871658325,0.2125474214553833
1776442216309577000,20.363576904296874,1.515320062637329,-0.14804193377494812,0.1881059855222702
1776442216334594000,20.388593994140624,1.4019689559936523,-0.2457413226366043,-0.022610770538449287
1776442216359612000,20.41361181640625,1.3783682584762573,-0.09175175428390503,-0.2085670530796051
1776442216384629000,20.43862890625,1.2796744108200073,-0.04364974424242973,-0.4310632348060608
1776442216409647000,20.463647216796875,1.3695732355117798,-0.014435664750635624,-0.3548949658870697
1776442216434664000,20.488663818359374,1.8011360168457031,-0.04530196636915207,-0.04049602895975113
1776442216459682000,20.51368212890625,1.9153491258621216,-0.07004273682832718,-0.02137080207467079
1776442216484699100,20.53869921875,1.8492745161056519,-0.14525386691093445,-0.15376213192939758
1776442216509716000,20.563716064453125,2.0531647205352783,-0.39843711256980896,-0.1777723878622055
1776442216534734000,20.588734130859375,2.1570725440979004,-0.42265644669532776,-0.00863370206207037
1776442216559751000,20.6137509765625,2.4011261463165283,-0.5385186076164246,0.10652697831392288
1776442216584769000,20.63876904296875,2.593366861343384,-0.4517802298069,0.302155077457428
1776442216609786000,20.6637861328125,2.1785409450531006,-0.6405941247940063,0.5096725821495056
1776442216634804000,20.688803955078125,1.8565572500228882,-0.8163600564002991,0.6566372513771057
1776442216659821000,20.713821044921875,2.074819326400757,-0.6355567574501038,0.8030322790145874
1776442216684839000,20.7388388671875,2.370170831680298,-0.3227972388267517,0.8144258260726929
1776442216709856000,20.76385595703125,2.522998571395874,-0.37865278124809265,0.5138236284255981
1776442216734873000,20.788873046875,2.380891799926758,-0.25508609414100647,-0.04092186689376831
1776442216759891000,20.813890869140625,2.1525862216949463,-0.3285965323448181,-0.5790833234786987
1776442216784908000,20.838907958984375,2.1773109436035156,-0.32319217920303345,-0.9613937139511108
1776442216809926100,20.863926025390626,2.324007511138916,-0.4283665418624878,-0.9483612179756165
1776442216834943000,20.88894287109375,2.3187248706817627,-0.3787347972393036,-0.8777152895927429
1776442216859961000,20.913961181640627,2.262352466583252,-0.1367112398147583,-0.7013943195343018
1776442216884978200,20.938978271484373,2.059302568435669,-0.011128284968435764,-0.3816099464893341
1776442216909996000,20.96399609375,1.918307900428772,0.04091387614607811,-0.014758972451090813
1776442216935013000,20.98901318359375,1.9339015483856201,0.2934710383415222,0.23518694937229156
1776442216960031000,21.014031005859376,2.021616220474243,0.37112775444984436,0.39525306224823
1776442216985047600,21.039047607421875,2.235304117202759,0.3136356770992279,0.5036578178405762
1776442217010064600,21.064064697265625,2.5250542163848877,0.3601168990135193,0.5874512791633606
1776442217035082500,21.08908251953125,2.580512285232544,0.26559945940971375,0.5912315845489502
1776442217060099600,21.114099609375,2.6912412643432617,0.22676284611225128,0.4262069761753082
1776442217085117700,21.13911767578125,2.6895194053649902,0.25408899784088135,0.27043309807777405
1776442217110134500,21.164134521484375,2.6586358547210693,0.2542687654495239,0.3811468183994293
1776442217135152600,21.189152587890625,2.6436026096343994,0.2796843647956848,0.5723226070404053
1776442217160169700,21.214169677734375,1.8349281549453735,0.07699304819107056,0.8966298699378967
1776442217185187600,21.2391875,1.5178987979888916,0.14846271276474,1.0251561403274536
1776442217210204700,21.26420458984375,1.7956262826919556,0.5913552045822144,0.9593231081962585
1776442217235221500,21.289221435546875,2.3352556228637695,0.9625742435455322,0.6351141333580017
1776442217260239600,21.314239501953125,2.5309062004089355,1.0919554233551025,0.19396094977855682
1776442217285256700,21.339256591796875,1.7899936437606812,0.884956419467926,0.027248932048678398
1776442217310274600,21.364274658203126,1.486884593963623,0.4535994529724121,0.2105388641357422
1776442217335291600,21.389291748046876,1.4719525575637817,0.4916965067386627,0.6439803242683411
1776442217360309500,21.4143095703125,1.0919694900512695,0.6953721046447754,0.4365605413913727
1776442217385326600,21.43932666015625,0.830345630645752,0.115784652531147,0.2227473258972168
1776442217410344700,21.4643447265625,1.3049265146255493,-0.11843716353178024,0.609912097454071
1776442217435361500,21.489361572265626,1.5996854305267334,-0.1802627146244049,0.5671380162239075
1776442217460378600,21.514378662109376,1.3129935264587402,0.06448791176080704,0.5991758108139038
1776442217485396700,21.539396728515626,1.0793339014053345,0.11212920397520065,0.5738195776939392
1776442217510413600,21.56441357421875,1.1030815839767456,-0.119949571788311,0.6135217547416687
1776442217535431700,21.589431640625,1.2819572687149048,0.0021848573815077543,0.6873474717140198
1776442217560448800,21.61444873046875,1.5407297611236572,-0.1600210964679718,-0.08814264088869095
1776442217585466600,21.639466552734376,2.0125584602355957,-0.15166568756103516,-0.7740046381950378
1776442217610483700,21.664483642578126,2.578613519668579,-0.285384863615036,-1.0407390594482422
1776442217635501600,21.68950146484375,2.494616746902466,-0.36162397265434265,-0.8455579280853271
1776442217660518700,21.7145185546875,1.9361867904663086,-0.32592537999153137,-0.4035738408565521
1776442217685535700,21.73953564453125,1.4847913980484009,-0.7331477403640747,-0.020837370306253433
1776442217710553600,21.7645537109375,1.5071076154708862,-1.2537840604782104,0.36845260858535767
1776442217735570700,21.78957080078125,1.2849595546722412,-1.774332880973816,0.5058543682098389
1776442217760588500,21.814588623046873,0.9018675088882446,-1.9962618350982666,0.40014126896858215
1776442217785605600,21.839605712890624,0.8334367871284485,-1.5978803634643555,0.24771952629089355
1776442217810623700,21.864623779296874,1.0275729894638062,-1.7479902505874634,-0.010812168009579182
1776442217835640600,21.889640625,1.1297273635864258,-1.9837477207183838,-0.0861511304974556
1776442217860658700,21.91465869140625,1.0372545719146729,-1.8221864700317383,0.08447200804948807
1776442217885675800,21.93967578125,0.9368313550949097,-1.8890725374221802,0.29239538311958313
1776442217910693600,21.964693603515624,0.8460804224014282,-2.3066482543945312,0.557759165763855
1776442217935710700,21.989710693359374,0.7764230370521545,-2.491924285888672,0.9566830992698669
1776442217960727800,22.014727783203124,0.7766531109809875,-1.9913779497146606,1.4395989179611206
1776442217985746000,22.039745849609375,0.7412304282188416,-1.5280123949050903,1.7241339683532715
1776442218010763000,22.064762939453125,1.2933244705200195,-1.7461981773376465,1.1226153373718262
1776442218035780900,22.08978076171875,2.0413737297058105,-2.075871706008911,0.2811877429485321
1776442218060798000,22.1147978515625,1.9464231729507446,-1.4688256978988647,0.24269865453243256
1776442218085815800,22.13981591796875,1.9075498580932617,-1.2964537143707275,0.29277753829956055
1776442218110833000,22.1648330078125,2.0794930458068848,-1.5740437507629395,0.3406268358230591
1776442218135851000,22.18985107421875,1.4293313026428223,-1.5960355997085571,0.8407812714576721
1776442218160867800,22.214867919921875,1.0861300230026245,-1.8315820693969727,1.2592564821243286
1776442218185886000,22.239885986328126,1.0702797174453735,-1.70415198802948,1.246650218963623
1776442218210903000,22.264903076171876,1.0892773866653442,-1.8519995212554932,1.022143840789795
1776442218235920000,22.289919921875,1.133537769317627,-1.7763830423355103,1.0987643003463745
1776442218260938000,22.31493798828125,1.2685225009918213,-1.2055912017822266,1.078977346420288
1776442218285955000,22.339955078125,1.2222404479980469,-1.1624006032943726,0.9868093132972717
1776442218310973000,22.364972900390626,1.0693923234939575,-1.3346551656723022,1.0781978368759155
1776442218335990000,22.389989990234376,0.6235083341598511,-1.2665746212005615,1.683451533317566
1776442218361007900,22.4150078125,0.3164546489715576,-0.9410862922668457,2.2379376888275146
1776442218386025000,22.44002490234375,1.0448209047317505,-0.8830376267433167,2.255652904510498
1776442218411042800,22.465042724609376,1.4497358798980713,-0.7798076272010803,2.175751209259033
1776442218436060000,22.490059814453126,1.117988109588623,-0.3522499203681946,2.4051334857940674
1776442218461077000,22.515076904296876,0.7579819560050964,-0.4647357165813446,2.491546154022217
1776442218486094800,22.5400947265625,0.8442457318305969,-0.8970394730567932,2.519550085067749
1776442218511112000,22.56511181640625,0.6937132477760315,-0.6252607107162476,2.6243979930877686
1776442218536130000,22.590130126953124,0.613210141658783,-0.5273975133895874,2.5479769706726074
1776442218561147000,22.61514697265625,0.7465618252754211,0.09862084686756134,2.0859951972961426
1776442218586165000,22.6401650390625,1.074808955192566,-0.09818462282419205,1.6895463466644287
1776442218611182000,22.66518212890625,0.8651542663574219,-0.030945666134357452,1.5176217555999756
1776442218636200000,22.690199951171873,0.5798285007476807,-0.22363735735416412,1.2334529161453247
1776442218661217000,22.715217041015624,0.4930696189403534,-0.7275476455688477,0.9166219830513
1776442218686235000,22.74023486328125,0.32001370191574097,-0.5481901168823242,0.9372353553771973
1776442218711252000,22.765251953125,0.34922510385513306,-0.5445767641067505,1.3564366102218628
1776442218736269800,22.790269775390627,0.32349497079849243,-0.5474753379821777,1.4759517908096313
1776442218761287000,22.815286865234373,0.5072416067123413,-0.3328828811645508,1.5274105072021484
1776442218786304000,22.840303955078124,0.41143709421157837,0.2743473947048187,1.2071871757507324
1776442218811321900,22.86532177734375,0.34655261039733887,0.17112141847610474,0.7946925759315491
1776442218836339000,22.8903388671875,0.47193291783332825,-0.2583591043949127,0.8924026489257812
1776442218861357000,22.915357177734375,0.4302331507205963,-0.4028222858905792,1.2030017375946045
1776442218886374000,22.940373779296873,0.47004127502441406,-0.2843265235424042,1.3509494066238403
1776442218911392000,22.96539208984375,0.7327932715415955,0.20998971164226532,0.5912150740623474
1776442218936409000,22.9904091796875,0.5142561197280884,0.15231949090957642,0.5936678647994995
1776442218961427000,23.015427001953125,0.23252326250076294,-0.001050084363669157,0.9027141332626343
1776442218986443500,23.040443603515627,-0.021019531413912773,-0.09460480511188507,0.9009926915168762
1776442219011460600,23.065460693359373,0.29705458879470825,-0.6089094281196594,0.7214583158493042
1776442219036478500,23.090478515625,0.5822354555130005,-0.9694468379020691,0.9647271633148193
1776442219061495600,23.11549560546875,0.32854539155960083,-0.5280734300613403,1.809070110321045
1776442219086513400,23.140513427734376,0.39553773403167725,-0.2757956385612488,2.0931003093719482
1776442219111530500,23.165530517578127,0.2969376742839813,-0.5380786657333374,1.441520094871521
1776442219136548600,23.190548583984373,-0.16603237390518188,-1.0704392194747925,0.3888561427593231
1776442219161565400,23.2155654296875,-0.2320244461297989,-0.33575642108917236,0.8011220097541809
1776442219186583600,23.24058349609375,-0.038000911474227905,0.1248985230922699,1.1292381286621094
1776442219211600600,23.2656005859375,0.22836846113204956,0.48695075511932373,1.3540687561035156
1776442219236618500,23.290618408203127,0.18644550442695618,-0.1471814662218094,1.6131584644317627
1776442219261635600,23.315635498046873,0.14501763880252838,0.07006057351827621,1.753840684890747
1776442219286653400,23.3406533203125,0.19149751961231232,0.03470604866743088,1.7980315685272217
1776442219311670500,23.36567041015625,0.2907559275627136,0.7607154250144958,2.1189584732055664
1776442219336687600,23.3906875,0.17919398844242096,0.33098936080932617,2.437377452850342
1776442219361705500,23.41570556640625,-0.02707689069211483,-1.3181747198104858,2.403830051422119
1776442219386722600,23.44072265625,-0.10351014882326126,-0.974455714225769,1.9625475406646729
1776442219411740400,23.465740478515624,0.03555240109562874,0.63301020860672,1.7700854539871216
1776442219436757500,23.490757568359374,-0.30764490365982056,1.5291846990585327,0.9613692164421082
1776442219461775600,23.515775634765625,-0.919853687286377,0.11901161074638367,0.797987163066864
1776442219486792400,23.54079248046875,-1.11539626121521,-0.5115416049957275,1.6234488487243652
1776442219511810600,23.565810546875,-0.7818052768707275,-0.18923330307006836,2.3119144439697266
1776442219536827600,23.59082763671875,-0.4228796064853668,-0.15793663263320923,2.371286153793335
1776442219561845500,23.615845458984374,-0.1015484631061554,-0.5766838192939758,2.149247884750366
1776442219586862600,23.640862548828125,0.22329087555408478,-0.8903810381889343,2.0350677967071533
1776442219611880400,23.66588037109375,0.4154520630836487,-0.582126259803772,2.054269790649414
1776442219636897500,23.6908974609375,0.6355916261672974,-0.5621200799942017,2.1376285552978516
1776442219661914400,23.715914306640624,0.8917179107666016,-0.8291560411453247,2.161926031112671
1776442219686932500,23.740932373046874,0.8029473423957825,-1.1381756067276,2.1637051105499268
1776442219711949300,23.76594921875,0.44249671697616577,-1.4241299629211426,2.2238471508026123
1776442219736967700,23.7909677734375,0.22924277186393738,-0.06294593960046768,2.1407814025878906
1776442219761984300,23.815984375,0.26572516560554504,1.077363133430481,1.9514936208724976
1776442219787002600,23.841002685546876,0.28281518816947937,0.5498442053794861,1.7721166610717773
1776442219812019500,23.86601953125,0.06991703063249588,0.22990377247333527,1.5393505096435547
1776442219837037600,23.89103759765625,0.09710337966680527,0.5873833298683167,1.318307876586914
1776442219862054400,23.916054443359375,0.23629136383533478,0.7650079131126404,1.1028109788894653
1776442219887072500,23.941072509765625,0.235637828707695,0.09317442029714584,0.9647793769836426
1776442219912089300,23.96608935546875,0.15093065798282623,0.32617703080177307,1.035075068473816
1776442219937106400,23.9911064453125,0.1576002836227417,0.7155815362930298,0.9574412703514099
1776442219962124300,24.016124267578125,0.31427350640296936,0.26328516006469727,0.7660609483718872
1776442219987141400,24.041141357421875,0.3419104516506195,-0.3373226523399353,0.7084237337112427
1776442220012159200,24.0661591796875,0.1479519158601761,-0.295132040977478,0.892052948474884
1776442220037176300,24.09117626953125,0.09724905341863632,-0.16111645102500916,1.0016742944717407
1776442220062194400,24.1161943359375,0.24218839406967163,-0.20558086037635803,1.0132834911346436
1776442220087211300,24.141211181640625,0.2475818395614624,-0.5309493541717529,1.0470536947250366
1776442220112229400,24.1662294921875,-0.008116516284644604,-0.14354412257671356,1.3455370664596558
1776442220137246500,24.19124658203125,-0.09763787686824799,0.0065069012343883514,1.363060712814331
1776442220162264300,24.216264404296876,0.01398612279444933,-0.3122985064983368,1.261062741279602
1776442220187281400,24.241281494140626,0.16538363695144653,-0.4277297556400299,1.0882855653762817
1776442220212298500,24.266298583984376,-0.024692563340067863,-0.2560533583164215,0.848261833190918
1776442220237316400,24.29131640625,0.373066782951355,-0.5108251571655273,0.6739975810050964
1776442220262333400,24.31633349609375,0.5770223140716553,-0.4439082145690918,0.6902098655700684
1776442220287351300,24.341351318359376,0.2531888484954834,-0.20549270510673523,0.9111654162406921
1776442220312368400,24.366368408203126,0.00001304948909819359,-0.07257087528705597,1.1976780891418457
1776442220337386500,24.391386474609376,0.079704150557518,0.0009366337326355278,1.6155365705490112
1776442220362403300,24.4164033203125,-0.17616544663906097,0.12547776103019714,1.6740843057632446
1776442220387421400,24.44142138671875,-0.286577433347702,0.08124372363090515,1.5021922588348389
1776442220412438300,24.466438232421876,-0.1284136325120926,-0.277871310710907,1.3292816877365112
1776442220437456400,24.491456298828126,0.019691146910190582,-0.5651541948318481,1.3500617742538452
1776442220462473500,24.516473388671876,-0.20804187655448914,-0.21726760268211365,1.5770035982131958
1776442220487491300,24.5414912109375,-0.18259990215301514,-0.0583711639046669,1.8449053764343262
1776442220512508400,24.56650830078125,0.16050845384597778,0.07130027562379837,2.1421146392822266
1776442220537525500,24.591525390625,0.36122503876686096,0.35283929109573364,2.0577292442321777
1776442220562543400,24.61654345703125,0.5733790993690491,0.5971701741218567,1.9117016792297363
1776442220587560400,24.641560546875,0.6600103974342346,0.4293537735939026,1.6994855403900146
1776442220612578300,24.666578369140623,0.3891488313674927,0.46504783630371094,1.281697154045105
1776442220637595400,24.691595458984374,-0.05633251368999481,0.23016689717769623,1.0031949281692505
1776442220662613500,24.716613525390624,-0.501883327960968,0.12315069139003754,0.86881422996521
1776442220687630300,24.74163037109375,-0.16177105903625488,-0.018038388341665268,0.8958399891853333
1776442220712648400,24.7666484375,0.36749517917633057,0.18472883105278015,0.8800389170646667
1776442220737665500,24.79166552734375,0.3961199223995209,0.6282244920730591,0.8958088159561157
1776442220762683400,24.816683349609374,0.38959622383117676,0.7362484335899353,0.8783528804779053
1776442220787700500,24.841700439453124,0.07812169939279556,0.5231175422668457,0.6646339297294617
1776442220812718300,24.86671826171875,-0.10529739409685135,0.2544759511947632,0.31192246079444885
1776442220837735400,24.8917353515625,-0.14049452543258667,0.07744631916284561,0.12027208507061005
1776442220862752500,24.91675244140625,-0.07625242322683334,0.022181468084454536,0.1798776239156723
1776442220887770400,24.941770263671874,-0.10315221548080444,0.329910010099411,0.2642095386981964
1776442220912787500,24.966787353515624,-0.16428427398204803,0.44236862659454346,0.5715036988258362
1776442220937805300,24.991805419921874,-0.07972785085439682,0.3246278762817383,0.7776113152503967
1776442220962822400,25.016822509765625,-0.1672893911600113,0.18947352468967438,0.39223408699035645
1776442220987840800,25.0418408203125,-0.001984054921194911,0.2745966613292694,0.20501519739627838
1776442221012857900,25.06685791015625,0.002109756227582693,-0.0395524688065052,0.08035849034786224
1776442221037876000,25.0918759765625,-0.14218243956565857,0.17594999074935913,0.8410707116127014
1776442221062892800,25.116892822265626,-0.16964256763458252,0.011825233697891235,1.7110109329223633
1776442221087911000,25.141910888671877,0.19665180146694183,0.04288621246814728,1.4804458618164062
1776442221112928000,25.166927978515623,-0.005250688176602125,0.40730732679367065,1.7836835384368896
1776442221137945900,25.19194580078125,0.167816162109375,0.363578200340271,2.144904136657715
1776442221162963000,25.216962890625,0.3789752721786499,0.0743464007973671,2.1079957485198975
1776442221187980800,25.241980712890626,0.33837831020355225,0.3808458745479584,1.5508058071136475
1776442221212998000,25.266997802734377,0.24937361478805542,0.56949782371521,0.824053168296814
1776442221238016000,25.29201611328125,0.06660406291484833,0.18110214173793793,-0.027781030163168907
1776442221263032800,25.31703271484375,-0.19208501279354095,0.2596084177494049,-0.5408422350883484
1776442221288051000,25.342051025390624,0.07810598611831665,0.6626181602478027,-0.8647534251213074
1776442221313068000,25.367068115234375,0.1418657898902893,0.539602518081665,-0.6307491660118103
1776442221338086000,25.3920859375,0.14521871507167816,0.1152576133608818,-0.3990193009376526
1776442221363103000,25.41710302734375,0.3165920674800873,0.1434655487537384,-0.22796791791915894
1776442221388120800,25.442120849609374,-0.1448405385017395,0.17247402667999268,-0.12498641014099121
1776442221413138000,25.467137939453124,-0.433994323015213,0.14437955617904663,-0.39872074127197266
1776442221438155000,25.492155029296875,-0.26059991121292114,0.46289628744125366,-0.5426614284515381
1776442221463172900,25.5171728515625,0.1509530246257782,0.5017642974853516,-0.1696161925792694
1776442221488190000,25.54218994140625,0.17526769638061523,0.13850568234920502,0.07442336529493332
1776442221513207800,25.567207763671874,-0.23899100720882416,0.3763914704322815,0.09344472736120224
1776442221538225000,25.592224853515624,-0.5595043301582336,0.36174115538597107,0.35518020391464233
1776442221563243000,25.617242919921875,-0.4803503751754761,0.6239948868751526,0.4372769296169281
1776442221588259800,25.642259765625,0.10659515112638474,0.9396796226501465,0.32055163383483887
1776442221613278000,25.66727783203125,0.20523038506507874,0.5564613938331604,0.8243839144706726
1776442221638295000,25.692294921875,0.026822026818990707,0.3632572889328003,1.0369858741760254
1776442221663313000,25.71731298828125,0.255125492811203,0.8078211545944214,0.9721230268478394
1776442221688330000,25.742330078125,0.38749605417251587,0.8076563477516174,0.9193024039268494
1776442221713347000,25.76734716796875,0.5470500588417053,0.5243498086929321,1.0452492237091064
1776442221738365000,25.792364990234375,0.749127209186554,-0.04310166463255882,0.9079078435897827
1776442221763382000,25.817382080078126,0.7797687649726868,-0.21396209299564362,0.8319366574287415
1776442221788399900,25.84239990234375,0.9380888938903809,-0.17904165387153625,0.755992591381073
1776442221813417000,25.8674169921875,0.7510756254196167,-0.4874785840511322,0.3715549111366272
1776442221838434800,25.892434814453125,-0.19956530630588531,-0.5018132925033569,0.032110266387462616
1776442221863452000,25.917451904296875,-0.5171981453895569,-0.47346022725105286,-0.055743955075740814
1776442221888470000,25.942469970703126,-0.3634304106235504,-1.0043153762817383,0.29475146532058716
1776442221913486800,25.96748681640625,0.22784434258937836,-1.022737741470337,0.3551162779331207
1776442221938505000,25.9925048828125,0.3808898329734802,-1.0629892349243164,0.006624612957239151
1776442221963522000,26.01752197265625,0.21011754870414734,-0.9704947471618652,-0.22226263582706451
1776442221988538600,26.04253857421875,0.2859657108783722,-0.4485706090927124,0.26410940289497375
1776442222013556700,26.067556640625,0.13623453676700592,-0.7480619549751282,0.956531822681427
1776442222038573800,26.09257373046875,-0.05347201228141785,-0.3892880976200104,0.6798791885375977
1776442222063591700,26.117591796875,-0.04031946137547493,-0.07020412385463715,0.47772449254989624
1776442222088608800,26.14260888671875,0.07674351334571838,-0.9527480006217957,0.7839656472206116
1776442222113626600,26.167626708984375,0.39329031109809875,-1.2829786539077759,1.0646181106567383
1776442222138643700,26.192643798828126,0.8698001503944397,-1.5066237449645996,1.6214851140975952
1776442222163661800,26.217661865234376,0.7156997919082642,-1.2813082933425903,1.924121379852295
1776442222188678700,26.2426787109375,0.29710543155670166,-0.20431238412857056,1.8644548654556274
1776442222213696800,26.26769677734375,0.12754970788955688,0.9393022060394287,1.7750937938690186
1776442222238713900,26.2927138671875,0.2964191436767578,1.3123855590820312,1.861590027809143
1776442222263731700,26.317731689453126,0.312613308429718,0.6139249205589294,1.928833246231079
1776442222288748800,26.342748779296876,0.12100818008184433,-0.12159540504217148,1.9275269508361816
1776442222313766000,26.367765869140626,-0.08088632673025131,0.21340841054916382,2.069350004196167
1776442222338783700,26.39278369140625,-0.00012916330888401717,1.048071026802063,1.8463493585586548
1776442222363800800,26.41780078125,0.15212801098823547,0.7494609355926514,1.9417834281921387
1776442222388818700,26.442818603515626,0.14292892813682556,0.562612771987915,2.0942795276641846
1776442222413835800,26.467835693359376,0.1902035027742386,0.7792201638221741,2.1685917377471924
1776442222438853600,26.492853515625,0.23497842252254486,0.431234747171402,2.28810453414917
1776442222463870700,26.51787060546875,0.052750296890735626,-0.6310466527938843,2.3751838207244873
1776442222488888800,26.542888916015624,0.04729986935853958,-0.7631546258926392,2.474635124206543
1776442222513905700,26.56790576171875,0.0939086526632309,-0.6203300952911377,2.463749647140503
1776442222538923800,26.592923828125,0.2723225951194763,-0.604383647441864,2.4908366203308105
1776442222563940900,26.61794091796875,0.23903335630893707,-0.15862026810646057,2.595323085784912
1776442222588957700,26.642957763671873,0.12262285500764847,0.5350173115730286,2.2916340827941895
1776442222613975800,26.667975830078124,0.3071751296520233,1.6001135110855103,1.7513810396194458
1776442222638993000,26.692992919921874,0.5736004114151001,2.59647536277771,1.518871545791626
1776442222664010800,26.7180107421875,0.6588798761367798,2.5834999084472656,1.536100149154663
1776442222689027800,26.74302783203125,0.7660045027732849,1.6360222101211548,1.9429994821548462
1776442222714045700,26.768045654296873,0.6504762768745422,0.28386154770851135,2.264845371246338
1776442222739062800,26.793062744140624,0.39891675114631653,-0.4058191478252411,1.4781394004821777
1776442222764080600,26.81808056640625,0.3419536054134369,-0.7758523225784302,0.5215606689453125
1776442222789097700,26.84309765625,0.3741280436515808,-0.35770726203918457,0.03470178693532944
1776442222814115800,26.86811572265625,0.3288857340812683,0.1669652909040451,-0.44381311535835266
1776442222839132700,26.893132568359373,0.24200011789798737,0.034031204879283905,-0.38288506865501404
1776442222864150800,26.91815087890625,0.14816762506961823,-0.8657070994377136,-0.08643369376659393
1776442222889168000,26.94316796875,0.03315236046910286,-0.951686441898346,-0.10916643589735031
1776442222914184700,26.968184814453124,-0.10378791391849518,-0.4171524941921234,-0.18588145077228546
1776442222939202800,26.993202880859375,-0.056829459965229034,-0.48581862449645996,-0.25221705436706543
1776442222964220000,27.018219970703125,-0.09713347256183624,-0.7897343039512634,-0.15440049767494202
1776442222989241600,27.04324169921875,-0.1359165608882904,-1.4390382766723633,0.1059274971485138
1776442223014258700,27.0682587890625,-0.173023983836174,-1.2833470106124878,0.2659808099269867
1776442223039276500,27.093276611328125,-0.032336633652448654,-0.583168089389801,0.24772165715694427
1776442223064293600,27.118293701171876,0.017594439908862114,-0.4321807026863098,0.17210625112056732
1776442223089311500,27.1433115234375,0.05005437880754471,-0.8109690546989441,0.12353046238422394
1776442223114328600,27.16832861328125,-0.03374224901199341,-1.1817710399627686,0.42691510915756226
1776442223139346700,27.1933466796875,0.22177420556545258,-0.4497101604938507,0.8762463331222534
1776442223164363500,27.218363525390625,0.6646232604980469,2.2277228832244873,1.3241647481918335
1776442223189380600,27.243380615234376,0.07417622953653336,1.6010754108428955,1.2628870010375977
1776442223214398700,27.268398681640626,0.336897611618042,0.14367620646953583,1.4357974529266357
1776442223239415600,27.29341552734375,0.33042317628860474,1.0634068250656128,0.771980881690979
1776442223264433700,27.31843359375,0.47386130690574646,0.6122156977653503,0.7208734750747681
1776442223289450800,27.34345068359375,0.2786060571670532,0.17716385424137115,0.641830325126648
1776442223314468600,27.368468505859376,0.06634040921926498,0.15341459214687347,0.6540851593017578
1776442223339485700,27.393485595703126,0.08515750616788864,0.16029326617717743,0.7077928185462952
1776442223364503600,27.418503662109377,0.16445578634738922,0.287326842546463,0.8564198613166809
1776442223389520600,27.443520751953123,0.1339639276266098,-0.0879674032330513,1.1869194507598877
1776442223414538500,27.46853857421875,0.001734250457957387,0.12043453752994537,1.2496353387832642
1776442223439555600,27.4935556640625,-0.16817915439605713,-0.009927731938660145,1.254501461982727
1776442223464573700,27.51857373046875,-0.5038799047470093,-0.6885941028594971,1.5324212312698364
1776442223489590500,27.543590576171876,-0.6268545985221863,-0.2729255259037018,1.8385326862335205
1776442223514607600,27.568607666015627,-0.5622193813323975,-0.270215779542923,2.164156436920166
1776442223539625700,27.593625732421874,-0.23364044725894928,0.2860274910926819,2.2909762859344482
1776442223564642600,27.618642578125,-0.07745404541492462,0.763981819152832,2.2661855220794678
1776442223589660700,27.64366064453125,-0.1689077913761139,0.7750778794288635,2.389317750930786
1776442223614677800,27.668677734375,-0.16187039017677307,-0.09481093287467957,2.4414196014404297
1776442223639695600,27.693695556640623,-0.7367613911628723,-0.9631944894790649,2.0879907608032227
1776442223664712700,27.718712646484374,-1.3556499481201172,-0.9747225642204285,1.6385763883590698
1776442223689730600,27.74373046875,-1.3757264614105225,-0.5424616932868958,1.495470404624939
1776442223714747600,27.76874755859375,-0.8354290723800659,-0.32024484872817993,1.6344943046569824
1776442223739765800,27.793765869140625,-0.2098219394683838,-0.32642310857772827,1.627925157546997
1776442223764782600,27.818782470703123,-0.05971100181341171,-0.5525065660476685,1.556372880935669
1776442223789800700,27.84380078125,-0.4245121479034424,-0.4551297128200531,1.6152598857879639
1776442223814817800,27.86881787109375,-0.5158183574676514,-0.34324097633361816,1.727250099182129
1776442223839834600,27.893834716796874,-0.08780469000339508,-0.8778676390647888,1.795841097831726
1776442223864852700,27.918852783203125,0.09337522089481354,-0.7870820760726929,1.6663182973861694
1776442223889869600,27.94386962890625,0.2342790812253952,-0.6032126545906067,1.6312059164047241
1776442223914887700,27.9688876953125,0.4685874581336975,-0.30216145515441895,1.7885230779647827
1776442223939904800,27.99390478515625,0.5408954620361328,-0.2649206221103668,1.5818191766738892
1776442223964922600,28.018922607421874,0.33147698640823364,-0.6629065871238708,1.2408192157745361
1776442223989936400,28.043936279296876,0.025584189221262932,-0.7167046070098877,0.9664057493209839
1776442224014954500,28.06895458984375,-0.3034277856349945,-0.037217408418655396,0.9076931476593018
1776442224039971300,28.093971435546877,-0.3350786566734314,-0.060139235109090805,1.574282169342041
1776442224064989400,28.118989501953124,0.10103979706764221,-0.46468380093574524,1.4177026748657227
1776442224090006300,28.14400634765625,0.16175614297389984,-0.8592023253440857,0.8128132820129395
1776442224115024600,28.169024658203124,0.2958705425262451,-0.9053988456726074,0.44186049699783325
1776442224140041500,28.19404150390625,0.04482020065188408,-0.30950087308883667,0.09855293482542038
1776442224165058300,28.219058349609377,-0.4134616255760193,0.12281513214111328,0.6297203898429871
1776442224190076400,28.244076416015623,-0.7036279439926147,0.39559927582740784,0.7716514468193054
1776442224215093200,28.26909326171875,-0.6946634650230408,0.4736413359642029,0.7733984589576721
1776442224240111400,28.294111328125,-0.24214285612106323,0.33257076144218445,1.0964076519012451
1776442224265128400,28.31912841796875,0.08497374504804611,0.17946083843708038,1.2439262866973877
1776442224290146300,28.344146240234377,0.10447287559509277,0.17858518660068512,1.4679205417633057
1776442224315163400,28.369163330078123,0.11518251150846481,0.26688283681869507,1.686602234840393
1776442224340181200,28.39418115234375,0.07347501814365387,0.2902302145957947,1.827012062072754
1776442224365198300,28.4191982421875,-0.18579116463661194,-0.08075476437807083,1.8146470785140991
1776442224390216400,28.444216552734375,-0.23765569925308228,-0.05113056302070618,1.5160952806472778
1776442224415233300,28.4692333984375,0.02882072888314724,0.10654614865779877,1.0272678136825562
1776442224440250400,28.49425048828125,0.4245603382587433,0.26490676403045654,0.7799738049507141
1776442224465268500,28.5192685546875,0.8004604578018188,0.28237098455429077,0.42074429988861084
1776442224490285300,28.544285400390624,0.55680251121521,0.621129035949707,-1.175903081893921
1776442224515303400,28.569303466796875,0.3374488651752472,0.34902244806289673,-1.0608034133911133
1776442224540320500,28.594320556640625,0.5262027978897095,-0.08590824902057648,-0.323746919631958
1776442224565338400,28.61933837890625,0.5435972213745117,0.15205290913581848,0.9824180006980896
1776442224590355500,28.64435546875,0.5772428512573242,-0.01883893460035324,1.2516851425170898
1776442224615373300,28.669373291015624,0.7053970694541931,-0.15280872583389282,0.7384556531906128
1776442224640390400,28.694390380859375,0.34216079115867615,-0.07419060915708542,0.5784772038459778
1776442224665408300,28.719408203125,-0.16508829593658447,0.03489699587225914,0.9725555181503296
1776442224690425300,28.74442529296875,-0.5249804258346558,0.6185010671615601,1.2870268821716309
1776442224715443500,28.769443359375,-0.4809964597225189,0.6346496343612671,0.8993859887123108
1776442224740460300,28.794460205078124,-0.44063836336135864,1.5228633880615234,0.3526230454444885
1776442224765477400,28.819477294921874,-0.6074731945991516,2.033500909805298,0.7163708806037903
1776442224790495500,28.84449560546875,-0.5306140780448914,1.292669653892517,1.2494579553604126
1776442224815512300,28.86951220703125,-0.47920042276382446,0.8903874158859253,1.4198057651519775
1776442224840530400,28.894530517578126,-0.1482376754283905,0.5849433541297913,1.6299943923950195
1776442224865547500,28.919547607421876,0.06927601248025894,0.7406080365180969,1.6756832599639893
1776442224890565400,28.9445654296875,0.04686577618122101,1.1106183528900146,1.8065135478973389
1776442224915582500,28.96958251953125,0.2568190097808838,1.69376802444458,1.929734468460083
1776442224940600300,28.994600341796875,0.4067765474319458,1.7600882053375244,1.5400503873825073
1776442224965617400,29.019617431640626,0.5997747778892517,0.9063922166824341,0.8422784805297852
1776442224990635300,29.04463525390625,0.7055906653404236,0.21575839817523956,0.7627295851707458
1776442225015652000,29.069652099609375,0.6613560914993286,0.12003079801797867,1.205784559249878
1776442225040669200,29.094669189453125,0.392904132604599,0.45152297616004944,1.5817914009094238
1776442225065687300,29.119687255859375,0.16928435862064362,0.550221860408783,1.5463095903396606
1776442225090704100,29.1447041015625,0.3241730034351349,0.17803364992141724,1.392431378364563
1776442225115722200,29.16972216796875,0.5403087735176086,0.11334333568811417,1.292539358139038
1776442225140739300,29.1947392578125,0.7969717383384705,0.10620659589767456,1.1404143571853638
1776442225165757200,29.219757080078125,0.9778070449829102,-0.3980448544025421,1.0651494264602661
1776442225190774300,29.244774169921875,1.0557372570037842,-0.30302566289901733,1.1565083265304565
1776442225215792000,29.269792236328126,1.1540353298187256,-0.012872123159468174,1.3194445371627808
1776442225240809200,29.294809326171876,1.28976309299469,-0.21417275071144104,1.3767181634902954
1776442225265827000,29.3198271484375,1.1967664957046509,-0.23199808597564697,1.5961322784423828
1776442225290844200,29.34484423828125,0.9250127673149109,-0.04536588490009308,2.019958734512329
1776442225315862300,29.3698623046875,0.6607438325881958,0.010854511521756649,2.226496696472168
1776442225340879000,29.394879150390626,0.4435103237628937,-0.11076779663562775,1.980019211769104
1776442225365897200,29.419897216796876,0.47720518708229065,-0.28418779373168945,1.5872482061386108
1776442225390914300,29.444914306640626,0.5398997068405151,-0.21803858876228333,1.5599673986434937
1776442225415931100,29.46993115234375,0.5255149006843567,-0.017676465213298798,1.5449458360671997
1776442225440949200,29.49494921875,0.445954829454422,0.013940849341452122,1.4373102188110352
1776442225465966300,29.51996630859375,0.5958207845687866,-0.12975665926933289,1.558019757270813
1776442225490984200,29.544984130859376,0.49478602409362793,-0.18138469755649567,1.6273720264434814
1776442225516001300,29.570001220703126,0.2938358783721924,-0.1993599832057953,1.8681657314300537
1776442225541019100,29.59501904296875,-0.017363278195261955,0.11594258248806,2.0390284061431885
1776442225566036200,29.6200361328125,-0.2219688892364502,0.051957208663225174,2.039018154144287
1776442225591054000,29.64505419921875,-0.32706841826438904,-0.1642344743013382,1.8569998741149902
1776442225616071200,29.6700712890625,-0.5592284202575684,-0.340149849653244,1.7387752532958984
1776442225641089300,29.69508935546875,-0.7295535206794739,-0.17599952220916748,1.9294764995574951
1776442225666106000,29.720106201171873,-0.5789254307746887,-0.2927703559398651,2.133039951324463
1776442225691123200,29.745123291015624,-0.337162584066391,-0.4659040570259094,1.9856209754943848
1776442225716141300,29.770141357421874,-0.17487381398677826,-0.6163553595542908,1.8414884805679321
1776442225741158100,29.795158203125,0.01792573742568493,-0.7296563386917114,1.8091007471084595
1776442225766176300,29.82017626953125,-0.03640461340546608,-0.7812761068344116,1.8638968467712402
1776442225791193300,29.845193359375,-0.12537896633148193,-0.5588206648826599,1.7399235963821411
1776442225816211200,29.870211181640624,-0.1877557784318924,-0.3174179196357727,1.551114797592163
1776442225841228300,29.895228271484374,-0.05741562321782112,-0.22756923735141754,1.2572522163391113
1776442225866246100,29.92024609375,0.5400805473327637,-0.5642396807670593,1.1890537738800049
1776442225891263200,29.94526318359375,0.9504984021186829,-0.4823184311389923,1.0972479581832886
1776442225916280000,29.970280029296877,0.7728445529937744,-0.2530035078525543,0.8107759356498718
1776442225941298200,29.995298095703124,0.5262722969055176,-0.02106453850865364,1.0342921018600464
1776442225966315000,30.02031494140625,0.12341780960559845,0.32944101095199585,1.6092675924301147
1776442225991332900,30.045332763671876,-0.4567078948020935,0.3269365727901459,2.4958548545837402
1776442226016349700,30.070349609375,-0.4081629812717438,0.44425201416015625,3.2365732192993164
1776442226041367800,30.095367919921873,-0.2658897340297699,0.5577948093414307,3.7964253425598145
1776442226066385000,30.120385009765624,0.08271218836307526,0.7589154243469238,3.856407642364502
1776442226091402800,30.14540283203125,0.6302477121353149,0.7297660708427429,3.762815237045288
1776442226116419800,30.170419921875,1.0655243396759033,0.6238539814949036,3.786510467529297
1776442226141437700,30.195437744140627,1.2559994459152222,0.3317963182926178,3.9120333194732666
1776442226166454800,30.220454833984373,1.2855749130249023,-0.10817494243383408,3.711714506149292
1776442226191471900,30.245471923828124,1.332789659500122,-0.006327138282358646,3.2706477642059326
1776442226216489700,30.27048974609375,1.3477864265441895,-0.017431454733014107,3.0401036739349365
1776442226241506800,30.2955068359375,1.4281244277954102,-0.003605653764680028,3.296663999557495
1776442226266524700,30.320524658203126,1.232823371887207,-0.30123040080070496,3.2670843601226807
1776442226291541800,30.345541748046877,0.8570364117622375,-0.013680125586688519,2.949246406555176
1776442226316560000,30.370559814453124,0.6589347720146179,0.28985631465911865,2.681196451187134
1776442226341576700,30.39557666015625,0.694577157497406,-0.006910636555403471,2.4490745067596436
1776442226366594800,30.4205947265625,0.6091115474700928,0.006563093978911638,2.1423280239105225
1776442226391612000,30.44561181640625,0.562545120716095,0.10284462571144104,2.004389524459839
1776442226416629800,30.470629638671873,0.7400708794593811,0.15001480281352997,2.0467689037323
1776442226441646800,30.495646728515624,0.6186344623565674,0.4072308838367462,1.9592335224151611
1776442226466664700,30.520664794921874,0.2959698736667633,0.1887235790491104,1.6870635747909546
1776442226491681800,30.545681884765624,0.11635004729032516,-0.046780288219451904,1.113280177116394
1776442226516698600,30.57069873046875,0.6452890038490295,0.1888253092765808,1.3439056873321533
1776442226541716700,30.595716796875,0.8873549103736877,0.6540923118591309,1.7128472328186035
1776442226566733600,30.620733642578124,0.6103083491325378,0.6030381917953491,2.4855010509490967
1776442226591752000,30.645751953125,0.5723063945770264,0.6039159893989563,2.6283833980560303
1776442226616768500,30.6707685546875,0.5905530452728271,0.6021233797073364,2.122807264328003
1776442226641787000,30.695786865234375,0.6247826218605042,0.5420422554016113,1.4779601097106934
1776442226666803700,30.7208037109375,0.7261854410171509,0.7636936902999878,1.2709635496139526
1776442226691821800,30.74582177734375,0.08569066971540451,-0.34206917881965637,1.096909999847412
1776442226716838700,30.770838623046874,-0.47790026664733887,-0.816806435585022,0.7075076103210449
1776442226741855700,30.795855712890624,0.038965776562690735,-0.20740778744220734,0.2998461127281189
1776442226766873600,30.82087353515625,1.0270416736602783,0.5719436407089233,-0.10791022330522537
1776442226791890700,30.845890625,1.1049293279647827,0.651609480381012,0.2054482251405716
1776442226816908500,30.870908447265624,0.6379032135009766,-0.28775349259376526,1.0573841333389282
1776442226841925600,30.895925537109374,0.27087944746017456,-0.12110991030931473,0.6380659341812134
1776442226866943500,30.920943603515624,0.9572181105613708,-0.35910943150520325,0.13712190091609955
1776442226891960600,30.945960693359375,1.5267419815063477,-0.42094215750694275,-0.03642645105719566
1776442226916978700,30.970978759765625,1.115761160850525,-0.2205004096031189,0.06700699776411057
1776442226941995500,30.99599560546875,0.3042243421077728,-0.19289489090442657,0.42623066902160645
1776442226967013600,31.021013671875,-0.005910353269428015,-0.6290168166160583,0.9717528820037842
1776442226992031000,31.046031005859376,0.07117058336734772,-0.03958336263895035,1.83073890209198
1776442227017048800,31.071048828125,0.3349042236804962,0.11335771530866623,1.9472277164459229
