time,seconds_elapsed,z,y,x
1776442196036807000,0.090806884765625,-0.12127196043729782,0.21380658447742462,-0.25010964274406433
1776442196061823700,0.11582373046875,-0.14720572531223297,-0.00040209293365478516,-0.07959693670272827
1776442196086840800,0.1408408203125,-0.06918595731258392,-0.2528594732284546,-0.12429706007242203
1776442196111857700,0.165857666015625,0.08137005567550659,-0.18318264186382294,-0.21968382596969604
1776442196136875800,0.190875732421875,0.22246645390987396,0.13302814960479736,-0.3016405403614044
1776442196161892600,0.215892578125,0.2440643161535263,0.3473849892616272,-0.29217952489852905
1776442196186909700,0.24090966796875,0.09694192558526993,0.304843932390213,-0.21718938648700714
1776442196211926800,0.2659267578125,-0.024239476770162582,0.24902303516864777,-0.24318449199199677
1776442196236943600,0.290943603515625,-0.003851203015074134,0.16205771267414093,-0.2672335207462311
1776442196261960700,0.315960693359375,0.032470084726810455,0.07474028319120407,-0.21344228088855743
1776442196286977800,0.340977783203125,-0.01704062893986702,0.15420611202716827,-0.24783344566822052
1776442196311995000,0.365994873046875,-0.04479586333036423,0.2705399990081787,-0.32813408970832825
1776442196337011700,0.39101171875,-0.035221755504608154,0.24908588826656342,-0.35699793696403503
1776442196362028800,0.41602880859375,0.000032320582249667495,0.3015817105770111,-0.3546631336212158
1776442196387046000,0.4410458984375,0.054046716541051865,0.2997666597366333,-0.3156288266181946
1776442196412063700,0.466063720703125,0.04154647886753082,0.22276587784290314,-0.173446387052536
1776442196437080800,0.491080810546875,0.0003689441364258528,0.195510134100914,-0.09209328144788742
1776442196462097700,0.51609765625,-0.03546532243490219,0.23051299154758453,-0.1577940285205841
1776442196487114800,0.54111474609375,-0.030274881049990654,0.27375730872154236,-0.191207155585289
1776442196512131600,0.566131591796875,0.02230912074446678,0.2943001985549927,-0.22162577509880066
1776442196537148700,0.591148681640625,0.03319256752729416,0.25589823722839355,-0.27517151832580566
1776442196562165800,0.616165771484375,-0.07633904367685318,0.21111366152763367,-0.2874132990837097
1776442196587182800,0.641182861328125,-0.23096734285354614,0.3155515789985657,-0.2552875280380249
1776442196612199700,0.66619970703125,-0.280272901058197,0.7718977928161621,-0.25163355469703674
1776442196637216800,0.691216796875,-0.1835445910692215,1.0118874311447144,-0.4429723620414734
1776442196662235000,0.71623486328125,0.036954812705516815,1.0610196590423584,-0.663878321647644
1776442196687251700,0.741251708984375,0.5075067281723022,0.9466342329978943,-0.9171195030212402
1776442196712268800,0.766268798828125,1.1028928756713867,0.6961942315101624,-1.1252892017364502
1776442196737286000,0.791285888671875,1.546973705291748,0.6056388020515442,-1.2939521074295044
1776442196762302700,0.816302734375,2.095932960510254,1.1501057147979736,-1.138524055480957
1776442196787319600,0.841319580078125,2.3350327014923096,0.7019930481910706,-0.6652492880821228
1776442196812336600,0.866336669921875,1.927225112915039,0.13072466850280762,-0.10428603738546371
1776442196837353700,0.891353759765625,1.4723820686340332,0.050117798149585724,0.3680480718612671
1776442196862370800,0.916370849609375,1.4607542753219604,-0.10162006318569183,0.31017473340034485
1776442196887388700,0.941388671875,1.561896562576294,0.11489483714103699,-0.3447391986846924
1776442196912405800,0.96640576171875,1.360333800315857,0.3756731450557709,-0.9358519315719604
1776442196937422800,0.9914228515625,1.1129882335662842,0.06965002417564392,-0.8087552189826965
1776442196962439400,1.016439453125,1.0970571041107178,-0.33785971999168396,-0.2048702985048294
1776442196987456300,1.041456298828125,1.147136926651001,-0.09137822687625885,-0.08442304283380508
1776442197012473300,1.066473388671875,1.2128180265426636,0.038097135722637177,-0.22501391172409058
1776442197037490400,1.091490478515625,1.103049635887146,0.10791410505771637,-0.13945673406124115
1776442197062507300,1.11650732421875,0.9607322216033936,0.024505525827407837,0.008229495026171207
1776442197087525400,1.141525390625,0.7746382355690002,-0.11685546487569809,0.1461828052997589
1776442197112542200,1.166542236328125,0.7128279805183411,0.18181471526622772,0.19887380301952362
1776442197137559300,1.191559326171875,0.6203604340553284,0.5344694256782532,0.05157756805419922
1776442197162576100,1.216576171875,0.7472404837608337,0.38007256388664246,0.13654585182666779
1776442197187593200,1.24159326171875,0.8142926096916199,0.2159479409456253,0.27034687995910645
1776442197212610300,1.2666103515625,0.8302743434906006,0.3884997069835663,0.21247553825378418
1776442197237627400,1.29162744140625,0.7441086173057556,0.5344677567481995,0.15115492045879364
1776442197262644200,1.316644287109375,0.6736829280853271,0.3739556074142456,0.12811921536922455
1776442197287661300,1.341661376953125,0.6160898208618164,0.3382984399795532,0.05078071728348732
1776442197312679200,1.36667919921875,0.2807771563529968,0.4033603072166443,-0.06181091070175171
1776442197337696300,1.3916962890625,0.011908582411706448,0.47043564915657043,-0.03189269080758095
1776442197362713300,1.41671337890625,0.2291724681854248,0.3201269209384918,0.20801624655723572
1776442197387730400,1.44173046875,0.6141872406005859,0.22980783879756927,0.33543798327445984
1776442197412747300,1.466747314453125,1.2000309228897095,0.3021754324436188,0.09366456419229507
1776442197437764000,1.49176416015625,1.40042245388031,0.22886919975280762,-0.3043977916240692
1776442197462781200,1.51678125,1.5269509553909302,0.22452625632286072,-0.4787808060646057
1776442197487798300,1.54179833984375,1.6882331371307373,0.12050717324018478,-0.6774262189865112
1776442197512816000,1.566816162109375,1.7769783735275269,0.18260838091373444,-0.9891017079353333
1776442197537833200,1.591833251953125,1.7217121124267578,0.12086346745491028,-1.2333353757858276
1776442197562850300,1.616850341796875,1.1708210706710815,0.18600264191627502,-1.3210344314575195
1776442197587867100,1.6418671875,0.23349758982658386,0.14040254056453705,-1.0435189008712769
1776442197612884200,1.66688427734375,-0.14384537935256958,0.1927986890077591,-0.6114534735679626
1776442197637901300,1.6919013671875,0.3190900683403015,0.11696930229663849,-0.11003779619932175
1776442197662918400,1.71691845703125,1.01866614818573,0.05945037305355072,0.10765814781188965
1776442197687935200,1.741935302734375,1.1384494304656982,-0.061010200530290604,-0.24175673723220825
1776442197712953300,1.766953369140625,0.840975284576416,-0.05724918469786644,-0.7702000141143799
1776442197737970400,1.791970458984375,0.814863920211792,-0.013954028487205505,-0.8767640590667725
1776442197762987300,1.8169873046875,0.9389823079109192,-0.1760450303554535,-0.8040990233421326
1776442197788004000,1.842004150390625,0.943766176700592,-0.2384052276611328,-0.7703726291656494
1776442197813021200,1.867021240234375,0.7472987771034241,-0.1693839728832245,-0.7768490314483643
1776442197838038300,1.892038330078125,0.5918164253234863,-0.2233114391565323,-0.7088087797164917
1776442197863055000,1.91705517578125,0.643912672996521,-0.27442410588264465,-0.5107824802398682
1776442197888073200,1.9420732421875,0.6783837676048279,-0.1779998391866684,-0.4441083073616028
1776442197913090300,1.96709033203125,0.8178035020828247,-0.2079324573278427,-0.38342517614364624
1776442197938107100,1.992107177734375,1.1087331771850586,-0.37589818239212036,-0.049964070320129395
1776442197963124200,2.017124267578125,1.2847473621368408,-0.39438003301620483,0.20613275468349457
1776442197988141300,2.042141357421875,1.5381797552108765,-0.34792572259902954,0.2599167227745056
1776442198013158400,2.067158447265625,1.5553364753723145,-0.3925640881061554,0.185049906373024
1776442198038175200,2.09217529296875,1.32590913772583,-0.3821544647216797,-0.039494551718235016
1776442198063192300,2.1171923828125,1.354941725730896,-0.31892937421798706,-0.2503206729888916
1776442198088210400,2.14221044921875,1.2353572845458984,-0.207196444272995,-0.13751555979251862
1776442198113227300,2.167227294921875,1.124959111213684,-0.27782583236694336,0.07449419796466827
1776442198138244000,2.192244140625,1.1296299695968628,-0.27771085500717163,0.2594255805015564
1776442198163261200,2.21726123046875,1.1550378799438477,-0.2284240871667862,0.36037158966064453
1776442198188278300,2.2422783203125,1.0065826177597046,-0.11509783565998077,0.26897528767585754
1776442198213295000,2.267295166015625,0.7592797875404358,-0.21236836910247803,0.11743275076150894
1776442198238312200,2.292312255859375,0.5228036046028137,-0.24284948408603668,-0.003352060215547681
1776442198263330300,2.317330322265625,0.24872592091560364,0.08438830822706223,-0.29132089018821716
1776442198288347100,2.34234716796875,0.614018976688385,0.3179376721382141,-0.4184764623641968
1776442198313364200,2.3673642578125,0.6305391192436218,0.11996244639158249,-0.32125380635261536
1776442198338381300,2.39238134765625,0.14804767072200775,-0.053431104868650436,-0.42637041211128235
1776442198363398400,2.4173984375,-0.0014201727462932467,-0.0011465409770607948,-0.7601167559623718
1776442198388415200,2.442415283203125,0.11632326245307922,0.08931145817041397,-0.9501891732215881
1776442198413432300,2.467432373046875,0.27047300338745117,0.25539979338645935,-0.8721868395805359
1776442198438449200,2.49244921875,0.38467028737068176,0.3764159381389618,-0.7593145966529846
1776442198463467300,2.51746728515625,0.43497413396835327,0.48667725920677185,-0.5047042369842529
1776442198488484000,2.542484130859375,0.44290149211883545,-0.04778077453374863,-0.2369970679283142
1776442198513501200,2.567501220703125,0.2481188178062439,-0.08472692221403122,-0.04749136045575142
1776442198538518300,2.592518310546875,0.15192964673042297,-0.05309028923511505,0.16345110535621643
1776442198563535000,2.61753515625,0.20594356954097748,0.04872573912143707,0.21212993562221527
1776442198588552200,2.64255224609375,0.2975689470767975,0.13727827370166779,-0.021945053711533546
1776442198613569300,2.6675693359375,0.12506744265556335,0.12407761067152023,-0.12352747470140457
1776442198638587100,2.692587158203125,0.1346919685602188,0.05862094461917877,-0.1453472524881363
1776442198663604200,2.717604248046875,0.4301132261753082,0.07071995735168457,-0.0726458802819252
1776442198688621300,2.742621337890625,0.6942569017410278,0.09048883616924286,-0.001937722321599722
1776442198713638400,2.767638427734375,0.6851584315299988,0.19361931085586548,-0.0981808677315712
1776442198738655200,2.7926552734375,0.63338303565979,0.18109415471553802,-0.21714463829994202
1776442198763672300,2.81767236328125,0.7315006256103516,0.18411612510681152,-0.29804009199142456
1776442198788689200,2.842689208984375,0.8400877714157104,0.12178023904561996,-0.07451435923576355
1776442198813707300,2.867707275390625,0.9487444758415222,0.09931532293558121,0.40240922570228577
1776442198838724000,2.89272412109375,1.060010313987732,0.22633790969848633,0.652818500995636
1776442198863741200,2.9177412109375,1.2593481540679932,0.3904708921909332,0.4511764645576477
1776442198888758300,2.94275830078125,1.448307991027832,0.44650334119796753,0.226454496383667
1776442198913775000,2.967775146484375,1.2807608842849731,0.3551729619503021,0.24001605808734894
1776442198938792200,2.992792236328125,1.0642122030258179,0.18369220197200775,0.334302693605423
1776442198963810300,3.017810302734375,0.9995182156562805,0.062196969985961914,0.40607950091362
1776442198988828200,3.042828125,1.153691291809082,0.17594976723194122,0.3899725675582886
1776442199013845200,3.06784521484375,1.3256314992904663,0.3736557960510254,0.3853956162929535
1776442199038862000,3.092862060546875,1.4057135581970215,0.2780480980873108,0.2789687216281891
1776442199063879000,3.11787890625,1.3853356838226318,0.19889628887176514,0.27622556686401367
1776442199088896000,3.14289599609375,1.4168565273284912,0.1604250967502594,0.2902871370315552
1776442199113913000,3.1679130859375,1.771981120109558,0.2538173198699951,0.2139643132686615
1776442199138930200,3.19293017578125,2.0975022315979004,0.3117019832134247,0.17372378706932068
1776442199163948000,3.217947998046875,2.0923469066619873,0.31613048911094666,0.1729002296924591
1776442199188965000,3.242965087890625,2.034651517868042,0.3070908486843109,0.13336610794067383
1776442199213982200,3.267982177734375,1.8328375816345215,0.24973244965076447,-0.026857754215598106
1776442199238999000,3.2929990234375,1.532329797744751,0.23643146455287933,-0.2892605662345886
1776442199264016100,3.31801611328125,1.3370816707611084,0.14636747539043427,-0.5379596948623657
1776442199289033200,3.343033203125,1.146512746810913,0.07973868399858475,-0.6791364550590515
1776442199314051000,3.368051025390625,1.028116226196289,0.059985850006341934,-0.6506208777427673
1776442199339068200,3.393068115234375,0.6913444995880127,0.08688300102949142,-0.3829553425312042
1776442199364085200,3.418085205078125,0.3853239119052887,0.01483831275254488,-0.23412425816059113
1776442199389102000,3.44310205078125,0.6360634565353394,-0.014576523564755917,-0.2262626588344574
1776442199414119000,3.468118896484375,0.9963164925575256,0.016906261444091797,-0.003110913559794426
1776442199439136000,3.493135986328125,1.1382784843444824,-0.04341883212327957,0.17647811770439148
1776442199464153000,3.518153076171875,1.2729076147079468,0.06986788660287857,0.19056734442710876
1776442199489171000,3.5431708984375,1.2585618495941162,-0.025734171271324158,-0.023531600832939148
1776442199514188000,3.56818798828125,1.2793982028961182,-0.0840490534901619,-0.008356343023478985
1776442199539205000,3.593205078125,1.3537200689315796,-0.15819932520389557,0.13729499280452728
1776442199564222200,3.61822216796875,1.2692270278930664,-0.07540842890739441,0.13828955590724945
1776442199589239000,3.643239013671875,1.077713131904602,-0.061992719769477844,-0.04758433997631073
1776442199614256000,3.668256103515625,1.1490601301193237,0.040600210428237915,-0.04609972611069679
1776442199639274200,3.693274169921875,1.2251054048538208,0.17043732106685638,-0.017604699358344078
1776442199664291000,3.718291015625,1.0587553977966309,0.12761998176574707,-0.010891873389482498
1776442199689308200,3.74330810546875,0.7928324341773987,-0.026541728526353836,0.04231901839375496
1776442199714325200,3.7683251953125,0.7334645390510559,-0.1481388360261917,0.2014351338148117
1776442199739342000,3.793342041015625,1.0064208507537842,-0.15059515833854675,0.19149363040924072
1776442199764359000,3.81835888671875,1.1021873950958252,0.06539160758256912,-0.11382327973842621
1776442199789377000,3.843376953125,0.899341344833374,-0.0012997817248106003,-0.30985313653945923
1776442199814394000,3.86839404296875,0.7768195271492004,-0.17572347819805145,-0.12624220550060272
1776442199839411000,3.893410888671875,0.7971790432929993,-0.2443520426750183,-0.056129589676856995
1776442199864428000,3.918427978515625,0.7641791701316833,-0.0588403083384037,0.027953390032052994
1776442199889445000,3.943445068359375,0.7654578685760498,0.06535099446773529,0.1459338665008545
1776442199914462200,3.968462158203125,0.43260109424591064,-0.12713587284088135,0.010738586075603962
1776442199939480000,3.99347998046875,0.2181495726108551,-0.1573646515607834,-0.14003592729568481
1776442199964496100,4.01849609375,0.2130410224199295,-0.03560464456677437,0.003072047606110573
1776442199989513200,4.04351318359375,0.25387534499168396,0.04472290351986885,-0.0349167138338089
1776442200014530300,4.0685302734375,0.32772955298423767,-0.020070070400834084,-0.3032399117946625
1776442200039547100,4.093547119140625,0.28975361585617065,-0.05632045865058899,-0.3721062242984772
1776442200064564200,4.118564208984375,0.2273813784122467,-0.03719339892268181,-0.2952416241168976
1776442200089582000,4.14358203125,0.2687734067440033,-0.04971155524253845,-0.3184613585472107
1776442200114599200,4.16859912109375,0.15134486556053162,-0.07341472059488297,-0.3685545325279236
1776442200139616300,4.1936162109375,0.1109243780374527,-0.04819858446717262,-0.5266661643981934
1776442200164633300,4.21863330078125,0.41989535093307495,-0.002246304415166378,-0.7267061471939087
1776442200189650200,4.243650146484375,0.5541903972625732,-0.010526935569941998,-0.5332884192466736
1776442200214667300,4.268667236328125,0.4787924885749817,-0.03203718736767769,-0.10619242489337921
1776442200239685400,4.293685302734375,0.36103394627571106,-0.0201887097209692,0.1698358952999115
1776442200264702200,4.3187021484375,0.43528687953948975,-0.07928722351789474,-0.02181699126958847
1776442200289719300,4.34371923828125,0.8324955105781555,-0.25335466861724854,-0.3732518255710602
1776442200314736400,4.368736328125,1.1090492010116577,-0.5722139477729797,-0.5044025182723999
1776442200339753200,4.393753173828125,1.111466884613037,-0.5403964519500732,-0.3947252333164215
1776442200364770000,4.41877001953125,1.2210825681686401,-0.5302907824516296,-0.25706595182418823
1776442200389788200,4.4437880859375,1.5465315580368042,-0.7103539705276489,-0.15796661376953125
1776442200414805200,4.46880517578125,2.0863161087036133,-0.8267549276351929,-0.23659488558769226
1776442200439822000,4.493822021484375,2.3162379264831543,-0.7797464728355408,-0.31177619099617004
1776442200464839200,4.518839111328125,2.350764036178589,-0.7451404333114624,-0.21714399755001068
1776442200489856300,4.543856201171875,2.390479564666748,-0.873178243637085,-0.18018479645252228
1776442200514873300,4.568873291015625,2.477282762527466,-0.9700874090194702,-0.29445454478263855
1776442200539891200,4.59389111328125,2.6271305084228516,-0.7450063824653625,-0.06777825951576233
1776442200564908300,4.618908203125,2.885051965713501,-0.6669620871543884,0.11809220910072327
1776442200589925400,4.64392529296875,3.241370439529419,-0.5204014182090759,-0.27019819617271423
1776442200614942200,4.668942138671875,2.9882800579071045,-0.4328584372997284,-0.5750447511672974
1776442200639959300,4.693959228515625,2.6133034229278564,-0.41016972064971924,-0.5007055401802063
1776442200664976400,4.718976318359375,2.583413600921631,-0.26329678297042847,-0.2748512327671051
1776442200689994200,4.743994140625,2.6636033058166504,-0.2103397101163864,-0.15275724232196808
1776442200715011300,4.76901123046875,2.69917631149292,-0.2124267965555191,0.04450853541493416
1776442200740028200,4.794028076171875,2.5585787296295166,-0.17668688297271729,0.4898703992366791
1776442200765045200,4.819045166015625,2.0556259155273438,-0.03608638793230057,0.8129154443740845
1776442200790062000,4.84406201171875,1.7123990058898926,0.146951362490654,0.7639653086662292
1776442200815080200,4.869080078125,1.8860145807266235,-0.11310451477766037,0.5151007175445557
1776442200840097300,4.89409716796875,1.9056425094604492,-0.05620498210191727,0.38646233081817627
1776442200865114000,4.919114013671875,1.832791805267334,0.018931852653622627,0.2840191125869751
1776442200890131200,4.944131103515625,2.06422758102417,-0.013286602683365345,0.2128073275089264
1776442200915148300,4.969148193359375,2.220126152038574,-0.012881739996373653,0.30718252062797546
1776442200940165400,4.994165283203125,2.0164427757263184,0.15379539132118225,0.49214038252830505
1776442200965184500,5.0191845703125,1.8290438652038574,0.16594789922237396,0.5628072619438171
1776442200990201300,5.044201416015625,1.7925283908843994,0.11205235123634338,0.6793588399887085
1776442201015218200,5.06921826171875,1.5769343376159668,0.2162742167711258,0.798018753528595
1776442201040235300,5.0942353515625,1.578115701675415,0.3419560492038727,0.7940887212753296
1776442201065252400,5.11925244140625,1.7512532472610474,0.3900851011276245,0.6425280570983887
1776442201090270200,5.144270263671875,1.547494888305664,0.26558831334114075,0.3699517846107483
1776442201115287300,5.169287353515625,1.3124775886535645,0.29735660552978516,0.11500367522239685
1776442201140304400,5.194304443359375,1.253554105758667,0.3284675180912018,-0.12989036738872528
1776442201165321500,5.219321533203125,1.5563149452209473,0.5752390027046204,-0.42890122532844543
1776442201190338300,5.24433837890625,1.8286863565444946,0.8107849359512329,-0.6896769404411316
1776442201215355400,5.26935546875,1.9210196733474731,0.7492280602455139,-0.6737433671951294
1776442201240373200,5.294373291015625,1.5993878841400146,0.5499176979064941,-0.3260585367679596
1776442201265390300,5.319390380859375,1.270599365234375,0.3056008517742157,0.04016641527414322
1776442201290407400,5.344407470703125,1.2709708213806152,0.25825560092926025,0.16543817520141602
1776442201315424500,5.369424560546875,1.1516247987747192,0.16433028876781464,0.13954919576644897
1776442201340441300,5.39444140625,1.0718671083450317,0.06363760679960251,0.014426199719309807
1776442201365459500,5.41945947265625,1.0157556533813477,0.04499667137861252,-0.11309967190027237
1776442201390476300,5.444476318359375,0.765916109085083,0.034966807812452316,-0.17576903104782104
1776442201415493400,5.469493408203125,0.6749820709228516,0.07731542736291885,-0.21617315709590912
1776442201440510200,5.49451025390625,0.8633109331130981,0.15636996924877167,-0.22729898989200592
1776442201465527300,5.51952734375,1.1229480504989624,0.07965828478336334,-0.2210116684436798
1776442201490545200,5.544545166015625,1.2514023780822754,0.07170815765857697,-0.14235247671604156
1776442201515562200,5.569562255859375,1.1890443563461304,0.0769091323018074,0.009226707741618156
1776442201540579300,5.594579345703125,0.953679621219635,0.060058511793613434,0.10444563627243042
1776442201565596400,5.619596435546875,0.8224613666534424,-0.13997730612754822,0.04705018550157547
1776442201590613200,5.64461328125,0.7747984528541565,-0.31862175464630127,0.01687137596309185
1776442201615631400,5.66963134765625,0.7408860921859741,-0.31717655062675476,-0.00911178719252348
1776442201640648400,5.6946484375,0.6619606018066406,-0.3268718421459198,-0.020245328545570374
1776442201665665300,5.719665283203125,0.5181916356086731,-0.24182723462581635,0.04969550669193268
1776442201690682400,5.744682373046875,0.38250306248664856,-0.13523057103157043,0.13952414691448212
1776442201715699500,5.769699462890625,0.2956680357456207,-0.036764293909072876,0.1017322689294815
1776442201740717300,5.79471728515625,0.5901134610176086,0.009826241061091423,-0.002362040104344487
1776442201765734400,5.819734375,0.9386736750602722,0.11720112711191177,0.01008467935025692
1776442201790751200,5.844751220703125,0.8947666883468628,0.14640024304389954,0.06900637596845627
1776442201815768300,5.869768310546875,0.7701846957206726,0.11830814182758331,0.051010869443416595
1776442201840785200,5.89478515625,1.0215742588043213,-0.009282843209803104,-0.10387245565652847
1776442201865803300,5.91980322265625,1.1403896808624268,-0.011566529981791973,-0.22556570172309875
1776442201890820400,5.9448203125,1.2343872785568237,0.017280040308833122,-0.18982236087322235
1776442201915837200,5.969837158203125,1.5838526487350464,0.06056356057524681,-0.14333084225654602
1776442201940854300,5.994854248046875,1.9614440202713013,0.27337124943733215,-0.08108937740325928
1776442201965870800,6.019870849609375,2.218869209289551,0.604831337928772,-0.09069287031888962
1776442201990889000,6.044888916015625,2.323958396911621,0.5859225988388062,-0.22441072762012482
1776442202015905800,6.06990576171875,2.160364866256714,0.4456023871898651,-0.3526543080806732
1776442202040923000,6.0949228515625,1.7028661966323853,0.18471699953079224,-0.5216571688652039
1776442202065940000,6.11993994140625,1.5668355226516724,0.2021343857049942,-0.5267778038978577
1776442202090956800,6.144956787109375,1.9093388319015503,0.5555731058120728,-0.21790166199207306
1776442202115975000,6.169974853515625,1.9778515100479126,0.8646915555000305,0.060913823544979095
1776442202140992000,6.194991943359375,1.876786708831787,0.6992623209953308,0.4412417709827423
1776442202166008800,6.2200087890625,1.6249597072601318,0.4224099814891815,0.7676374316215515
1776442202191026000,6.24502587890625,1.232324242591858,0.2700316607952118,0.975951075553894
1776442202216044000,6.2700439453125,1.093488097190857,-0.16095319390296936,1.1511375904083252
1776442202241060900,6.295060791015625,1.0923739671707153,-0.036077722907066345,1.565858006477356
1776442202266078000,6.320077880859375,0.8539345860481262,0.07108361274003983,1.92964768409729
1776442202291095000,6.345094970703125,0.4772859215736389,-0.25503450632095337,1.9912683963775635
1776442202316112100,6.370112060546875,0.21624690294265747,-0.17710071802139282,1.659414529800415
1776442202341130000,6.3951298828125,-0.0002388336870353669,-0.13443541526794434,0.6475634574890137
1776442202366147000,6.42014697265625,0.22851115465164185,0.6708921194076538,-0.18356917798519135
1776442202391164200,6.4451640625,0.1864069253206253,0.19376951456069946,-0.5883917808532715
1776442202416180700,6.4701806640625,0.24452711641788483,0.2044380009174347,-0.5746534466743469
1776442202441199000,6.49519921875,0.29640889167785645,0.3530209958553314,-0.4030228853225708
1776442202466216000,6.5202158203125,0.08057712763547897,0.2945983111858368,-0.2270023375749588
1776442202491232800,6.545232666015625,-0.16364550590515137,-0.07401597499847412,-0.15217357873916626
1776442202516249900,6.570249755859375,-0.28634682297706604,-0.5373958349227905,-0.15687209367752075
1776442202541267000,6.595266845703125,-0.3205989599227905,-0.13221748173236847,-0.46747177839279175
1776442202566284800,6.620284912109375,-0.18880030512809753,0.035125378519296646,-0.5763813853263855
1776442202591302000,6.645302001953125,-0.17426557838916779,-0.21785470843315125,-0.37786948680877686
1776442202616319000,6.670319091796875,0.16670529544353485,-0.07545098662376404,-0.11298438906669617
1776442202641336000,6.695336181640625,0.22097192704677582,0.05928497388958931,0.15993556380271912
1776442202666354000,6.72035400390625,0.28330492973327637,0.3310893177986145,0.34677618741989136
1776442202691371000,6.74537109375,0.20735815167427063,0.3341808617115021,0.3862071931362152
1776442202716388000,6.77038818359375,0.2704206109046936,0.31202828884124756,0.10248025506734848
1776442202741405000,6.795405029296875,0.012444947846233845,0.23424969613552094,-0.14731010794639587
1776442202766422000,6.820422119140625,-0.015133973211050034,0.17811989784240723,-0.05455424636602402
1776442202791440100,6.845440185546875,0.15867777168750763,0.04599195718765259,0.03944043070077896
1776442202816457000,6.87045703125,0.16969633102416992,0.06347081065177917,-0.1281978338956833
1776442202841474000,6.89547412109375,0.07753311097621918,-0.18874119222164154,-0.24635696411132812
1776442202866491100,6.9204912109375,-0.0558081790804863,-0.5958291888237,-0.09897926449775696
1776442202891509000,6.945509033203125,0.1796034872531891,-0.028434962034225464,-0.25264889001846313
1776442202916526000,6.970526123046875,0.3090875446796417,0.10015304386615753,-0.3808113932609558
1776442202941543000,6.99554296875,0.21569080650806427,-0.25948482751846313,-0.5527546405792236
1776442202966559500,7.0205595703125,0.4105747938156128,-0.44870102405548096,-0.6970769762992859
1776442202991577300,7.045577392578125,0.5200503468513489,0.29568353295326233,-0.9018696546554565
1776442203016594400,7.070594482421875,0.3896064758300781,0.3443646728992462,-0.4285934865474701
1776442203041611500,7.095611572265625,0.3451994061470032,-0.043571505695581436,-0.4312251806259155
1776442203066628400,7.12062841796875,0.5166837573051453,-0.40191006660461426,-0.6269589066505432
1776442203091646500,7.145646484375,0.5159772038459778,-0.11115139722824097,-0.12293093651533127
1776442203116663600,7.17066357421875,0.41253167390823364,0.3944808542728424,0.6596333384513855
1776442203141680000,7.19568017578125,0.56833815574646,-0.10678140074014664,0.46852341294288635
1776442203166697200,7.220697265625,0.7458097338676453,0.001790524460375309,0.25577062368392944
1776442203191715300,7.24571533203125,0.6278600096702576,0.7284229397773743,0.6259766221046448
1776442203216732200,7.270732177734375,0.5262281894683838,0.9666028022766113,0.6490300297737122
1776442203241749200,7.295749267578125,0.8382718563079834,0.46632909774780273,0.6880623698234558
1776442203266766300,7.320766357421875,1.2015241384506226,0.11478731036186218,0.5362148284912109
1776442203291784200,7.3457841796875,0.8953940868377686,1.4509738683700562,0.30582183599472046
1776442203316801300,7.37080126953125,0.8514490127563477,2.1353366374969482,0.6518715023994446
1776442203341818400,7.395818359375,1.240843653678894,2.0030035972595215,1.0749483108520508
1776442203366835500,7.42083544921875,1.115344762802124,2.117396354675293,1.4839458465576172
1776442203391853300,7.445853271484375,0.7880480289459229,2.6226210594177246,1.4205327033996582
1776442203416870400,7.470870361328125,0.8361504077911377,3.1025171279907227,1.0678714513778687
1776442203441887500,7.495887451171875,1.2258671522140503,1.298271894454956,0.6613592505455017
1776442203466904300,7.520904296875,0.8702839016914368,-0.6787154674530029,1.0193570852279663
1776442203491922400,7.54592236328125,0.39671388268470764,-0.605471134185791,0.517672061920166
1776442203516939500,7.570939453125,0.4452629089355469,-0.9431162476539612,-0.9297678470611572
1776442203541956400,7.595956298828125,0.30691227316856384,-0.8174638748168945,-1.255522608757019
1776442203566973400,7.620973388671875,-0.10982983559370041,-0.8151276707649231,-0.7109530568122864
1776442203591991600,7.645991455078125,0.0516480877995491,-1.392828106880188,-0.36551785469055176
1776442203617008400,7.67100830078125,0.26550593972206116,-1.518808126449585,-0.5948393940925598
1776442203642025200,7.696025146484375,0.385459840297699,-1.4843018054962158,-0.6554939150810242
1776442203667042300,7.721042236328125,0.3794419765472412,-1.0282740592956543,-0.4326951205730438
1776442203692060200,7.74606005859375,0.18833738565444946,-0.804404616355896,-0.23644201457500458
1776442203717077200,7.7710771484375,0.21380186080932617,-1.0556608438491821,-0.24443261325359344
1776442203742094300,7.79609423828125,0.20608659088611603,-0.8359799385070801,-0.3849744498729706
1776442203767111400,7.821111328125,0.048846904188394547,-0.252518892288208,-0.5657862424850464
1776442203792129300,7.84612939453125,-0.12145137041807175,-0.4458823502063751,-0.48809003829956055
1776442203817146400,7.871146484375,0.010070444084703922,-1.1747934818267822,-0.24568936228752136
1776442203842163200,7.8961630859375,0.05340208113193512,-1.0490550994873047,-0.26818957924842834
1776442203867180300,7.92118017578125,0.0630309209227562,-0.22714786231517792,-0.17435608804225922
1776442203892198400,7.946198486328125,0.04235194995999336,-0.06367041170597076,-0.06992791593074799
1776442203917215200,7.97121533203125,0.07845834642648697,-0.16496065258979797,-0.1170126348733902
1776442203942232300,7.996232421875,0.17155721783638,-0.05830100551247597,-0.4043940007686615
1776442203967250000,8.02125,0.2616075873374939,-0.32152965664863586,-0.41491955518722534
1776442203992267800,8.046267822265625,0.3152429461479187,-0.5337884426116943,-0.5456776022911072
1776442204017284900,8.071284912109375,0.3000999391078949,-0.6067070364952087,-0.6640162467956543
1776442204042302000,8.096302001953125,0.4553789794445038,-0.6681086421012878,-0.5347351431846619
1776442204067319800,8.12131982421875,0.4917236268520355,-0.4982479512691498,-0.5105487704277039
1776442204092337000,8.1463369140625,0.6043091416358948,-0.30767181515693665,-0.2747558653354645
1776442204117354000,8.17135400390625,0.8405125141143799,0.01533494796603918,-0.1620851755142212
1776442204142370800,8.196370849609375,0.8483925461769104,0.0620877668261528,-0.20391350984573364
1776442204167389000,8.221388916015625,0.8066002726554871,-0.15994733572006226,-0.5020269155502319
1776442204192406000,8.246406005859376,0.8475838899612427,-0.11660642176866531,-0.6919445991516113
1776442204217422800,8.2714228515625,0.8519032597541809,-0.09119479358196259,-0.6576785445213318
1776442204242440000,8.29643994140625,0.7547832727432251,-0.09120532125234604,-0.5852317810058594
1776442204267458000,8.3214580078125,0.5503275394439697,-0.2502537667751312,-0.4601755738258362
1776442204292475000,8.346474853515625,0.26360946893692017,0.0697823092341423,-0.4218517243862152
1776442204317491700,8.37149169921875,0.20744459331035614,-0.05370749905705452,-0.3447779715061188
1776442204342510000,8.396510009765626,0.29203078150749207,-0.13707353174686432,-0.3582374155521393
1776442204367526700,8.421526611328124,0.20654675364494324,0.09975967556238174,-0.1563240885734558
1776442204392543700,8.446543701171874,0.4265493154525757,0.436682790517807,-0.25582408905029297
1776442204417560800,8.471560791015625,0.30170831084251404,0.4362896680831909,-0.06577722728252411
1776442204442578700,8.49657861328125,-0.08828838169574738,-0.3955623507499695,-0.20790532231330872
1776442204467595800,8.521595703125,0.21008944511413574,-0.6465412378311157,-0.6096762418746948
1776442204492612900,8.54661279296875,0.4618477523326874,-0.48583537340164185,-0.5336500406265259
1776442204517630700,8.571630615234374,0.7260127067565918,-0.5971750020980835,-0.14094990491867065
1776442204542647800,8.596647705078125,1.246315360069275,-0.876817524433136,-0.0797826424241066
1776442204567665000,8.621664794921875,1.4695223569869995,-0.8967140316963196,-0.3028872013092041
1776442204592682000,8.646681884765625,1.4515353441238403,-1.37472665309906,-0.3852711319923401
1776442204617699800,8.671699951171876,1.1874845027923584,-0.5910320281982422,0.10489578545093536
1776442204642717000,8.696717041015624,1.3688195943832397,0.8568877577781677,-0.4136069715023041
1776442204667734000,8.721734130859375,1.4987332820892334,0.5842052698135376,-0.5646739602088928
1776442204692752000,8.746751953125,1.323061466217041,0.6860706806182861,-1.068029522895813
1776442204717769000,8.77176904296875,1.006220817565918,0.09384851157665253,-1.097071647644043
1776442204742786000,8.7967861328125,0.7998144030570984,-0.2325860559940338,-0.734928548336029
1776442204767803000,8.821802978515626,0.926749587059021,-0.13548913598060608,-0.4133199155330658
1776442204792821000,8.846821044921874,1.0389915704727173,-0.06651900708675385,-0.07377754896879196
1776442204817838000,8.871838134765625,0.8874529004096985,0.02117323875427246,-0.09697186201810837
1776442204842855000,8.89685498046875,0.7062960863113403,-0.015027951449155807,-0.2333015650510788
1776442204867873000,8.921873046875,0.6925963759422302,-0.23332540690898895,-0.21750935912132263
1776442204892889900,8.946889892578126,0.7865350246429443,-0.37039533257484436,-0.10141044110059738
1776442204917906700,8.97190673828125,0.8455798625946045,-0.2610011398792267,-0.2943401336669922
1776442204942923800,8.996923828125,0.8878645896911621,-0.14554451406002045,-0.5308518409729004
1776442204967941400,9.02194140625,1.02310311794281,-0.18950876593589783,-0.6177963018417358
1776442204992958200,9.046958251953125,1.2463124990463257,-0.23205406963825226,-0.45536813139915466
1776442205017975300,9.071975341796875,1.3543742895126343,-0.03797994926571846,-0.3208514153957367
1776442205042993400,9.096993408203126,1.3239099979400635,0.23846596479415894,-0.1620265543460846
1776442205068010200,9.12201025390625,1.3837016820907593,0.14464597404003143,-0.08773145079612732
1776442205093027300,9.14702734375,1.546683669090271,0.09964591264724731,-0.0728355273604393
1776442205118045400,9.17204541015625,1.589631199836731,0.13582685589790344,-0.00048004696145653725
1776442205143062300,9.197062255859375,1.567474126815796,0.14389154314994812,0.061945121735334396
1776442205168079000,9.2220791015625,1.5189067125320435,-0.00003392715007066727,0.008947517722845078
1776442205193096200,9.24709619140625,1.4676425457000732,0.03740813583135605,0.04032767564058304
1776442205218114000,9.272114013671874,1.317971110343933,0.04554381221532822,0.059928495436906815
1776442205243131100,9.297131103515625,1.4684548377990723,0.12276837229728699,-0.030066661536693573
1776442205268148200,9.322148193359375,1.749863624572754,0.2565699815750122,-0.10707107931375504
1776442205293166000,9.347166015625,1.6640034914016724,0.4732474684715271,-0.2183898389339447
1776442205318183200,9.37218310546875,1.3100676536560059,0.34513285756111145,-0.4395221769809723
1776442205343200300,9.3972001953125,0.9000258445739746,0.144953191280365,-0.5130250453948975
1776442205368218000,9.422218017578125,0.7811790108680725,-0.038681115955114365,-0.4065931439399719
1776442205393235200,9.447235107421875,1.0985751152038574,-0.002299537882208824,-0.1576373428106308
1776442205418252300,9.472252197265625,1.3884596824645996,-0.09355738013982773,0.04816318675875664
1776442205443270100,9.497270263671876,1.3102269172668457,-0.147109717130661,0.10448215901851654
1776442205468287200,9.522287353515624,1.280130386352539,0.07456772774457932,0.03257175534963608
1776442205493304300,9.54730419921875,1.3521358966827393,0.17958445847034454,0.043818071484565735
1776442205518322200,9.572322265625,1.3926142454147339,0.24606171250343323,0.01585802249610424
1776442205543339300,9.59733935546875,1.3394790887832642,0.16905266046524048,0.015216054394841194
1776442205568356400,9.6223564453125,1.3708829879760742,0.3102783262729645,0.031215401366353035
1776442205593374200,9.647374267578124,1.5145437717437744,0.4836185574531555,0.028048867359757423
1776442205618391300,9.672391357421875,1.2847261428833008,0.21380378305912018,-0.02481001429259777
1776442205643408400,9.697408447265625,1.048449993133545,-0.03666166961193085,-0.10651101171970367
1776442205668425200,9.72242529296875,1.2504750490188599,-0.05253385752439499,-0.05631345510482788
1776442205693443300,9.747443359375,1.558355450630188,-0.020806482061743736,0.1110936850309372
1776442205718460400,9.77246044921875,1.6626534461975098,-0.07260336726903915,0.10981909185647964
1776442205743477200,9.797477294921874,1.4905842542648315,-0.0969783142209053,0.03673259913921356
1776442205768495400,9.822495361328125,1.2767003774642944,-0.14615246653556824,-0.03866954147815704
1776442205793512400,9.847512451171875,1.1662123203277588,-0.07894935458898544,-0.19130219519138336
1776442205818529300,9.872529296875,1.2471935749053955,0.03285457193851471,-0.06976647675037384
1776442205843547400,9.89754736328125,1.4980666637420654,0.019548989832401276,0.26921960711479187
1776442205868564500,9.922564453125,1.6888315677642822,-0.1878451257944107,0.22900356352329254
1776442205893581000,9.9475810546875,1.5172045230865479,-0.17035502195358276,0.1508893072605133
1776442205918599400,9.972599365234375,1.2794307470321655,-0.05722758546471596,-0.1426691859960556
1776442205943616300,9.9976162109375,0.9448857307434082,-0.06492400914430618,-0.2286614626646042
1776442205968634400,10.02263427734375,0.9349271655082703,-0.5949938297271729,-0.16611433029174805
1776442205993652200,10.04765234375,1.3451482057571411,-0.5129867196083069,0.04904802143573761
1776442206018669300,10.07266943359375,1.4953110218048096,0.06313036382198334,0.04379643127322197
1776442206043686400,10.097686279296875,1.6351466178894043,0.37896302342414856,-0.09783284366130829
1776442206068704300,10.122704345703125,1.9728937149047852,0.45147258043289185,0.005458400584757328
1776442206093721300,10.147721435546876,2.610114812850952,0.22953000664710999,0.19967827200889587
1776442206118738400,10.172738525390624,2.8527252674102783,0.23181240260601044,-0.2752979099750519
1776442206143756300,10.19775634765625,2.381776809692383,0.4192831516265869,-0.714189887046814
1776442206168773400,10.2227734375,1.6788272857666016,-0.01125391572713852,-0.6353098750114441
1776442206193790500,10.24779052734375,1.0356608629226685,-0.6314722299575806,-0.388058066368103
1776442206218808300,10.272808349609376,0.6875951886177063,-0.7996997833251953,-0.26315563917160034
1776442206243825400,10.297825439453124,0.4372376799583435,-0.5747960209846497,-0.2338683158159256
1776442206268842200,10.32284228515625,0.3236924111843109,-0.2915157675743103,-0.032207220792770386
1776442206293860400,10.3478603515625,0.4427052438259125,-0.390304833650589,0.21397505700588226
1776442206318877200,10.372877197265625,0.4949115812778473,-0.4679126441478729,0.2090132236480713
1776442206343894300,10.397894287109375,0.41009974479675293,-0.5143223404884338,0.20953789353370667
1776442206368912100,10.422912109375,0.45224109292030334,-0.4444861114025116,0.5073491334915161
1776442206393929200,10.44792919921875,0.74180668592453,-0.4407455325126648,0.7459161877632141
1776442206418946300,10.4729462890625,0.8554750084877014,-0.3030886650085449,0.6805827021598816
1776442206443964200,10.497964111328125,0.8029154539108276,-0.3885284960269928,0.4862857758998871
1776442206468981200,10.522981201171875,0.7358409762382507,-0.330895334482193,0.3041803240776062
1776442206493998300,10.547998291015626,0.9316127896308899,-0.4538593292236328,0.14648368954658508
1776442206519016200,10.57301611328125,1.1919349431991577,-0.45476335287094116,-0.054200708866119385
1776442206544033300,10.598033203125,1.1762142181396484,-0.2503834664821625,-0.19171114265918732
1776442206569050400,10.62305029296875,0.9224879145622253,-0.0864969938993454,-0.20836544036865234
1776442206594068200,10.648068115234375,0.8713001608848572,-0.06787534058094025,-0.13502439856529236
1776442206619085300,10.673085205078126,1.0462241172790527,-0.0306132473051548,-0.15412850677967072
1776442206644102400,10.698102294921876,1.251930832862854,0.06634359061717987,0.12433481961488724
1776442206669120300,10.723120361328125,1.4654723405838013,-0.0919141173362732,0.3889923393726349
1776442206694137300,10.748137451171875,1.4509398937225342,-0.24900473654270172,0.4972817301750183
1776442206719154400,10.773154541015625,1.3654993772506714,-0.37015578150749207,0.5048420429229736
1776442206744172300,10.79817236328125,1.4952260255813599,-0.6511642336845398,0.5279196500778198
1776442206769189400,10.823189453125,1.5259329080581665,-0.47012859582901,0.34261053800582886
1776442206794207200,10.848207275390624,1.3970551490783691,-0.320128470659256,0.2849966585636139
1776442206819224300,10.873224365234375,1.2770401239395142,-0.2917870581150055,0.2111186534166336
1776442206844241400,10.898241455078125,1.2222989797592163,-0.229611337184906,0.10608656704425812
1776442206869259300,10.92325927734375,1.3289903402328491,0.07796287536621094,0.37973740696907043
1776442206894276400,10.9482763671875,1.5785584449768066,-0.07313365489244461,0.7770445942878723
1776442206919293400,10.97329345703125,1.8410558700561523,-0.21705138683319092,0.957535445690155
1776442206944311300,10.998311279296875,2.0627853870391846,0.027196254581212997,1.0855348110198975
1776442206969328000,11.023328125,2.201176166534424,0.018666455522179604,0.9176174998283386
1776442206994345200,11.04834521484375,2.1759698390960693,-0.18400318920612335,0.458326131105423
1776442207019363000,11.073363037109376,1.7479393482208252,0.10588429868221283,-0.32807689905166626
1776442207044380200,11.098380126953124,1.0503922700881958,0.27702024579048157,-1.0833394527435303
1776442207069397200,11.123397216796874,0.9831399917602539,0.27538225054740906,-1.2424285411834717
1776442207094415000,11.1484150390625,1.7123020887374878,0.06482645869255066,-1.0921447277069092
1776442207119432200,11.17343212890625,2.236612558364868,0.049108996987342834,-1.0366246700286865
1776442207144450300,11.1984501953125,2.1543891429901123,-0.005462259519845247,-1.0458217859268188
1776442207169467100,11.223467041015626,1.878190040588379,-0.1381581723690033,-0.5831597447395325
1776442207194484200,11.248484130859374,1.9174678325653076,-0.18734310567378998,0.16295254230499268
1776442207219502300,11.27350244140625,2.1585593223571777,0.04317019507288933,0.5023624300956726
1776442207244519200,11.298519287109375,2.4031336307525635,0.15602092444896698,0.43308523297309875
1776442207269536000,11.323535888671875,2.4590682983398438,-0.0008657285943627357,0.3454776704311371
1776442207294554000,11.34855419921875,1.9587692022323608,0.13916802406311035,0.41249755024909973
1776442207319571000,11.373571044921874,1.5429869890213013,0.23647050559520721,0.32374152541160583
1776442207344588000,11.398588134765625,1.5407521724700928,0.34722018241882324,0.05344613641500473
1776442207369606100,11.423606201171875,1.5728448629379272,0.32340526580810547,-0.1827072948217392
1776442207394623000,11.448623046875,1.8602451086044312,0.047271259129047394,-0.3093607723712921
1776442207419640000,11.47364013671875,1.858303189277649,0.3069815933704376,-0.2719078063964844
1776442207444658000,11.498657958984374,1.4569271802902222,0.4219353497028351,-0.19756317138671875
1776442207469675000,11.523675048828125,1.3588879108428955,0.26693516969680786,-0.17643973231315613
1776442207494693000,11.548693115234375,1.2088357210159302,0.1428089141845703,0.34032657742500305
1776442207519710000,11.5737099609375,1.0574485063552856,0.04835056513547897,0.5475619435310364
1776442207544727000,11.59872705078125,0.9198464155197144,0.06095530837774277,0.5032022595405579
1776442207569745200,11.6237451171875,1.049734115600586,0.33295536041259766,0.48107701539993286
1776442207594762000,11.648761962890624,1.1664458513259888,0.3973142206668854,0.2310987412929535
1776442207619779000,11.673779052734375,0.8746499419212341,0.06910690665245056,-0.06464479863643646
1776442207644797200,11.698797119140625,0.407833456993103,-0.23548759520053864,-0.25684210658073425
1776442207669814000,11.72381396484375,0.4343666732311249,-0.16014236211776733,-0.2857881188392639
1776442207694832000,11.74883203125,0.7599234580993652,-0.08611823618412018,-0.2755420506000519
1776442207719849200,11.77384912109375,0.8373538851737976,-0.30106857419013977,-0.3244386315345764
1776442207744866000,11.798865966796875,0.5001873970031738,-0.5610576272010803,-0.11101225018501282
1776442207769884200,11.82388427734375,0.5228954553604126,-0.5481778979301453,0.304647296667099
1776442207794901200,11.8489013671875,0.49955859780311584,-0.40788209438323975,0.4494960308074951
1776442207819918000,11.87391796875,0.29666566848754883,0.09732498973608017,0.310413658618927
1776442207844936200,11.898936279296874,0.28411394357681274,0.24961787462234497,0.3358791768550873
1776442207869953300,11.923953369140625,0.6790043115615845,-0.17800001800060272,0.6944000720977783
1776442207894971100,11.94897119140625,0.8066741228103638,-0.004165476653724909,0.6612821817398071
1776442207919988200,11.97398828125,0.9180035591125488,0.054029230028390884,0.08065086603164673
1776442207945005000,11.999005126953126,0.9551486968994141,0.0701286718249321,-0.14997442066669464
1776442207970023200,12.024023193359374,0.9771464467048645,0.09485601633787155,-0.14800621569156647
1776442207995040300,12.049040283203125,1.0473817586898804,0.1479145586490631,-0.11793185770511627
1776442208020057000,12.07405712890625,1.2646077871322632,0.060297831892967224,-0.23771394789218903
1776442208045075200,12.0990751953125,1.4246323108673096,0.08179845660924911,-0.46040982007980347
1776442208070092300,12.12409228515625,1.5250309705734253,0.08655744045972824,-0.5085302591323853
1776442208095109000,12.149109130859374,1.3717031478881836,-0.04175961762666702,-0.3456491231918335
1776442208120127200,12.174127197265625,1.301323413848877,0.036782216280698776,-0.027065975591540337
1776442208145144300,12.199144287109375,1.188547968864441,0.17011035978794098,0.02180223912000656
1776442208170162200,12.224162109375,0.9226382374763489,0.07723551988601685,-0.28343886137008667
1776442208195179300,12.24917919921875,0.7522663474082947,-0.2032129019498825,-0.24349258840084076
1776442208220196400,12.2741962890625,0.5335710644721985,-0.21020713448524475,0.14036452770233154
1776442208245214200,12.299214111328125,0.5069319605827332,0.20944884419441223,0.2588558793067932
1776442208270231300,12.324231201171875,0.7859790921211243,0.03541223332285881,0.16139774024486542
1776442208295248400,12.349248291015625,0.9355093240737915,-0.16118945181369781,-0.032331209629774094
1776442208320266200,12.374266357421876,0.7888817191123962,-0.16379153728485107,-0.18391744792461395
1776442208345283300,12.399283447265624,0.6252619028091431,-0.013927997089922428,-0.195346400141716
1776442208370301200,12.42430126953125,0.5121890902519226,0.03029201179742813,0.012906216084957123
1776442208395318300,12.449318359375,0.4404727518558502,0.0496494397521019,0.3362874388694763
1776442208420335400,12.47433544921875,0.4392254054546356,-0.006176600698381662,0.8772129416465759
1776442208445353200,12.499353271484376,0.638637900352478,-0.03526740521192551,1.3364092111587524
1776442208470370300,12.524370361328126,0.6014488935470581,0.22464150190353394,0.42470085620880127
1776442208495387400,12.549387451171874,0.8080556988716125,0.13403001427650452,0.3547095060348511
1776442208520405200,12.5744052734375,1.1070595979690552,0.21790333092212677,0.18271605670452118
1776442208545422300,12.59942236328125,1.1203898191452026,0.20214784145355225,0.2287801057100296
1776442208570440200,12.624440185546876,1.0112234354019165,-0.04643964022397995,0.19119343161582947
1776442208595457300,12.649457275390626,1.0014530420303345,0.23097248375415802,-0.059329599142074585
1776442208620474000,12.67447412109375,0.7923184037208557,0.19658589363098145,-0.17870186269283295
1776442208645492200,12.6994921875,0.6771777868270874,0.21585418283939362,-0.047748979181051254
1776442208670509000,12.724509033203125,0.21907299757003784,0.1286860853433609,0.07142767310142517
1776442208695526100,12.749526123046875,0.04690999537706375,-0.13548707962036133,0.017649421468377113
1776442208720544000,12.7745439453125,0.010448312386870384,-0.18576738238334656,-0.2601155936717987
1776442208745561000,12.79956103515625,0.16603776812553406,-0.1110411211848259,-0.4140472710132599
1776442208770579200,12.8245791015625,0.43213289976119995,-0.011173333041369915,-0.07628752291202545
1776442208795596000,12.849595947265625,0.6478912830352783,0.15039779245853424,0.32748493552207947
1776442208820613000,12.874613037109375,0.8852189779281616,0.01580294966697693,0.49086087942123413
1776442208845631200,12.89963134765625,0.7952242493629456,-0.18521316349506378,0.6181654930114746
1776442208870648000,12.92464794921875,0.5741373896598816,-0.16515149176120758,0.7124580144882202
1776442208895666200,12.949666259765625,0.6388584971427917,0.053518444299697876,0.4805659055709839
1776442208920683300,12.974683349609375,0.3102494478225708,0.2834436893463135,0.14396008849143982
1776442208945700000,12.9997001953125,0.2033926248550415,0.1137017160654068,-0.12389631569385529
1776442208970718000,13.024718017578126,0.36607417464256287,0.10022132098674774,-0.14344029128551483
1776442208995735000,13.049735107421874,0.5200437903404236,0.1747429519891739,0.08570820838212967
1776442209020752000,13.074751953125,0.7103620767593384,0.1828967034816742,-0.028455793857574463
1776442209045770000,13.09977001953125,0.7087929844856262,0.14228728413581848,-0.18936054408550262
1776442209070787000,13.124787109375,0.6578501462936401,0.01378911454230547,-0.13661368191242218
1776442209095805000,13.149804931640626,0.5957354307174683,-0.003789937123656273,-0.14576035737991333
1776442209120822000,13.174822021484376,0.7119306921958923,-0.06417465955018997,-0.09002833813428879
1776442209145838800,13.1998388671875,1.0188935995101929,0.28200432658195496,-0.10056114196777344
1776442209170857000,13.22485693359375,1.0686671733856201,0.2673953175544739,-0.21928615868091583
1776442209195874000,13.2498740234375,1.2178832292556763,0.37618863582611084,-0.05872310325503349
1776442209220892000,13.274891845703126,1.4558626413345337,0.3926182985305786,-0.1465003341436386
1776442209245909000,13.299908935546876,1.7355128526687622,0.48447152972221375,-0.020780421793460846
1776442209270926000,13.324926025390624,1.79564368724823,0.4972292184829712,0.14804916083812714
1776442209295944000,13.34994384765625,1.6755328178405762,0.19086210429668427,0.11489750444889069
1776442209320961000,13.3749609375,1.5640661716461182,0.2155313938856125,-0.04301818460226059
1776442209345978000,13.39997802734375,1.604588508605957,0.48276346921920776,-0.07302118092775345
1776442209370996000,13.424995849609376,1.7475221157073975,0.6049530506134033,0.1296074092388153
1776442209396013000,13.450012939453124,1.710403323173523,0.34977471828460693,0.09509674459695816
1776442209421031000,13.475031005859375,1.258712649345398,0.42968931794166565,-0.13592001795768738
1776442209446048000,13.500048095703125,1.026621699333191,0.3749384880065918,-0.30853137373924255
1776442209471065000,13.525065185546875,0.9896962642669678,0.20523492991924286,-0.6219817399978638
1776442209496083000,13.5500830078125,0.8352166414260864,-0.15513509511947632,-0.7424464821815491
1776442209521100000,13.57510009765625,0.373829185962677,-0.25843197107315063,-0.17776863276958466
1776442209546118100,13.6001181640625,-0.007050889078527689,-0.4544363021850586,0.29183563590049744
1776442209571135000,13.625135009765625,-0.021714195609092712,-0.5460792183876038,0.3630651831626892
1776442209596152000,13.650152099609375,0.09690750390291214,-0.34589406847953796,0.23559047281742096
1776442209621170000,13.675169921875,0.21811510622501373,-0.12269394099712372,0.07380091398954391
1776442209646187000,13.70018701171875,0.5304554104804993,0.00539019238203764,0.053576257079839706
1776442209671205000,13.725205078125,0.842666745185852,-0.024846326559782028,0.03807230293750763
1776442209696222000,13.750221923828125,1.3212417364120483,0.2744414806365967,0.13717065751552582
1776442209721238800,13.77523876953125,1.8206039667129517,0.7602392435073853,0.5108155012130737
1776442209746257200,13.800257080078126,2.0719730854034424,0.7104924321174622,0.8955036997795105
1776442209771273700,13.825273681640626,2.299464225769043,0.6837785243988037,0.9290287494659424
1776442209796290800,13.850290771484374,2.479030132293701,0.8343845009803772,0.5633269548416138
1776442209821309000,13.875308837890625,2.5557401180267334,0.9141202569007874,0.03955516219139099
1776442209846325800,13.90032568359375,2.4061172008514404,0.759804368019104,-0.46924376487731934
1776442209871343900,13.92534375,2.63480544090271,0.5607894659042358,-0.7548381090164185
1776442209896361000,13.95036083984375,3.333427906036377,0.7342119812965393,-0.8837573528289795
1776442209921377800,13.975377685546874,3.761178731918335,0.9376956820487976,-1.0471594333648682
1776442209946396000,14.00039599609375,4.145217418670654,0.4630281329154968,-1.0730037689208984
1776442209971412500,14.02541259765625,3.8456993103027344,0.0662655234336853,-0.5656908750534058
1776442209996430300,14.050430419921875,3.060537576675415,0.0075611090287566185,0.32342490553855896
1776442210021447400,14.075447509765626,2.1579713821411133,0.03149477019906044,0.6248945593833923
1776442210046464500,14.100464599609374,2.0143580436706543,-0.02580639347434044,0.4174993634223938
1776442210071482400,14.125482421875,2.1529085636138916,-0.0514061376452446,0.45515206456184387
1776442210096499500,14.15049951171875,1.8391914367675781,-0.12143635004758835,0.29745519161224365
1776442210121517300,14.175517333984375,1.5905476808547974,-0.09419876337051392,-0.043899055570364
1776442210146534400,14.200534423828126,1.8579670190811157,-0.07772913575172424,-0.1909361481666565
1776442210171551200,14.22555126953125,1.9754102230072021,-0.11662130802869797,-0.26508769392967224
1776442210196569300,14.2505693359375,1.4344992637634277,-0.09121426194906235,-0.3508303761482239
1776442210221586200,14.275586181640625,1.1421513557434082,-0.17384719848632812,-0.4098747968673706
1776442210246604500,14.3006044921875,1.2047882080078125,-0.0829005241394043,-0.30415961146354675
1776442210271621000,14.32562109375,1.0850811004638672,0.005617547780275345,-0.3089829683303833
1776442210296638200,14.35063818359375,0.9321997165679932,-0.03105314075946808,-0.374565452337265
1776442210321656300,14.37565625,0.810880720615387,0.012296087108552456,-0.2847401797771454
1776442210346673200,14.400673095703125,0.6144808530807495,0.0031378502026200294,-0.29782867431640625
1776442210371690200,14.425690185546875,0.3936366140842438,0.1176617220044136,-0.30417299270629883
1776442210396708400,14.450708251953126,0.5028715133666992,0.18489667773246765,-0.29548242688179016
1776442210421725200,14.47572509765625,0.7500485777854919,0.07239677757024765,-0.3930649757385254
1776442210446743300,14.500743408203125,0.7662462592124939,-0.20313777029514313,-0.6623038649559021
1776442210471760400,14.525760498046875,0.576205313205719,-0.0806274488568306,-0.8126267790794373
1776442210496777200,14.550777099609375,0.36160922050476074,0.1272997409105301,-0.8386510610580444
1776442210521795300,14.57579541015625,0.03279454633593559,0.25738444924354553,-0.8776690363883972
1776442210546812400,14.6008125,0.1563030332326889,0.2914963364601135,-0.7100214958190918
1776442210571830300,14.625830322265625,0.4958111345767975,0.14051194489002228,-0.3341228663921356
1776442210596847400,14.650847412109375,0.4836738407611847,0.1848561316728592,-0.36961138248443604
1776442210621864200,14.6758642578125,0.14634370803833008,0.4347836375236511,-0.531539797782898
1776442210646882300,14.70088232421875,0.09711785614490509,0.2958774268627167,-0.5048775672912598
1776442210671899400,14.7258994140625,0.4758414328098297,0.08458312600851059,-0.25874465703964233
1776442210696917200,14.750917236328124,0.8472252488136292,0.2705042064189911,-0.4941815733909607
1776442210721934300,14.775934326171875,0.9435606002807617,0.4462372958660126,-0.8360831141471863
1776442210746951400,14.800951416015625,0.8944475054740906,-0.08703529089689255,-1.3393362760543823
1776442210771969300,14.82596923828125,0.5093916654586792,-0.12413056194782257,-1.6364246606826782
1776442210796986400,14.850986328125,0.32466796040534973,-0.12475066632032394,-1.3313738107681274
1776442210822004200,14.876004150390624,0.36243870854377747,-0.08820164948701859,-0.9292021989822388
1776442210847021300,14.901021240234375,1.038222312927246,-0.004806783050298691,-0.09200213849544525
1776442210872038400,14.926038330078125,1.8323085308074951,-0.11308575421571732,0.869623601436615
1776442210897056300,14.95105615234375,2.1507108211517334,-0.3748776912689209,1.5480902194976807
1776442210922073300,14.9760732421875,2.0919454097747803,-0.424979567527771,1.4354934692382812
1776442210947091500,15.001091552734374,1.818015217781067,-0.17959994077682495,0.8648898601531982
1776442210972108300,15.0261083984375,1.7210352420806885,-0.15294219553470612,0.1435382068157196
1776442210997125400,15.05112548828125,1.5943671464920044,-0.2287542223930359,-0.05137421563267708
1776442211022143500,15.0761435546875,1.4917939901351929,-0.27440884709358215,0.22441108524799347
1776442211047160300,15.101160400390626,1.381459355354309,-0.31524544954299927,0.3176251947879791
1776442211072178400,15.126178466796874,1.2181636095046997,-0.25495824217796326,0.14008231461048126
1776442211097195300,15.1511953125,1.3531904220581055,-0.16168129444122314,-0.09479549527168274
1776442211122212400,15.17621240234375,1.2765064239501953,-0.013600168749690056,-0.2868959605693817
1776442211147230500,15.20123046875,1.2627270221710205,-0.11698221415281296,-0.4546297490596771
1776442211172247300,15.226247314453126,1.136702537536621,0.0036812499165534973,-0.3359515070915222
1776442211197265400,15.251265380859374,1.000419020652771,0.02526632510125637,-0.09120748937129974
1776442211222282500,15.276282470703125,1.0043128728866577,0.12622418999671936,-0.03445516526699066
1776442211247299300,15.30129931640625,1.0667870044708252,-0.058122094720602036,0.09544458240270615
1776442211272317400,15.3263173828125,1.3162946701049805,-0.11990764737129211,0.2860982418060303
1776442211297334500,15.35133447265625,1.2427690029144287,-0.12191028147935867,0.5475724935531616
1776442211322352400,15.376352294921874,0.9161321520805359,-0.3660765588283539,0.944988489151001
1776442211347369500,15.401369384765625,0.7727283835411072,-0.7149209380149841,1.1102497577667236
1776442211372386600,15.426386474609375,1.060672640800476,-0.2587093114852905,0.7515987753868103
1776442211397404400,15.451404296875,1.142318844795227,0.02868736907839775,0.12604457139968872
1776442211422421500,15.47642138671875,1.099017858505249,-0.09477459639310837,-0.4938320517539978
1776442211447439400,15.501439453125,1.301648736000061,0.04201675206422806,-0.6420408487319946
1776442211472456400,15.52645654296875,1.4337849617004395,0.3344658315181732,-0.8617731928825378
1776442211497473500,15.5514736328125,1.5944318771362305,0.2609965205192566,-0.6729310154914856
1776442211522491400,15.576491455078125,1.6456581354141235,-0.07563237845897675,-0.07440676540136337
1776442211547508500,15.601508544921876,1.3229920864105225,-0.2577308118343353,0.3894641399383545
1776442211572526300,15.6265263671875,0.9031030535697937,-0.07982068508863449,0.42283710837364197
1776442211597543400,15.65154345703125,0.968704342842102,-0.057843372225761414,0.47100624442100525
1776442211622560500,15.676560546875,1.2656162977218628,-0.2422381490468979,0.6391098499298096
1776442211647578400,15.701578369140625,1.4366886615753174,-0.3871511220932007,0.5979376435279846
1776442211672595500,15.726595458984375,1.5485868453979492,0.015253100544214249,0.11409555375576019
1776442211697613600,15.751613525390624,1.531658411026001,0.20501194894313812,-0.42171773314476013
1776442211722630400,15.77663037109375,1.4776018857955933,0.3345748484134674,-0.8552938103675842
1776442211747648500,15.8016484375,1.5226385593414307,0.5379912257194519,-1.2839255332946777
1776442211772665600,15.82666552734375,1.6331589221954346,-0.7351859211921692,-0.2705358862876892
1776442211797682400,15.851682373046875,1.371360421180725,-0.5886121392250061,0.12955667078495026
1776442211822700500,15.876700439453124,1.000392198562622,-0.024321898818016052,0.5817804932594299
1776442211847717600,15.901717529296874,0.823042631149292,-0.10980989784002304,0.9303679466247559
1776442211872735500,15.926735595703125,1.1295839548110962,-0.057703278958797455,1.0016741752624512
1776442211897752600,15.951752685546875,1.5058411359786987,0.07842674106359482,0.5499962568283081
1776442211922769700,15.976769775390625,1.5832486152648926,0.05703762173652649,0.23816373944282532
1776442211947787500,16.00178759765625,1.4907655715942383,-0.24807073175907135,-0.033265501260757446
1776442211972804400,16.026804443359374,1.4777597188949585,-0.3278573751449585,-0.07438252866268158
1776442211997822200,16.051822265625,1.5009104013442993,-0.4335506856441498,0.2476922571659088
1776442212022839300,16.07683935546875,1.2122948169708252,-0.5262789726257324,0.6278724670410156
1776442212047856400,16.1018564453125,0.826581597328186,-0.5117472410202026,0.9511874914169312
1776442212072874200,16.126874267578124,0.6277185678482056,-0.5012709498405457,1.3090256452560425
1776442212097891300,16.151891357421874,0.83211749792099,-0.29946786165237427,1.5465466976165771
1776442212122909200,16.1769091796875,1.2378212213516235,-0.12786054611206055,1.2312275171279907
1776442212147926300,16.20192626953125,1.5121263265609741,0.2237015962600708,0.7005612850189209
1776442212172944400,16.2269443359375,1.4612168073654175,0.20907104015350342,0.05047157406806946
1776442212197961200,16.251961181640624,1.4285722970962524,0.3203313648700714,-0.4493999183177948
1776442212222978300,16.276978271484374,1.3890113830566406,0.33669620752334595,-0.6492407917976379
1776442212247996400,16.301996337890625,1.0622591972351074,0.32253432273864746,-0.3140839636325836
1776442212273013200,16.32701318359375,1.0024747848510742,-0.002286478877067566,-0.21906226873397827
1776442212298031400,16.35203125,1.4469273090362549,0.07304295152425766,-0.21647699177265167
1776442212323048400,16.37704833984375,1.6753898859024048,0.1567162275314331,-0.06973350048065186
1776442212348065300,16.402065185546874,1.7568215131759644,0.1308787614107132,-0.2989465892314911
1776442212373083400,16.42708349609375,1.773783564567566,0.10584862530231476,-0.8097590804100037
1776442212398100500,16.4521005859375,1.7950513362884521,-0.02053818665444851,-1.0206480026245117
1776442212423118300,16.477118408203125,1.8531759977340698,-0.07122213393449783,-0.646802544593811
1776442212448135400,16.502135498046876,1.8403455018997192,-0.015832753852009773,-0.22887924313545227
1776442212473153300,16.5271533203125,1.7452092170715332,-0.07322558015584946,-0.05273168161511421
1776442212498170400,16.55217041015625,1.7900784015655518,-0.09198834747076035,0.10037218034267426
1776442212523187500,16.5771875,2.01330828666687,-0.12021785229444504,0.4180143177509308
1776442212548205300,16.602205322265625,2.1668856143951416,-0.18028230965137482,0.3331755995750427
1776442212573222400,16.627222412109376,2.1372647285461426,-0.04559703916311264,0.013572437688708305
1776442212598240300,16.652240234375,1.943847894668579,-0.14995114505290985,-0.1635674089193344
1776442212623257300,16.67725732421875,1.6423277854919434,-0.24254462122917175,-0.14668545126914978
1776442212648275500,16.702275390625,1.3872228860855103,-0.2588726580142975,-0.06436628848314285
1776442212673292300,16.727292236328125,1.4102437496185303,-0.25691118836402893,0.1987030953168869
1776442212698309400,16.752309326171876,1.876479983329773,-0.056408461183309555,0.3776913583278656
1776442212723327500,16.777327392578126,2.227555274963379,0.2607937455177307,0.257608026266098
1776442212748344300,16.80234423828125,2.153691530227661,0.15460418164730072,0.058567557483911514
1776442212773362400,16.827362548828123,1.906760811805725,0.10849122703075409,-0.156589537858963
1776442212798379500,16.852379638671874,1.7620621919631958,0.3262174725532532,-0.31694507598876953
1776442212823396400,16.877396240234376,1.4203455448150635,0.25419536232948303,-0.28544822335243225
1776442212848414500,16.90241455078125,1.000184416770935,0.16135279834270477,-0.16629503667354584
1776442212873431600,16.927431640625,0.792770504951477,0.057633522897958755,-0.05026935413479805
1776442212898449400,16.952449462890623,0.8284280300140381,0.19240258634090424,0.15852491557598114
1776442212923466500,16.977466552734374,0.9922538995742798,0.24596375226974487,0.3507835865020752
1776442212948484400,17.002484375,0.9575971961021423,0.3887115716934204,0.5240558385848999
1776442212973501400,17.02750146484375,0.9625123143196106,0.47887885570526123,0.6514307856559753
1776442212998518300,17.052518310546876,0.8558948636054993,0.4589477777481079,0.7808008193969727
1776442213023536400,17.077536376953127,0.3102462589740753,0.5523911118507385,0.8579621315002441
1776442213048553200,17.10255322265625,-0.12659206986427307,0.3548973500728607,0.8111209869384766
1776442213073571300,17.1275712890625,-0.34097063541412354,0.07655911892652512,0.6061176061630249
1776442213098588200,17.152588134765626,-0.3438427448272705,-0.14109937846660614,0.2594190239906311
1776442213123606500,17.1776064453125,-0.08442151546478271,-0.11097732186317444,-0.17935383319854736
1776442213148623000,17.202623046875,0.2464994192123413,0.014161367900669575,-0.5919528007507324
1776442213173640200,17.22764013671875,0.5731672644615173,-0.5319057106971741,-0.05474599823355675
1776442213198658300,17.252658203125,0.6664667725563049,-0.13503387570381165,0.8582835793495178
1776442213223675100,17.277675048828126,0.9251927733421326,0.15766483545303345,0.7477906346321106
1776442213248693200,17.302693359375,1.106823205947876,0.39920198917388916,0.31219691038131714
1776442213273710300,17.32771044921875,0.5428282022476196,-0.03304332494735718,0.009448608383536339
1776442213298728200,17.352728271484374,0.12443361431360245,-0.1952989101409912,-0.024721214547753334
1776442213323745300,17.377745361328124,0.1114998385310173,-0.19229647517204285,0.10317359119653702
1776442213348762400,17.402762451171874,0.5015683174133301,0.037232447415590286,0.2172861397266388
1776442213373780200,17.4277802734375,0.8512364029884338,0.037880655378103256,0.2640862464904785
1776442213398797300,17.45279736328125,0.9940178394317627,-0.18914291262626648,0.12974222004413605
1776442213423815200,17.477815185546874,1.2977149486541748,0.02457512356340885,-0.07606067508459091
1776442213448832300,17.502832275390624,1.5385501384735107,0.12168489396572113,-0.3177282214164734
1776442213473849300,17.527849365234374,1.556214451789856,0.010702673345804214,-0.38884076476097107
1776442213498867200,17.5528671875,1.640368938446045,-0.11436998099088669,-0.20520994067192078
1776442213523884300,17.57788427734375,1.6267004013061523,0.13880476355552673,-0.044637665152549744
1776442213548902400,17.60290234375,1.6570515632629395,0.4067545235157013,-0.20745013654232025
1776442213573919200,17.627919189453124,1.944663643836975,0.372622549533844,-0.5059818029403687
1776442213598937300,17.652937255859374,2.328913927078247,0.167734295129776,-0.5590329766273499
1776442213623954200,17.6779541015625,2.307903528213501,0.15417802333831787,-0.05261528864502907
1776442213648971300,17.70297119140625,1.7675389051437378,0.5184098482131958,0.4363735616207123
1776442213673989400,17.7279892578125,1.1817344427108765,0.5322720408439636,0.4367959499359131
1776442213699006200,17.753006103515624,0.936234712600708,0.19454637169837952,0.40879595279693604
1776442213724024300,17.7780244140625,0.5642057657241821,-0.11329076439142227,0.3741897940635681
1776442213749041400,17.80304150390625,0.34714967012405396,0.02085559070110321,-0.25908079743385315
1776442213774059300,17.828059326171875,0.4386724531650543,0.13905185461044312,-0.6032804846763611
1776442213799076400,17.853076416015625,1.2285845279693604,0.12215855717658997,-0.1656830608844757
1776442213824093400,17.878093505859376,1.5158498287200928,0.3099589943885803,0.4085082411766052
1776442213849111300,17.903111328125,1.6581083536148071,0.2099406123161316,0.8880225419998169
1776442213874128400,17.92812841796875,1.5166171789169312,0.2991160452365875,0.9237000346183777
1776442213899146200,17.953146240234375,1.4823108911514282,0.1985660344362259,0.7688273787498474
1776442213924163300,17.978163330078125,1.2177373170852661,-0.0033441688865423203,0.28596004843711853
1776442213949181400,18.003181396484376,0.9004147052764893,-0.041928164660930634,-0.2548764646053314
1776442213974198500,18.028198486328126,0.9807299971580505,-0.08888570964336395,-0.7017812132835388
1776442213999215600,18.053215576171876,1.0017738342285156,-0.03030388429760933,-0.8263887166976929
1776442214024233500,18.0782333984375,1.1692302227020264,0.054371368139982224,-0.722602367401123
1776442214049250600,18.10325048828125,1.2055546045303345,0.044933073222637177,-0.3348824083805084
1776442214074268700,18.1282685546875,1.1282423734664917,0.17397649586200714,-0.2866156995296478
1776442214099285500,18.153285400390626,1.2999471426010132,0.35443970561027527,-0.3443893790245056
1776442214124303600,18.1783037109375,1.3649380207061768,0.18333813548088074,-0.2562979757785797
1776442214149320700,18.20332080078125,1.2124489545822144,0.338733971118927,-0.1263652890920639
1776442214174337300,18.228337158203125,1.4413983821868896,0.40454745292663574,-0.09119045734405518
1776442214199355600,18.253355712890624,1.6285651922225952,0.5332061052322388,-0.3377724885940552
1776442214224372500,18.27837255859375,1.394147276878357,0.49572816491127014,0.04507122188806534
1776442214249390600,18.303390625,1.30354642868042,0.5307009816169739,0.20777517557144165
1776442214274407400,18.328407470703127,1.5628117322921753,0.5092765688896179,0.19918741285800934
1776442214299425500,18.353425537109374,1.6766661405563354,0.3763967454433441,0.13885052502155304
1776442214324442400,18.3784423828125,1.3176326751708984,-0.06909682601690292,0.2524786591529846
1776442214349459500,18.40345947265625,0.7268122434616089,-0.19154486060142517,0.27884623408317566
1776442214374477300,18.428477294921876,0.5767388343811035,0.08107637614011765,0.2329096496105194
1776442214399494400,18.453494384765627,1.022926926612854,0.025312768295407295,0.16165320575237274
1776442214424512500,18.478512451171873,1.5493321418762207,0.42473331093788147,0.02900432050228119
1776442214449529300,18.503529296875,1.6676186323165894,0.7347798943519592,-0.27180370688438416
1776442214474547500,18.52854736328125,1.5932414531707764,0.0459044873714447,-0.4085230231285095
1776442214499564300,18.553564208984376,1.7073936462402344,0.5491736531257629,-0.3046096861362457
1776442214524582400,18.57858251953125,2.0901641845703125,0.05174773186445236,-0.15846741199493408
1776442214549599500,18.603599609375,2.4844295978546143,0.47459879517555237,0.2212751805782318
1776442214574616300,18.6286162109375,2.5246193408966064,0.6016112565994263,0.8587517738342285
1776442214599634400,18.653634521484374,2.2076358795166016,0.80462247133255,0.9263454675674438
1776442214624651500,18.678651611328124,1.9214422702789307,0.8919385671615601,0.7142260074615479
1776442214649669400,18.70366943359375,1.7894773483276367,0.6693699359893799,0.3732410669326782
1776442214674686500,18.7286865234375,1.8395599126815796,0.32973119616508484,-0.19313310086727142
1776442214699704300,18.753704345703124,1.7967543601989746,0.06261817365884781,-0.9337016940116882
1776442214724721400,18.778721435546874,0.8090714812278748,-0.2575191557407379,-1.2123411893844604
1776442214749738500,18.803738525390624,0.7736115455627441,-0.27281883358955383,-0.4096926748752594
1776442214774756400,18.82875634765625,1.8844307661056519,0.02931029163300991,0.44578054547309875
1776442214799773400,18.8537734375,2.6964683532714844,0.18938234448432922,1.1162326335906982
1776442214824791600,18.87879150390625,2.4250073432922363,0.24701188504695892,1.0781657695770264
1776442214849808400,18.903808349609374,1.7976380586624146,0.33806395530700684,0.5680410265922546
1776442214874826500,18.928826416015625,1.2604182958602905,0.12696796655654907,-0.052678417414426804
1776442214899843300,18.95384326171875,1.1018658876419067,-0.009602288715541363,-0.6989977359771729
1776442214924861400,18.978861328125,1.1483181715011597,-0.04247400164604187,-1.3201825618743896
1776442214949878500,19.00387841796875,1.281136393547058,-0.14979854226112366,-1.7752195596694946
1776442214974899200,19.028899169921875,1.1435502767562866,-0.20585036277770996,-1.942450761795044
1776442214999917300,19.053917236328125,0.7945656180381775,-0.3227212727069855,-1.915277123451233
1776442215024934400,19.078934326171876,0.43974676728248596,-0.6781474947929382,-1.7444697618484497
1776442215049952300,19.1039521484375,0.13496196269989014,-0.3214527368545532,-1.2778655290603638
1776442215074969300,19.12896923828125,-0.03800775110721588,-0.22295504808425903,-0.7787449359893799
1776442215099987200,19.1539873046875,0.13825491070747375,-0.06830485165119171,-0.16126695275306702
1776442215125004300,19.17900439453125,0.3655187785625458,-0.19446629285812378,0.2331162691116333
1776442215150021400,19.204021484375,0.37193915247917175,-0.09546366333961487,0.49482953548431396
1776442215175039200,19.229039306640626,0.31168854236602783,0.022707290947437286,0.773361086845398
1776442215200056300,19.254056396484376,0.658015787601471,0.2978058457374573,0.8218907117843628
1776442215225074200,19.27907421875,0.8170870542526245,0.009924540296196938,-0.2093019187450409
1776442215250091300,19.30409130859375,0.631514847278595,-0.0658545270562172,-0.27305400371551514
1776442215275109400,19.329109375,0.7536552548408508,-0.4781198799610138,-0.18632511794567108
1776442215300126200,19.354126220703126,0.6901208758354187,-0.27160191535949707,-0.31114014983177185
1776442215325144300,19.379144287109376,0.6855400800704956,-0.34843090176582336,-0.32312071323394775
1776442215350161400,19.404161376953127,0.4771767854690552,-0.07731140404939651,-0.4613838791847229
1776442215375178000,19.429177978515625,0.8781941533088684,-0.13568373024463654,-0.36230117082595825
1776442215400196400,19.4541962890625,1.1633883714675903,-0.0276113823056221,-0.28239476680755615
1776442215425213200,19.479213134765626,1.1921368837356567,-0.002038584090769291,-0.22691616415977478
1776442215450231300,19.504231201171876,1.2336357831954956,0.37505123019218445,-0.2586750090122223
1776442215475248000,19.529248046875,1.3816035985946655,0.3485705554485321,-0.5084409713745117
1776442215500266200,19.554266357421874,1.3003120422363281,0.0034820903092622757,-0.7519493103027344
1776442215525283000,19.579282958984376,1.0206952095031738,-0.1526445597410202,-0.7713992595672607
1776442215550300200,19.604300048828126,1.0363256931304932,-0.20136378705501556,-0.4912731349468231
1776442215575318000,19.629318115234376,1.3115001916885376,0.011401104740798473,-0.2998320460319519
1776442215600335000,19.654335205078127,1.4374220371246338,0.20622336864471436,-0.10261198878288269
1776442215625353200,19.679353271484374,1.411739706993103,0.11064476519823074,-0.09076812863349915
1776442215650370000,19.7043701171875,1.5804064273834229,-0.05545620992779732,-0.15517355501651764
1776442215675388200,19.72938818359375,1.5067919492721558,-0.19501091539859772,-0.20476093888282776
1776442215700405200,19.7544052734375,1.4118832349777222,0.07093018293380737,-0.15921920537948608
1776442215725423000,19.779423095703127,1.4532902240753174,0.038310639560222626,-0.01654631644487381
1776442215750440200,19.804440185546873,1.7696727514266968,-0.014535045251250267,0.2728945016860962
1776442215775458000,19.8294580078125,1.8789352178573608,-0.0864240974187851,0.41593196988105774
1776442215800475100,19.85447509765625,1.7345197200775146,-0.027263574302196503,0.32047760486602783
1776442215825492200,19.8794921875,1.7309209108352661,-0.01956542208790779,0.2616980969905853
1776442215850510000,19.904510009765627,1.7874841690063477,-0.055430278182029724,0.26867198944091797
1776442215875527200,19.929527099609373,1.8229773044586182,-0.03846471756696701,0.22259338200092316
1776442215900545000,19.954544921875,1.7550592422485352,-0.04398332163691521,0.1117042526602745
1776442215925562000,19.97956201171875,1.5093183517456055,-0.10584594309329987,-0.03452255576848984
1776442215950580200,20.004580322265625,1.3621562719345093,-0.18712221086025238,0.02482525445520878
1776442215975594000,20.029593994140626,1.391767978668213,-0.15039195120334625,0.06949961930513382
1776442216000612000,20.054612060546877,1.4931758642196655,-0.26648327708244324,0.05262358859181404
1776442216025629000,20.07962890625,1.2075427770614624,-0.3199760913848877,-0.2340889275074005
1776442216050646000,20.10464599609375,0.9715947508811951,-0.36252471804618835,-0.32662874460220337
1776442216075664100,20.1296640625,1.1557502746582031,-0.26123154163360596,-0.2183331847190857
1776442216100681000,20.154680908203126,1.4110922813415527,-0.22182175517082214,-0.09964969009160995
1776442216125699000,20.179698974609376,1.5683906078338623,-0.3156287968158722,-0.06285825371742249
1776442216150716200,20.204716064453127,1.9360456466674805,-0.257604718208313,0.05705628916621208
1776442216175734000,20.229734130859374,1.8557090759277344,-0.21369336545467377,0.06123615801334381
1776442216200751000,20.254751220703124,1.6483469009399414,-0.0445934534072876,0.29053258895874023
1776442216225769000,20.27976904296875,1.493893027305603,0.05922754108905792,0.645427942276001
1776442216250786000,20.3047861328125,1.525695562362671,0.18796129524707794,0.5453775525093079
1776442216275803100,20.32980322265625,1.439335584640503,0.28676652908325195,0.23776166141033173
1776442216300821000,20.354821044921874,1.474894642829895,-0.059006161987781525,0.2556838393211365
1776442216325838000,20.379838134765624,1.4392390251159668,-0.25186121463775635,0.04749114438891411
1776442216350856200,20.404856201171874,1.3791462182998657,-0.1308029145002365,-0.15046270191669464
1776442216375873000,20.429873046875,1.314658284187317,-0.019218534231185913,-0.32973340153694153
1776442216400891100,20.45489111328125,1.2824349403381348,-0.002106916159391403,-0.49954670667648315
1776442216425908000,20.479907958984374,1.6584110260009766,-0.05541195720434189,-0.08735601603984833
1776442216450926000,20.504926025390624,1.9066500663757324,-0.08679469674825668,-0.039508529007434845
1776442216475943200,20.529943115234374,1.8467814922332764,-0.0280618816614151,-0.08983460813760757
1776442216500960000,20.5549599609375,1.9767358303070068,-0.37996259331703186,-0.21196185052394867
1776442216525978000,20.57997802734375,2.1309382915496826,-0.4054429531097412,-0.0703095942735672
1776442216550995200,20.6049951171875,2.2675790786743164,-0.502729058265686,0.05437590554356575
1776442216576013000,20.630012939453124,2.6144914627075195,-0.5063252449035645,0.2240910828113556
1776442216601030100,20.655030029296874,2.351022243499756,-0.5938178300857544,0.43799638748168945
1776442216626048000,20.680048095703125,1.913334608078003,-0.7789581418037415,0.5913860201835632
1776442216651065000,20.705065185546875,1.9540387392044067,-0.7640761137008667,0.7519350051879883
1776442216676083200,20.730083251953126,2.280161142349243,-0.4383305311203003,0.8309195637702942
1776442216701100000,20.75510009765625,2.4781548976898193,-0.34428808093070984,0.6502182483673096
1776442216726117000,20.7801171875,2.488233804702759,-0.2568014860153198,0.1985548585653305
1776442216751135200,20.80513525390625,2.230790853500366,-0.3185160756111145,-0.4060702919960022
1776442216776152000,20.830152099609375,2.1268577575683594,-0.3050004541873932,-0.8581262230873108
1776442216801170200,20.855170166015625,2.291752576828003,-0.4596492350101471,-0.9839439988136292
1776442216826187000,20.88018701171875,2.3229153156280518,-0.429288774728775,-0.9059101939201355
1776442216851205000,20.905205078125,2.3012123107910156,-0.2287936508655548,-0.790148138999939
1776442216876222200,20.93022216796875,2.1341943740844727,-0.029772257432341576,-0.5133690237998962
1776442216901240000,20.955239990234375,1.945067048072815,0.012475796975195408,-0.14180637896060944
1776442216926257200,20.980257080078125,1.9140233993530273,0.1887858510017395,0.15690143406391144
1776442216951275000,21.00527490234375,1.9862890243530273,0.36935314536094666,0.3433839976787567
1776442216976291600,21.03029150390625,2.1345667839050293,0.33360105752944946,0.4609726071357727
1776442217001308700,21.05530859375,2.444840431213379,0.3494727313518524,0.5554251670837402
1776442217026326800,21.080326904296875,2.577336311340332,0.31139910221099854,0.5967552661895752
1776442217051343600,21.105343505859373,2.6497867107391357,0.19458872079849243,0.49316370487213135
1776442217076361700,21.13036181640625,2.7078473567962646,0.20960409939289093,0.29808950424194336
1776442217101378600,21.155378662109374,2.6453495025634766,0.24023523926734924,0.312562495470047
1776442217126396700,21.180396728515625,2.671746253967285,0.2585448622703552,0.5035719275474548
1776442217151413800,21.205413818359375,2.118342638015747,0.08976808190345764,0.7843471169471741
1776442217176431600,21.230431640625,1.534412145614624,0.1179921105504036,0.9966143369674683
1776442217201448700,21.25544873046875,1.6602541208267212,0.42600715160369873,0.9918827414512634
1776442217226465800,21.2804658203125,2.143542766571045,0.8686371445655823,0.772916316986084
1776442217251483600,21.305483642578125,2.5523147583007812,1.0713472366333008,0.3362697660923004
1776442217276500700,21.330500732421875,2.090186595916748,0.9760640859603882,0.032425519078969955
1776442217301518600,21.3555185546875,1.4955668449401855,0.5640995502471924,0.06453997641801834
1776442217326535700,21.38053564453125,1.5310364961624146,0.2803894877433777,0.5277795195579529
1776442217351553800,21.4055537109375,1.2465637922286987,0.7048447132110596,0.5627378821372986
1776442217376570600,21.430570556640625,0.8770559430122375,0.4364866316318512,0.18007218837738037
1776442217401588700,21.455588623046875,1.0266467332839966,-0.10421252250671387,0.5047665238380432
1776442217426605800,21.480605712890625,1.599746584892273,-0.1598397195339203,0.6048597693443298
1776442217451622400,21.505622314453124,1.420273780822754,-0.015055742114782333,0.5597898960113525
1776442217476640800,21.530640869140626,1.1301473379135132,0.1372717320919037,0.6020339131355286
1776442217501657600,21.55565771484375,1.0607199668884277,-0.14505718648433685,0.5384466052055359
1776442217526675700,21.58067578125,1.1823323965072632,-0.09673823416233063,0.7459158301353455
1776442217551692500,21.605692626953125,1.4546613693237305,-0.09678134322166443,0.20005276799201965
1776442217576710700,21.630710693359376,1.8045017719268799,-0.16003432869911194,-0.5732897520065308
1776442217601727500,21.6557275390625,2.4294025897979736,-0.25815117359161377,-1.0051687955856323
1776442217626745600,21.68074560546875,2.6042699813842773,-0.3762432932853699,-0.96966552734375
1776442217651762400,21.705762451171875,2.163648843765259,-0.3998928666114807,-0.5634869933128357
1776442217676780800,21.73078076171875,1.5694061517715454,-0.5524723529815674,-0.14259986579418182
1776442217701797400,21.75579736328125,1.4864802360534668,-1.0845425128936768,0.2298799455165863
1776442217726814500,21.780814453125,1.4045969247817993,-1.5929975509643555,0.5114662051200867
1776442217751832600,21.80583251953125,1.017964482307434,-1.9807647466659546,0.4375721216201782
1776442217776849400,21.830849365234375,0.7779090404510498,-1.7177343368530273,0.2651407718658447
1776442217801867500,21.855867431640625,0.991932213306427,-1.6550531387329102,0.09919772297143936
1776442217826884600,21.880884521484376,1.1161503791809082,-1.982925534248352,-0.19081686437129974
1776442217851902500,21.90590234375,1.1012122631072998,-1.8818683624267578,0.06704635173082352
1776442217876919600,21.93091943359375,0.9343691468238831,-1.7204487323760986,0.18107853829860687
1776442217901937400,21.9559375,0.9157786965370178,-2.210737705230713,0.4437568783760071
1776442217926954500,21.98095458984375,0.7655354142189026,-2.4637391567230225,0.7766373753547668
1776442217951971600,22.0059716796875,0.8212875127792358,-2.2722930908203125,1.2829951047897339
1776442217976990000,22.030989990234374,0.6895146369934082,-1.5854202508926392,1.659651279449463
1776442218002007000,22.056007080078125,0.9796873927116394,-1.4461504220962524,1.5670673847198486
1776442218027025000,22.08102490234375,1.8696106672286987,-2.1300125122070312,0.4448298215866089
1776442218052042000,22.1060419921875,2.007786989212036,-1.637856125831604,0.2124306559562683
1776442218077060000,22.13106005859375,1.8733057975769043,-1.291613221168518,0.2765963673591614
1776442218102077000,22.156076904296874,2.086852550506592,-1.510777473449707,0.2801278531551361
1776442218127095000,22.181094970703125,1.691329836845398,-1.6545593738555908,0.6123414635658264
1776442218152112000,22.206112060546875,1.2016375064849854,-1.7638750076293945,1.1247899532318115
1776442218177130000,22.2311298828125,1.0077338218688965,-1.7304490804672241,1.3318675756454468
1776442218202147000,22.25614697265625,1.1490263938903809,-1.8586302995681763,1.07742178440094
1776442218227164000,22.281163818359374,1.0402746200561523,-1.6144733428955078,1.0737067461013794
1776442218252182000,22.30618212890625,1.2451719045639038,-1.2786635160446167,1.1046584844589233
1776442218277199000,22.33119921875,1.2394859790802002,-1.1543174982070923,0.9946161508560181
1776442218302217000,22.356217041015626,1.1312886476516724,-1.2212952375411987,1.001381754875183
1776442218327234000,22.381234130859376,0.8570727109909058,-1.4062342643737793,1.4209619760513306
1776442218352252000,22.406251953125,0.2526218295097351,-1.0048024654388428,2.0928759574890137
1776442218377269000,22.43126904296875,0.7958406209945679,-0.8916636109352112,2.2953641414642334
1776442218402287000,22.456287109375,1.3790878057479858,-0.836827278137207,2.1299116611480713
1776442218427304000,22.481303955078126,1.2910505533218384,-0.5580759048461914,2.3399908542633057
1776442218452322000,22.506322021484376,0.8432550430297852,-0.3273855149745941,2.440491199493408
1776442218477339100,22.531339111328126,0.8065186738967896,-0.7892216444015503,2.507375955581665
1776442218502356000,22.55635595703125,0.771241307258606,-0.6917589902877808,2.5848166942596436
1776442218527374000,22.5813740234375,0.6049225330352783,-0.6436439156532288,2.616243362426758
1776442218552391200,22.60639111328125,0.6628453135490417,-0.11165978014469147,2.2571675777435303
1776442218577409000,22.631408935546876,0.974518358707428,0.02381080761551857,1.7843520641326904
1776442218602426000,22.656426025390626,1.0077927112579346,-0.1428307443857193,1.5597749948501587
1776442218627444000,22.68144384765625,0.6422479748725891,-0.06785541772842407,1.350156307220459
1776442218652461000,22.7064609375,0.5294256806373596,-0.6852552890777588,0.9991455674171448
1776442218677479000,22.73147900390625,0.3545167148113251,-0.612493097782135,0.8538778424263
1776442218702496000,22.75649609375,0.34345364570617676,-0.5239596366882324,1.2202246189117432
1776442218727514000,22.78151416015625,0.3185848295688629,-0.5675737261772156,1.4551454782485962
1776442218752531000,22.806531005859377,0.453896164894104,-0.4676891565322876,1.538055658340454
1776442218777548000,22.831548095703123,0.4538503587245941,0.02098892256617546,1.3429474830627441
1776442218802566100,22.856566162109374,0.3258681297302246,0.3571411371231079,0.8856106996536255
1776442218827583000,22.8815830078125,0.4297557473182678,-0.09285253286361694,0.7700671553611755
1776442218852601000,22.90660107421875,0.4717560112476349,-0.4070809483528137,1.0557516813278198
1776442218877618200,22.9316181640625,0.40864989161491394,-0.31035393476486206,1.3302277326583862
1776442218902636000,22.956635986328124,0.689461886882782,0.025199707597494125,0.9445481896400452
1776442218927653000,22.981653076171874,0.6421579718589783,0.11569757759571075,0.4551790952682495
1776442218952671000,23.0066708984375,0.291413277387619,0.03840179741382599,0.8463925719261169
1776442218977687300,23.031687255859374,0.07751040905714035,-0.012647445313632488,0.9386269450187683
1776442219002705700,23.05670556640625,0.11434637755155563,-0.41782161593437195,0.7691603302955627
1776442219027722200,23.08172216796875,0.5874680280685425,-0.8518002033233643,0.7806831002235413
1776442219052739300,23.1067392578125,0.37179040908813477,-0.7608377933502197,1.4919120073318481
1776442219077757400,23.13175732421875,0.3341081142425537,-0.3992537260055542,2.0559449195861816
1776442219102774300,23.156774169921874,0.3535052537918091,-0.24398958683013916,1.8439141511917114
1776442219127792400,23.18179248046875,0.021197635680437088,-1.3162052631378174,0.4616270661354065
1776442219152809500,23.2068095703125,-0.2360803782939911,-0.4977780282497406,0.6421927809715271
1776442219177827300,23.231827392578126,-0.12577465176582336,-0.15737415850162506,1.0357602834701538
1776442219202844400,23.256844482421876,0.06610918045043945,0.555525541305542,1.3004786968231201
1776442219227862300,23.2818623046875,0.273454874753952,-0.08088119328022003,1.4916861057281494
1776442219252879400,23.30687939453125,0.07645101845264435,-0.05403973162174225,1.7602040767669678
1776442219277897500,23.3318974609375,0.20703858137130737,0.020611442625522614,1.7367032766342163
1776442219302914300,23.356914306640626,0.2615133225917816,0.47967320680618286,1.9764338731765747
1776442219327931400,23.381931396484376,0.25385767221450806,0.8728739619255066,2.3507392406463623
1776442219352949500,23.406949462890626,0.008095773868262768,-0.9676926136016846,2.4633071422576904
1776442219377966300,23.43196630859375,-0.13993868231773376,-1.4787534475326538,2.113405227661133
1776442219402984400,23.456984375,0.03365594521164894,0.1616346687078476,1.7988719940185547
1776442219428001300,23.482001220703125,-0.17832385003566742,1.3873838186264038,1.3682140111923218
1776442219453019400,23.507019287109376,-0.6892696022987366,0.8070645928382874,0.7226607203483582
1776442219478036500,23.532036376953126,-1.1516467332839966,-0.5181425213813782,1.2372674942016602
1776442219503054300,23.557054443359377,-0.9154342412948608,-0.2670673727989197,2.1913440227508545
1776442219528071400,23.582071533203123,-0.5575636029243469,-0.14455316960811615,2.368217945098877
1776442219553089300,23.60708935546875,-0.2145799696445465,-0.3896472752094269,2.2468104362487793
1776442219578106400,23.6321064453125,0.13508093357086182,-0.899786114692688,2.0116655826568604
1776442219603124500,23.65712451171875,0.3610093891620636,-0.67843097448349,2.045078754425049
1776442219628141300,23.682141357421877,0.5374747514724731,-0.5451905131340027,2.0953283309936523
1776442219653158400,23.707158447265623,0.8196098208427429,-0.6604873538017273,2.142540216445923
1776442219678176500,23.732176513671874,0.8707724213600159,-1.0353418588638306,2.133845567703247
1776442219703193300,23.757193359375,0.5979382991790771,-1.4170008897781372,2.2207651138305664
1776442219728211500,23.78221142578125,0.25891759991645813,-0.7118436694145203,2.188180923461914
1776442219753228500,23.807228515625,0.25411272048950195,0.913646399974823,2.0439326763153076
1776442219778246400,23.832246337890624,0.2981390058994293,0.8013014793395996,1.81088125705719
1776442219803263500,23.857263427734374,0.1458243578672409,0.2124592810869217,1.6098153591156006
1776442219828281300,23.88228125,0.06431662291288376,0.4848387837409973,1.3828129768371582
1776442219853298400,23.90729833984375,0.17496071755886078,0.708020031452179,1.1739287376403809
1776442219878316300,23.93231640625,0.24073737859725952,0.42764008045196533,0.9649664759635925
1776442219903333400,23.95733349609375,0.17802953720092773,0.07006347924470901,0.9805037379264832
1776442219928350500,23.9823505859375,0.12964369356632233,0.6904531121253967,1.0052013397216797
1776442219953368300,24.007368408203124,0.2553603947162628,0.4948680102825165,0.8341965675354004
1776442219978385400,24.032385498046875,0.3650784492492676,-0.24496132135391235,0.675704836845398
1776442220003403500,24.057403564453125,0.22703641653060913,-0.4338299334049225,0.8018621206283569
1776442220028420400,24.08242041015625,0.07829011976718903,-0.10035961866378784,0.9947392344474792
1776442220053438500,24.1074384765625,0.20031499862670898,-0.2272416055202484,1.001334309577942
1776442220078455600,24.13245556640625,0.27180925011634827,-0.4348263144493103,1.0095539093017578
1776442220103473400,24.157473388671875,0.06771734356880188,-0.312677800655365,1.2204251289367676
1776442220128490500,24.182490478515625,-0.06619429588317871,-0.006495809648185968,1.3807555437088013
1776442220153508400,24.20750830078125,-0.0729835033416748,-0.19311831891536713,1.3230879306793213
1776442220178525400,24.232525390625,0.21299748122692108,-0.40661370754241943,1.1278804540634155
1776442220203543600,24.25754345703125,-0.05556803196668625,-0.23118367791175842,0.9554625153541565
1776442220228560400,24.282560302734375,0.20882029831409454,-0.4455834925174713,0.6945598721504211
1776442220253577500,24.307577392578125,0.5799655914306641,-0.5215442776679993,0.6746886372566223
1776442220278595300,24.33259521484375,0.38616448640823364,-0.23988692462444305,0.8197669982910156
1776442220303612400,24.3576123046875,0.023266393691301346,-0.17884427309036255,1.060947060585022
1776442220328630500,24.382630615234376,0.080373115837574,-0.005553527269512415,1.4916102886199951
1776442220353647400,24.4076474609375,-0.06613712012767792,0.028714284300804138,1.6881061792373657
1776442220378665500,24.43266552734375,-0.2882716655731201,0.15070660412311554,1.567552924156189
1776442220403682600,24.4576826171875,-0.16645894944667816,-0.20863905549049377,1.3759108781814575
1776442220428700400,24.482700439453126,-0.044818054884672165,-0.5470196604728699,1.2909741401672363
1776442220453717500,24.507717529296876,-0.08220381289720535,-0.37800806760787964,1.5023548603057861
1776442220478735400,24.5327353515625,-0.24862957000732422,-0.10558861494064331,1.7438114881515503
1776442220503752400,24.55775244140625,0.0016987072303891182,-0.030511455610394478,2.035886764526367
1776442220528770600,24.5827705078125,0.33002138137817383,0.20541495084762573,2.1089060306549072
1776442220553787400,24.607787353515626,0.48504355549812317,0.5552844405174255,1.9552021026611328
1776442220578804500,24.632804443359376,0.6910132765769958,0.44708549976348877,1.7951207160949707
1776442220603822600,24.657822509765627,0.5066177845001221,0.5120474696159363,1.4359568357467651
1776442220628839400,24.68283935546875,0.13929568231105804,0.30373671650886536,1.0800046920776367
1776442220653857500,24.707857421875,-0.4127403199672699,0.15694265067577362,0.8806368112564087
1776442220678874400,24.732874267578126,-0.3735258877277374,0.03118051402270794,0.8548917770385742
1776442220703892500,24.757892578125,0.25520455837249756,0.030315138399600983,0.8621025681495667
1776442220728909600,24.78290966796875,0.39561477303504944,0.5252902507781982,0.8905971646308899
1776442220753927400,24.807927490234373,0.4247184991836548,0.6582575440406799,0.8871711492538452
1776442220778944500,24.832944580078124,0.19153448939323425,0.5339460968971252,0.740548312664032
1776442220803962400,24.85796240234375,-0.0808776468038559,0.3480394780635834,0.44445011019706726
1776442220828979500,24.8829794921875,-0.12089736014604568,0.09347296506166458,0.1465441733598709
1776442220853996300,24.907996337890626,-0.14686088263988495,0.046355217695236206,0.16592353582382202
1776442220879014400,24.933014404296873,-0.05867086350917816,0.19351717829704285,0.1868131160736084
1776442220904031200,24.95803125,-0.17028099298477173,0.38873013854026794,0.4011608362197876
1776442220929049600,24.983049560546874,-0.10437163710594177,0.41100576519966125,0.8296847939491272
1776442220954066200,25.008066162109376,-0.122536800801754,0.13518640398979187,0.5277771949768066
1776442220979085000,25.0330849609375,-0.06154606491327286,0.26966869831085205,0.2402070015668869
1776442221004102000,25.058101806640625,0.021343884989619255,0.025319701060652733,0.061817217618227005
1776442221029120000,25.0831201171875,-0.05419347807765007,-0.008147936314344406,0.4503346085548401
1776442221054137000,25.10813720703125,-0.3004757761955261,0.4407224655151367,1.76131010055542
1776442221079155000,25.133155029296876,0.21185998618602753,0.07751153409481049,1.5047197341918945
1776442221104172000,25.158172119140627,0.06618072092533112,0.23263591527938843,1.6191283464431763
1776442221129190000,25.18318994140625,0.05066198110580444,0.3832228183746338,2.0870816707611084
1776442221154207000,25.20820703125,0.33118897676467896,0.0418931320309639,2.214711904525757
1776442221179225000,25.23322509765625,0.3838042914867401,0.25683966279029846,1.790591835975647
1776442221204242000,25.258241943359376,0.2790828347206116,0.5213730931282043,1.0558459758758545
1776442221229260000,25.283260009765623,0.18228991329669952,0.31949514150619507,0.30213749408721924
1776442221254276900,25.30827685546875,-0.1335412710905075,0.22884997725486755,-0.38264864683151245
1776442221279295000,25.333294921875,-0.06489013135433197,0.523456335067749,-0.8292604684829712
1776442221304312000,25.35831201171875,0.19482281804084778,0.7402843832969666,-0.750800371170044
1776442221329329000,25.383328857421876,0.10802005231380463,0.10187017917633057,-0.5019578337669373
1776442221354347000,25.408346923828127,0.29384008049964905,0.1295195072889328,-0.2683548033237457
1776442221379364000,25.433364013671873,0.07245375216007233,0.06919319927692413,-0.12086275219917297
1776442221404382000,25.4583818359375,-0.4041668176651001,0.15986008942127228,-0.30094650387763977
1776442221429399000,25.48339892578125,-0.3564028739929199,0.268924355506897,-0.5869905948638916
1776442221454417000,25.5084169921875,-0.008298492059111595,0.6214542984962463,-0.3362281322479248
1776442221479434000,25.53343408203125,0.2565550208091736,0.1838875412940979,0.047733232378959656
1776442221504452000,25.5584521484375,-0.10578574985265732,0.26759448647499084,0.03955060616135597
1776442221529469000,25.583468994140624,-0.44941410422325134,0.34048718214035034,0.255022257566452
1776442221554487000,25.608487060546874,-0.6296929121017456,0.48904186487197876,0.4680855870246887
1776442221579504000,25.633504150390625,-0.06677854806184769,0.8591275215148926,0.33496129512786865
1776442221604522000,25.65852197265625,0.21892347931861877,0.8440032005310059,0.546943724155426
1776442221629539000,25.6835390625,0.07217388600111008,0.22725416719913483,1.035176157951355
1776442221654556200,25.70855615234375,0.16536188125610352,0.7367547154426575,0.9948410391807556
1776442221679574000,25.733573974609374,0.35677528381347656,0.7689470052719116,0.9189361929893494
1776442221704591000,25.758591064453125,0.5110589265823364,0.6354171633720398,1.0075323581695557
1776442221729609000,25.78360888671875,0.6500576734542847,0.1293267458677292,0.9482403993606567
1776442221754626000,25.8086259765625,0.8004847168922424,-0.20481687784194946,0.8877688050270081
1776442221779644000,25.833643798828124,0.8832440972328186,-0.1623377650976181,0.8113576173782349
1776442221804661000,25.858660888671874,0.8892825245857239,-0.42463478446006775,0.45125895738601685
1776442221829679000,25.88367919921875,0.057195473462343216,-0.5875567197799683,0.1769229918718338
1776442221854696000,25.908696044921875,-0.44743502140045166,-0.36991390585899353,-0.12726135551929474
1776442221879714000,25.933714111328126,-0.4600204527378082,-0.8503885865211487,0.1654304713010788
1776442221904731100,25.958731201171876,-0.03688398748636246,-1.0890724658966064,0.3767646253108978
1776442221929748000,25.983748046875,0.4116201400756836,-1.0572073459625244,0.09911339730024338
1776442221954766000,26.00876611328125,0.2651211619377136,-1.0771523714065552,-0.18635359406471252
1776442221979783000,26.033782958984375,0.22376929223537445,-0.6098170280456543,-0.022525956854224205
1776442222004800800,26.05880078125,0.22943443059921265,-0.628738522529602,0.8019124865531921
1776442222029817900,26.08381787109375,-0.014241819269955158,-0.6482157707214355,0.8196632266044617
1776442222054835700,26.108835693359374,-0.05335793271660805,0.010043163783848286,0.4498198926448822
1776442222079852800,26.133852783203125,0.011477098800241947,-0.6994672417640686,0.6645490527153015
1776442222104871000,26.158870849609375,0.22743450105190277,-1.2433968782424927,0.9353180527687073
1776442222129887700,26.1838876953125,0.7586672902107239,-1.3937240839004517,1.4104392528533936
1776442222154905900,26.20890576171875,0.8091105222702026,-1.5273836851119995,1.8581726551055908
1776442222179923000,26.2339228515625,0.4312780797481537,-0.6459924578666687,1.9034913778305054
1776442222204940800,26.25894091796875,0.175754576921463,0.5887014865875244,1.798849105834961
1776442222229958000,26.2839580078125,0.26749885082244873,1.340853214263916,1.821803331375122
1776442222254974700,26.308974609375,0.3075927495956421,0.8885295987129211,1.8998697996139526
1776442222279992800,26.333992919921876,0.22158999741077423,0.02124374732375145,1.913504719734192
1776442222305009700,26.359009765625,-0.04912697151303291,0.02544395998120308,2.005680799484253
1776442222330027800,26.38402783203125,-0.05501376464962959,0.8403419852256775,1.884234070777893
1776442222355044600,26.409044677734375,0.10525436699390411,0.9396347403526306,1.8748749494552612
1776442222380062700,26.434062744140626,0.15609823167324066,0.5135289430618286,2.050682783126831
1776442222405079600,26.45907958984375,0.16241593658924103,0.7626866102218628,2.156327486038208
1776442222430098000,26.484097900390626,0.2449292242527008,0.6749051809310913,2.247972249984741
1776442222455114500,26.509114501953125,0.10737794637680054,-0.3327237665653229,2.3273918628692627
1776442222480132900,26.5341328125,0.04823095351457596,-0.8403511643409729,2.4297304153442383
1776442222505149700,26.559149658203125,0.02828448824584484,-0.6349166035652161,2.485130786895752
1776442222530167800,26.584167724609376,0.19883562624454498,-0.6493819952011108,2.450866222381592
1776442222555184600,26.6091845703125,0.2828110456466675,-0.3888024091720581,2.5449435710906982
1776442222580201700,26.63420166015625,0.16954897344112396,0.31958678364753723,2.4851701259613037
1776442222605219600,26.659219482421875,0.22554129362106323,1.1636210680007935,1.9051138162612915
1776442222630236700,26.684236572265625,0.5116047859191895,2.2788937091827393,1.5257973670959473
1776442222655254500,26.709254638671876,0.6347917318344116,2.6506593227386475,1.4849704504013062
1776442222680271600,26.734271728515626,0.7357689142227173,2.1349592208862305,1.7623742818832397
1776442222705289700,26.759289794921877,0.7251991629600525,0.6753035187721252,2.2663767337799072
1776442222730306600,26.784306640625,0.4978627562522888,-0.23702925443649292,1.8724454641342163
1776442222755324700,26.80932470703125,0.3182864487171173,-0.7001336812973022,0.7834251523017883
1776442222780341500,26.834341552734376,0.4269298315048218,-0.6341707706451416,0.16201794147491455
1776442222805359600,26.859359619140626,0.34973248839378357,-0.11015839874744415,-0.3041335344314575
1776442222830376700,26.884376708984377,0.2900056540966034,0.2611684799194336,-0.4962991774082184
1776442222855394600,26.90939453125,0.17450980842113495,-0.6253698468208313,-0.13707074522972107
1776442222880411600,26.93441162109375,0.08816991001367569,-1.0507043600082397,-0.07558810710906982
1776442222905428700,26.9594287109375,-0.08346125483512878,-0.5023733377456665,-0.10844230651855469
1776442222930446600,26.984446533203126,-0.07977733761072159,-0.45686274766921997,-0.2625206708908081
1776442222955463700,27.009463623046877,-0.07681690156459808,-0.595017671585083,-0.22259339690208435
1776442222980485600,27.034485595703124,-0.1273077428340912,-1.2669694423675537,0.03566490486264229
1776442223005502700,27.059502685546875,-0.18471543490886688,-1.4598259925842285,0.20585981011390686
1776442223030520600,27.0845205078125,-0.09102681279182434,-0.8111146092414856,0.25173017382621765
1776442223055537700,27.10953759765625,0.024901703000068665,-0.4175034165382385,0.20938652753829956
1776442223080555800,27.1345556640625,0.06987318396568298,-0.6184837222099304,0.11520875990390778
1776442223105572600,27.159572509765624,-0.04460909590125084,-1.1256136894226074,0.2713392972946167
1776442223130590700,27.1845908203125,0.05833909660577774,-1.0285542011260986,0.6580882668495178
1776442223155607800,27.20960791015625,0.7740606069564819,1.860862135887146,1.4413255453109741
1776442223180624600,27.234624755859375,0.16788558661937714,2.231471300125122,1.2027075290679932
1776442223205642800,27.259642822265626,0.36076119542121887,0.10388439893722534,1.59754478931427
1776442223230659800,27.284659912109376,0.3472904562950134,0.5185784697532654,0.9560391306877136
1776442223255677700,27.309677734375,0.45752421021461487,1.0254288911819458,0.6420071721076965
1776442223280694800,27.33469482421875,0.39726781845092773,0.15201234817504883,0.6869193911552429
1776442223305712600,27.359712646484375,0.08188983798027039,0.17292259633541107,0.5864229202270508
1776442223330729700,27.384729736328126,0.060217536985874176,0.2315131425857544,0.6774330139160156
1776442223355747600,27.40974755859375,0.15301668643951416,0.270561546087265,0.7813481092453003
1776442223380764700,27.4347646484375,0.1694413274526596,0.07651406526565552,1.0433051586151123
1776442223405782800,27.45978271484375,0.05823200196027756,0.026166532188653946,1.2777005434036255
1776442223430799600,27.484799560546875,-0.09068366140127182,0.09432720392942429,1.204638123512268
1776442223455817700,27.509817626953126,-0.4070165753364563,-0.5735653042793274,1.3823591470718384
1776442223480834800,27.534834716796876,-0.6129613518714905,-0.5115860104560852,1.7379752397537231
1776442223505851600,27.5598515625,-0.5958578586578369,-0.2957528233528137,2.0863661766052246
1776442223530869800,27.584869873046873,-0.3630942702293396,0.14180055260658264,2.2449028491973877
1776442223555886800,27.609886962890624,-0.09928064793348312,0.6021665930747986,2.2659811973571777
1776442223580904700,27.63490478515625,-0.14204880595207214,0.7903239727020264,2.3270411491394043
1776442223605921800,27.659921875,-0.15891094505786896,0.35859978199005127,2.476426124572754
1776442223630939600,27.684939697265627,-0.44858404994010925,-0.8395026326179504,2.2398340702056885
1776442223655956700,27.709956787109373,-1.236225962638855,-0.9888725876808167,1.8041555881500244
1776442223680974800,27.734974853515624,-1.4420411586761475,-0.7206162214279175,1.4648053646087646
1776442223705991700,27.75999169921875,-1.0577632188796997,-0.39102205634117126,1.6032730340957642
1776442223731009800,27.785009765625,-0.4309423863887787,-0.24079076945781708,1.6411195993423462
1776442223756026600,27.810026611328126,-0.014725740998983383,-0.5105118751525879,1.5655754804611206
1776442223781044700,27.835044677734373,-0.29360759258270264,-0.5240496397018433,1.5770949125289917
1776442223806061800,27.860061767578124,-0.5679008960723877,-0.3506547510623932,1.7196160554885864
1776442223831078700,27.88507861328125,-0.23845289647579193,-0.7125204801559448,1.7871387004852295
1776442223856096800,27.9100966796875,0.062296681106090546,-0.8561773300170898,1.7005254030227661
1776442223881113600,27.935113525390626,0.14764319360256195,-0.6502728462219238,1.602746605873108
1776442223906131700,27.960131591796873,0.38534992933273315,-0.248130664229393,1.735842227935791
1776442223931148500,27.9851484375,0.5712653994560242,-0.22520966827869415,1.6860612630844116
1776442223956166700,28.010166748046874,0.42007869482040405,-0.5415708422660828,1.3374465703964233
1776442223981180400,28.035180419921875,0.13944484293460846,-0.7541040182113647,1.0324252843856812
1776442224006198500,28.060198486328126,-0.17449651658535004,-0.38895028829574585,0.8717753291130066
1776442224031215400,28.08521533203125,-0.471179723739624,0.21630126237869263,1.362434983253479
1776442224056233500,28.1102333984375,0.05652207136154175,-0.3227635324001312,1.5240306854248047
1776442224081250300,28.135250244140625,0.10028370469808578,-0.8842925429344177,0.9699607491493225
1776442224106267400,28.160267333984375,0.25232982635498047,-0.9264801144599915,0.6098424196243286
1776442224131285500,28.185285400390626,0.17773132026195526,-0.5126973986625671,0.12640461325645447
1776442224156302300,28.21030224609375,-0.2639615535736084,-0.05755355581641197,0.3808557391166687
1776442224181320400,28.235320556640627,-0.6187933087348938,0.3026081919670105,0.7951532602310181
1776442224206337500,28.260337646484373,-0.7679099440574646,0.4158601760864258,0.7089104652404785
1776442224231355400,28.28535546875,-0.4018928110599518,0.474774032831192,0.9875059127807617
1776442224256372500,28.31037255859375,0.01339086052030325,0.17384067177772522,1.171820044517517
1776442224281390300,28.335390380859376,0.1128930002450943,0.16920343041419983,1.3749598264694214
1776442224306407400,28.360407470703127,0.09416136145591736,0.20566843450069427,1.6123816967010498
1776442224331425500,28.385425537109374,0.12160191684961319,0.3262366056442261,1.7759881019592285
1776442224356442400,28.4104423828125,-0.09764952212572098,-0.059689782559871674,1.8456964492797852
1776442224381460500,28.43546044921875,-0.25973963737487793,-0.06128570809960365,1.6472914218902588
1776442224406477600,28.4604775390625,-0.07754474133253098,0.03900030627846718,1.1920160055160522
1776442224431494400,28.485494384765627,0.2615281939506531,0.19414600729942322,0.8155785202980042
1776442224456512500,28.510512451171873,0.7104257941246033,0.23715350031852722,0.7643728852272034
1776442224481529600,28.535529541015624,0.635546863079071,0.45572125911712646,-1.1646498441696167
1776442224506547500,28.56054736328125,0.3342365324497223,0.5426631569862366,-1.1447793245315552
1776442224531564500,28.585564453125,0.5009801983833313,0.0953935980796814,-0.665228545665741
1776442224556582400,28.61058251953125,0.49006250500679016,-0.05221109464764595,0.6171625256538391
1776442224581599500,28.635599609375,0.5630092620849609,-0.02209603041410446,1.2961227893829346
1776442224606617300,28.660617431640624,0.6984583735466003,-0.08780817687511444,0.9099928140640259
1776442224631634400,28.685634521484374,0.5026354193687439,-0.15734651684761047,0.5511760115623474
1776442224656652500,28.710652587890625,0.030817192047834396,-0.0809081569314003,0.8118348121643066
1776442224681669400,28.73566943359375,-0.46085381507873535,0.42191842198371887,1.2266169786453247
1776442224706687500,28.7606875,-0.5308493375778198,0.6404131054878235,1.1251194477081299
1776442224731704600,28.78570458984375,-0.4136776924133301,1.1080453395843506,0.45227980613708496
1776442224756721400,28.810721435546874,-0.5958353281021118,2.03120493888855,0.5080150961875916
1776442224781739500,28.835739501953125,-0.5103358030319214,1.4598921537399292,1.1041431427001953
1776442224806756600,28.860756591796875,-0.5271939635276794,1.0910053253173828,1.3544261455535889
1776442224831774500,28.8857744140625,-0.2763992249965668,0.5650016069412231,1.546310305595398
1776442224856791600,28.91079150390625,0.031865958124399185,0.7355064153671265,1.6485681533813477
1776442224881809400,28.935809326171874,0.013147341087460518,0.88432377576828,1.748572587966919
1776442224906826500,28.960826416015625,0.18364298343658447,1.5406241416931152,1.914430856704712
1776442224931844400,28.98584423828125,0.3636087477207184,1.8326400518417358,1.7382700443267822
1776442224956861400,29.010861328125,0.527859628200531,1.2918498516082764,1.0689671039581299
1776442224981879300,29.03587939453125,0.6807630658149719,0.3127106726169586,0.6922796964645386
1776442225006896000,29.060896240234374,0.700387716293335,0.16023868322372437,1.0245236158370972
1776442225031913000,29.085912841796876,0.5138357877731323,0.20028367638587952,1.4809365272521973
1776442225056931000,29.11093115234375,0.1776808202266693,0.6765801906585693,1.6009594202041626
1776442225081948200,29.1359482421875,0.25044795870780945,0.2739548683166504,1.428282380104065
1776442225106966000,29.160966064453124,0.45850080251693726,0.04198358207941055,1.3432745933532715
1776442225131983000,29.185983154296874,0.6920298337936401,0.2000449150800705,1.2013462781906128
1776442225157001000,29.2110009765625,0.945233166217804,-0.27350449562072754,1.0580942630767822
1776442225182018000,29.23601806640625,1.0195510387420654,-0.38763052225112915,1.1060808897018433
1776442225207036000,29.261035888671874,1.1054836511611938,-0.09774050116539001,1.2615753412246704
1776442225232053000,29.286052978515624,1.2427592277526855,-0.12307935953140259,1.3643615245819092
1776442225257071000,29.311071044921874,1.272384524345398,-0.28011253476142883,1.47957181930542
1776442225282088000,29.336087890625,1.0184354782104492,-0.10124459117650986,1.8673187494277954
1776442225307106000,29.36110595703125,0.7530027627944946,0.022814152762293816,2.185276985168457
1776442225332123100,29.386123046875,0.49564144015312195,-0.06482239812612534,2.125718832015991
1776442225357140000,29.411139892578124,0.4357321560382843,-0.21893936395645142,1.6870383024215698
1776442225382158000,29.436157958984374,0.5240191221237183,-0.2964160442352295,1.5216777324676514
1776442225407175200,29.461175048828125,0.5418839454650879,-0.12672559916973114,1.5728237628936768
1776442225432193000,29.486193115234375,0.4772622585296631,0.013173243030905724,1.442672610282898
1776442225457210000,29.511210205078125,0.5119159817695618,-0.15827631950378418,1.5265209674835205
1776442225482228000,29.53622802734375,0.5302752256393433,-0.07170138508081436,1.567675232887268
1776442225507245000,29.5612451171875,0.38307493925094604,-0.2941605746746063,1.7659502029418945
1776442225532263200,29.58626318359375,0.09577072411775589,0.035844944417476654,1.9878385066986084
1776442225557280000,29.611280029296875,-0.1742052286863327,0.09902560710906982,2.0667002201080322
1776442225582298000,29.636298095703125,-0.2787119150161743,-0.08337333798408508,1.9025388956069946
1776442225607315000,29.66131494140625,-0.48335734009742737,-0.3570753037929535,1.7513481378555298
1776442225632332000,29.68633203125,-0.723442018032074,-0.247765451669693,1.8337767124176025
1776442225657350100,29.71135009765625,-0.6638220548629761,-0.2152835875749588,2.0853304862976074
1776442225682367000,29.736366943359375,-0.4161466360092163,-0.4664932191371918,2.064709186553955
1776442225707385000,29.761385009765625,-0.23785357177257538,-0.5028018355369568,1.8834863901138306
1776442225732402200,29.786402099609376,-0.021602263674139977,-0.7338443994522095,1.7909108400344849
1776442225757420000,29.811419921875,-0.011012323200702667,-0.7676608562469482,1.8506892919540405
1776442225782437000,29.83643701171875,-0.08643776923418045,-0.6829191446304321,1.7964582443237305
1776442225807455000,29.861455078125,-0.164690762758255,-0.4519895017147064,1.6141222715377808
1776442225832472000,29.88647216796875,-0.14009396731853485,-0.1452733427286148,1.3561064004898071
1776442225857490200,29.911490234375,0.312898188829422,-0.448735773563385,1.2003440856933594
1776442225882507000,29.936507080078126,0.8441635966300964,-0.7287760376930237,1.143384337425232
1776442225907524000,29.961524169921876,0.9002231359481812,-0.26498645544052124,0.8941383361816406
1776442225932542200,29.986542236328123,0.5811825394630432,-0.13739043474197388,0.8817193508148193
1776442225957559000,30.01155908203125,0.3305734395980835,0.2691895067691803,1.3528671264648438
1776442225982576600,30.03657666015625,-0.3153035342693329,0.2738356292247772,2.185931921005249
1776442226007593700,30.06159375,-0.46360573172569275,0.42165637016296387,2.9904823303222656
1776442226032611600,30.086611572265625,-0.30821165442466736,0.4860016703605652,3.6296541690826416
1776442226057628700,30.111628662109375,-0.07812477648258209,0.7051079869270325,3.8707330226898193
1776442226082646500,30.136646484375,0.43655166029930115,0.7441734075546265,3.7842581272125244
1776442226107663600,30.16166357421875,0.9523364901542664,0.6633577346801758,3.749495267868042
1776442226132681700,30.186681640625,1.2067084312438965,0.4514574110507965,3.880528450012207
1776442226157698600,30.211698486328125,1.2684732675552368,-0.005549646448343992,3.814732789993286
1776442226182715600,30.236715576171875,1.329257607460022,-0.010314516723155975,3.4234979152679443
1776442226207733500,30.2617333984375,1.3342015743255615,-0.07994658499956131,3.046842336654663
1776442226232750600,30.28675048828125,1.3964335918426514,-0.035626739263534546,3.1902053356170654
1776442226257768700,30.311768798828126,1.3487849235534668,-0.23440030217170715,3.322697162628174
1776442226282785500,30.33678564453125,0.9701626300811768,-0.10764900594949722,3.0609545707702637
1776442226307803600,30.3618037109375,0.6848947405815125,0.16755476593971252,2.743917942047119
1776442226332820700,30.38682080078125,0.6892196536064148,0.09228088706731796,2.539806842803955
1776442226357838600,30.411838623046876,0.6583480834960938,-0.07135694473981857,2.2393665313720703
1776442226382855700,30.436855712890626,0.5488103628158569,0.08142631500959396,2.0193288326263428
1776442226407873500,30.46187353515625,0.683408796787262,0.14300398528575897,2.0292794704437256
1776442226432890600,30.486890625,0.7079951167106628,0.30196529626846313,2.0035383701324463
1776442226457908700,30.51190869140625,0.3966866731643677,0.315673291683197,1.8357592821121216
1776442226482925600,30.536925537109376,0.14888928830623627,-0.0042882151901721954,1.2966910600662231
1776442226507942700,30.561942626953126,0.40088215470314026,0.07277137041091919,1.1716080904006958
1776442226532960800,30.586960693359377,0.9086641669273376,0.4093802273273468,1.5300811529159546
1776442226557977600,30.6119775390625,0.6951467990875244,0.6837191581726074,2.2588961124420166
1776442226582995700,30.63699560546875,0.572544276714325,0.5335184931755066,2.654144525527954
1776442226608012800,30.6620126953125,0.5864319801330566,0.6434286236763,2.356468915939331
1776442226633030700,30.68703076171875,0.6203545928001404,0.49453988671302795,1.6556037664413452
1776442226658047700,30.7120478515625,0.6924881935119629,0.7965970039367676,1.2977319955825806
1776442226683065600,30.737065673828123,0.4091930091381073,0.015296467579901218,1.2034350633621216
1776442226708082700,30.762082763671874,-0.39662620425224304,-0.7403457164764404,0.8339475989341736
1776442226733100500,30.7871005859375,-0.2731642425060272,-0.4255777597427368,0.43440482020378113
1776442226758117600,30.81211767578125,0.7194312810897827,0.26484668254852295,-0.05319271236658096
1776442226783134700,30.837134765625,1.1685794591903687,0.8023988604545593,0.006457198411226273
1776442226808152600,30.862152587890623,0.8913565874099731,-0.144129678606987,0.8985145092010498
1776442226833169700,30.887169677734374,0.2553853988647461,-0.054265789687633514,0.777046799659729
1776442226858187800,30.912187744140624,0.6569740176200867,-0.2925341725349426,0.29362785816192627
1776442226883204600,30.93720458984375,1.4235038757324219,-0.4454209804534912,-0.03540355712175369
1776442226908222700,30.96222265625,1.3438829183578491,-0.2598869502544403,-0.011931311339139938
1776442226933239800,30.98723974609375,0.5619704723358154,-0.20318244397640228,0.25763317942619324
1776442226958257700,31.012257568359374,0.017443329095840454,-0.48451900482177734,0.7544447183609009
1776442226983275000,31.03727490234375,0.03992214798927307,-0.6403834819793701,1.4882460832595825
1776442227008291800,31.062291748046874,0.2842754125595093,-0.11907077580690384,2.0241641998291016
1776442227033310000,31.08731005859375,0.5593727231025696,0.026220912113785744,1.828137993812561
