time,seconds_elapsed,z,y,x
1776444995361787600,0.12378759765625,1.3359220027923584,0.39172276854515076,-0.2466537207365036
1776444995386804500,0.148804443359375,1.5384266376495361,0.39876654744148254,-0.29862743616104126
1776444995411821600,0.173821533203125,1.847305178642273,0.5456982254981995,-0.23639176785945892
1776444995436838700,0.198838623046875,2.354445457458496,0.7788262963294983,-0.2532263994216919
1776444995461855700,0.223855712890625,2.8193321228027344,0.8253618478775024,-0.32936909794807434
1776444995486872600,0.24887255859375,3.1986894607543945,0.8600801229476929,-0.41466349363327026
1776444995511889700,0.2738896484375,3.4433627128601074,0.7862703204154968,-0.4325817823410034
1776444995536906800,0.29890673828125,3.373124599456787,0.7687041163444519,-0.29647746682167053
1776444995561923600,0.323923583984375,2.9005331993103027,0.846630871295929,-0.1848452091217041
1776444995586940700,0.348940673828125,2.214810371398926,1.0092415809631348,-0.11428769677877426
1776444995611957800,0.373957763671875,1.849631428718567,0.9115848541259766,-0.13996589183807373
1776444995636974800,0.398974853515625,1.7003415822982788,0.22588320076465607,-0.17377552390098572
1776444995661992000,0.423991943359375,1.26621675491333,-0.09137652069330215,-0.11472444981336594
1776444995687008800,0.4490087890625,0.7957067489624023,-0.5097905397415161,-0.24818849563598633
1776444995712025900,0.47402587890625,0.4131460189819336,-0.6149305701255798,-0.2860962152481079
1776444995737042700,0.499042724609375,0.10779410600662231,-0.2988540828227997,-0.13928598165512085
1776444995762059800,0.524059814453125,0.4377576410770416,-0.21979361772537231,-0.00418489146977663
1776444995787076600,0.54907666015625,1.0814553499221802,-0.6275153160095215,-0.0029055087361484766
1776444995812093700,0.57409375,1.7499487400054932,-0.6671937704086304,0.06235738471150398
1776444995837110800,0.59911083984375,2.081576108932495,-0.4121913015842438,0.0516141913831234
1776444995862127900,0.6241279296875,2.2720015048980713,-0.5595991015434265,-0.13708648085594177
1776444995887144700,0.649144775390625,2.386911630630493,-0.6585400700569153,-0.4285691976547241
1776444995912161800,0.674161865234375,2.025484800338745,-0.3865514397621155,-0.4110772907733917
1776444995937179000,0.699178955078125,1.4159231185913086,0.0022738068364560604,-0.29196980595588684
1776444995962196000,0.724196044921875,1.2560063600540161,0.16291594505310059,-0.23869620263576508
1776444995987212500,0.749212646484375,1.5767945051193237,-0.1431582272052765,-0.14059865474700928
1776444996012229600,0.774229736328125,1.7240098714828491,-0.08708430081605911,-0.026513898745179176
1776444996037246700,0.799246826171875,1.5817559957504272,0.14121730625629425,0.14411430060863495
1776444996062263800,0.824263916015625,1.213470697402954,0.2894784212112427,0.18736803531646729
1776444996087280600,0.84928076171875,1.1064931154251099,0.23935826122760773,0.054368700832128525
1776444996112297700,0.874297607421875,1.2160917520523071,0.19136996567249298,-0.09283939003944397
1776444996137314800,0.899314697265625,1.111557126045227,0.2126922905445099,-0.29032769799232483
1776444996162332000,0.924331787109375,0.8199880719184875,-0.14914260804653168,-0.39256006479263306
1776444996187348700,0.9493486328125,0.5710451006889343,-0.4057901203632355,-0.2506215572357178
1776444996212365800,0.97436572265625,0.665506899356842,-0.45976147055625916,0.01543621439486742
1776444996237383000,0.9993828125,1.1307909488677979,-0.43656960129737854,0.17367911338806152
1776444996262399700,1.024399658203125,1.4150115251541138,0.004763063509017229,0.30303922295570374
1776444996287416600,1.04941650390625,1.9143962860107422,0.5514349341392517,0.4829370975494385
1776444996312433700,1.07443359375,2.3398146629333496,0.47321364283561707,0.44888991117477417
1776444996337450800,1.09945068359375,2.279402256011963,0.5652178525924683,0.37506842613220215
1776444996362467800,1.1244677734375,2.480163097381592,0.6177127361297607,0.46675094962120056
1776444996387484700,1.149484619140625,2.560997247695923,0.5526847243309021,0.41861721873283386
1776444996412501800,1.174501708984375,2.4119064807891846,0.3951140344142914,0.14431430399417877
1776444996437518800,1.199518798828125,2.4709486961364746,0.23220686614513397,0.14134594798088074
1776444996462536000,1.224535888671875,2.3061447143554688,0.3008216321468353,0.15178127586841583
1776444996487552800,1.249552734375,2.0282795429229736,0.20984964072704315,0.009192166849970818
1776444996512569600,1.274569580078125,1.9835485219955444,0.00803475733846426,-0.012693158350884914
1776444996537586700,1.299586669921875,1.8600693941116333,0.08728910237550735,-0.15152135491371155
1776444996562603800,1.324603759765625,1.7710367441177368,0.27983298897743225,-0.158849835395813
1776444996587619800,1.349619873046875,1.6751415729522705,0.2594504654407501,-0.30868059396743774
1776444996612637000,1.374636962890625,1.5782067775726318,0.35664546489715576,-0.3562491834163666
1776444996637654800,1.39965478515625,1.59782874584198,0.3525519371032715,-0.3566899597644806
1776444996662670800,1.4246708984375,1.4164445400238037,0.5018463134765625,-0.4564428925514221
1776444996687688000,1.44968798828125,1.3460758924484253,0.2561129927635193,-0.41374149918556213
1776444996712705000,1.474705078125,1.418063998222351,-0.0829116627573967,-0.2994122803211212
1776444996737721900,1.499721923828125,1.2148855924606323,0.2985880374908447,-0.5023651123046875
1776444996762739000,1.524739013671875,1.104932427406311,0.503603994846344,-0.7214196920394897
1776444996787756000,1.549756103515625,0.9830137491226196,0.3393911123275757,-0.6497969031333923
1776444996812772900,1.57477294921875,0.9398649334907532,0.2801022231578827,-0.2555643916130066
1776444996837789700,1.599789794921875,0.9726244807243347,0.14874394237995148,-0.09922085702419281
1776444996862806800,1.624806884765625,0.9125111103057861,-0.05203923210501671,-0.3005851209163666
1776444996887824000,1.649823974609375,0.7781538367271423,-0.14325650036334991,-0.2892986536026001
1776444996912841000,1.674841064453125,0.705484926700592,-0.2890501916408539,0.10517781972885132
1776444996937857800,1.69985791015625,0.7087438702583313,-0.09004520624876022,0.3803582489490509
1776444996962875000,1.724875,0.8421496152877808,0.2624981999397278,0.23849806189537048
1776444996987892000,1.74989208984375,1.1541887521743774,0.48609721660614014,0.300365686416626
1776444997012909000,1.774908935546875,1.1101645231246948,-0.019399531185626984,0.22836525738239288
1776444997037926000,1.79992578125,0.7458619475364685,-0.1467132717370987,-0.11818815767765045
1776444997062942700,1.824942626953125,0.7166422605514526,0.03309909626841545,-0.37813371419906616
1776444997087959800,1.849959716796875,1.0925506353378296,-0.1405097097158432,-0.5389114022254944
1776444997112977000,1.874976806640625,1.1687349081039429,-0.977234959602356,-0.7174481153488159
1776444997137993700,1.89999365234375,0.677234947681427,-1.5678918361663818,-0.9073019623756409
1776444997163010800,1.9250107421875,0.3970583975315094,-0.690310537815094,-0.5703724026679993
1776444997188028000,1.95002783203125,0.4982343018054962,0.230670765042305,-0.12578243017196655
1776444997213045000,1.975044921875,0.5390991568565369,0.08729788661003113,-0.03958229720592499
1776444997238061800,2.000061767578125,0.533477246761322,-0.012341354973614216,0.07967006415128708
1776444997263079000,2.025078857421875,0.540879487991333,0.062061771750450134,0.2396666556596756
1776444997288096000,2.050095947265625,0.5585788488388062,0.10709609091281891,0.3336386978626251
1776444997313113000,2.075113037109375,0.4746895432472229,-0.10230080783367157,0.08639959990978241
1776444997338129700,2.100129638671875,0.8327957391738892,-0.4146539270877838,-0.2642044723033905
1776444997363146800,2.125146728515625,1.2265329360961914,-0.347811222076416,-0.14879560470581055
1776444997388163800,2.150163818359375,1.9272441864013672,-0.06452865898609161,0.08543900400400162
1776444997413181000,2.175180908203125,2.507350206375122,-0.14232172071933746,0.23196692764759064
1776444997438197800,2.20019775390625,2.6186041831970215,-0.11146660894155502,0.27019232511520386
1776444997463214800,2.22521484375,2.2395288944244385,-0.2555406987667084,0.20673826336860657
1776444997488232000,2.25023193359375,1.4355617761611938,0.2087358981370926,0.2279423475265503
1776444997513249000,2.2752490234375,0.8471955060958862,0.12976491451263428,0.08835835754871368
1776444997538265900,2.300265869140625,0.746721625328064,-0.47199469804763794,0.13634133338928223
1776444997563283000,2.325282958984375,0.9262916445732117,-0.38723641633987427,0.24369920790195465
1776444997588300000,2.350300048828125,1.318760871887207,-0.20380373299121857,0.16269756853580475
1776444997613317000,2.375317138671875,1.682096242904663,-0.3241109549999237,-0.013640178367495537
1776444997638334000,2.400333984375,2.0322132110595703,-0.4053754508495331,-0.10240626335144043
1776444997663351000,2.42535107421875,2.3628363609313965,-0.3799707591533661,-0.1264689862728119
1776444997688368000,2.4503681640625,2.5638949871063232,-0.26317116618156433,0.09871885180473328
1776444997713385200,2.47538525390625,2.5715548992156982,0.03459632769227028,0.38690271973609924
1776444997738402000,2.500402099609375,2.5148143768310547,0.4123886227607727,0.02918478287756443
1776444997763419000,2.5254189453125,2.4485156536102295,0.5102539658546448,-0.3704763352870941
1776444997788436000,2.55043603515625,1.661172866821289,0.190214142203331,-0.5510621070861816
1776444997813453000,2.575453125,1.8480952978134155,0.4355333745479584,-0.37947142124176025
1776444997838470000,2.600469970703125,2.0171878337860107,0.23644396662712097,-0.29069602489471436
1776444997863487000,2.625487060546875,1.7875070571899414,0.38079580664634705,-0.151731476187706
1776444997888504000,2.650504150390625,1.193455457687378,0.5157158374786377,0.16254177689552307
1776444997913521200,2.675521240234375,0.7401332259178162,0.7075371742248535,0.32042673230171204
1776444997938538000,2.7005380859375,0.7068849802017212,0.16848701238632202,0.205116406083107
1776444997963555000,2.72555517578125,0.9840718507766724,-0.15106834471225739,-0.007002782076597214
1776444997988572200,2.750572265625,1.3867151737213135,-0.15559518337249756,-0.2036367505788803
1776444998013589200,2.77558935546875,1.7573901414871216,0.05109194666147232,-0.31876760721206665
1776444998038605800,2.800605712890625,2.0229899883270264,-0.08741160482168198,-0.2893228828907013
1776444998063623000,2.825622802734375,2.257713556289673,0.09213338792324066,-0.17559047043323517
1776444998088640000,2.850639892578125,2.3569557666778564,0.17784829437732697,-0.0895083099603653
1776444998113657000,2.875656982421875,2.1748695373535156,-0.004077299498021603,-0.060334447771310806
1776444998138674000,2.900673828125,1.9209394454956055,-0.07681115716695786,-0.14399738609790802
1776444998163691000,2.92569091796875,1.6096534729003906,-0.0391298271715641,-0.4024004340171814
1776444998188708000,2.9507080078125,1.3509083986282349,0.32737278938293457,-0.6146695613861084
1776444998213725200,2.97572509765625,1.2263494729995728,0.35699301958084106,-0.7343408465385437
1776444998238742000,3.000741943359375,1.7005960941314697,0.16367308795452118,-0.6793596148490906
1776444998263759000,3.025759033203125,1.9237754344940186,-0.5683974027633667,-0.37528759241104126
1776444998288776000,3.05077587890625,1.4386625289916992,0.08725074678659439,-0.16207093000411987
1776444998313793000,3.07579296875,1.1168410778045654,0.3034522831439972,-0.09833722561597824
1776444998338811000,3.100810791015625,1.3405311107635498,-0.06344927847385406,-0.043777573853731155
1776444998363828000,3.125827880859375,1.9386688470840454,0.36793673038482666,0.07798800617456436
1776444998388845000,3.150844970703125,2.207716941833496,0.48329609632492065,0.017668476328253746
1776444998413862000,3.17586181640625,1.4842827320098877,0.04086274281144142,0.009413741528987885
1776444998438879000,3.20087890625,0.7315703630447388,-0.2998133599758148,-0.21695281565189362
1776444998463896000,3.22589599609375,0.8102851510047913,-0.11124556511640549,-0.4266674220561981
1776444998488913200,3.2509130859375,1.1271536350250244,0.09934975951910019,-0.5110304951667786
1776444998513930000,3.275929931640625,1.138249158859253,0.2286377102136612,-0.334509015083313
1776444998538947000,3.300947021484375,1.0178098678588867,0.3213047981262207,-0.2949956953525543
1776444998563964200,3.325964111328125,1.0057936906814575,0.08838259428739548,-0.09895028173923492
1776444998588980200,3.350980224609375,1.0291386842727661,-0.4169527590274811,0.16753865778446198
1776444998613997300,3.375997314453125,1.1877882480621338,-0.5944974422454834,0.016100939363241196
1776444998639014100,3.40101416015625,1.1750493049621582,-0.6934778094291687,-0.19300833344459534
1776444998664031200,3.42603125,1.2436333894729614,-0.5918952822685242,-0.18887165188789368
1776444998689048000,3.451048095703125,1.4620029926300049,0.19596657156944275,0.12939101457595825
1776444998714065200,3.476065185546875,1.7012954950332642,0.6580016016960144,0.17518939077854156
1776444998739082000,3.50108203125,1.9894639253616333,0.7057259678840637,0.0368802547454834
1776444998764099000,3.52609912109375,2.0037825107574463,-0.01281619630753994,-0.223798468708992
1776444998789116200,3.5511162109375,1.9574377536773682,-0.44083333015441895,-0.3919256925582886
1776444998814133200,3.57613330078125,2.212935209274292,-0.6289196014404297,-0.8213862776756287
1776444998839150000,3.601150146484375,2.588078260421753,-0.7709022760391235,-1.0727119445800781
1776444998864167200,3.626167236328125,2.70000958442688,-0.7630928754806519,-0.679473876953125
1776444998889184300,3.651184326171875,2.377772808074951,-0.6226009726524353,-0.31625276803970337
1776444998914201300,3.676201416015625,2.143038034439087,-0.38701510429382324,-0.23026995360851288
1776444998939218000,3.701218017578125,2.0519204139709473,-0.23707273602485657,-0.0668216422200203
1776444998964235000,3.726235107421875,1.6951558589935303,0.13295751810073853,0.24757890403270721
1776444998989252000,3.751252197265625,1.3170844316482544,-0.12202657014131546,0.24927720427513123
1776444999014269200,3.776269287109375,1.384495735168457,-0.346164345741272,0.2809467017650604
1776444999039286000,3.8012861328125,1.1272971630096436,-0.8903378844261169,0.6049596667289734
1776444999064303000,3.82630322265625,0.7360138297080994,-0.6934338808059692,0.7765612602233887
1776444999089320200,3.8513203125,0.6080079078674316,-0.17285965383052826,0.5865628123283386
1776444999114337300,3.876337158203125,0.6021729707717896,0.06372571736574173,0.47698360681533813
1776444999139354000,3.90135400390625,0.36072278022766113,0.12636512517929077,0.4597865045070648
1776444999164371200,3.92637109375,0.3287166357040405,-0.22828270494937897,0.28826427459716797
1776444999189388000,3.951387939453125,0.3816291093826294,0.11339659988880157,-0.05133482813835144
1776444999214405000,3.976405029296875,0.43580368161201477,0.3876856863498688,-0.1792248785495758
1776444999239422200,4.001422119140625,0.8540509939193726,0.3354128897190094,-0.16249462962150574
1776444999264439000,4.02643896484375,0.9943761229515076,0.7160472869873047,-0.029516879469156265
1776444999289456000,4.0514560546875,0.9269371628761292,0.5585637092590332,-0.019468240439891815
1776444999314473200,4.07647314453125,0.9365367889404297,-0.10838186740875244,-0.10541857033967972
1776444999339490000,4.101489990234375,1.2307868003845215,-0.138075053691864,0.022355638444423676
1776444999364507100,4.126507080078125,1.4528968334197998,0.07274371385574341,-0.06290972232818604
1776444999389525200,4.151525146484375,1.5668233633041382,-0.45877957344055176,-0.20902219414710999
1776444999414542000,4.1765419921875,1.355507493019104,-0.31548604369163513,-0.28535905480384827
1776444999439559200,4.20155908203125,1.6655350923538208,-0.022702116519212723,-0.04127873107790947
1776444999464576300,4.226576171875,2.080446481704712,0.36774471402168274,-0.14224208891391754
1776444999489593300,4.25159326171875,2.117586135864258,0.4587870240211487,-0.6134053468704224
1776444999514610200,4.276610107421875,1.7383872270584106,0.41794371604919434,-1.0345491170883179
1776444999539627000,4.301626953125,1.1928766965866089,0.13919571042060852,-1.1919111013412476
1776444999564644000,4.32664404296875,0.9073547124862671,0.08156117051839828,-0.9739992022514343
1776444999589665300,4.351665283203125,1.0626593828201294,-0.15149818360805511,-0.5305166244506836
1776444999614682000,4.37668212890625,1.6882801055908203,-0.4160006642341614,-0.48428651690483093
1776444999639699200,4.40169921875,2.568023681640625,0.14055684208869934,-0.49881911277770996
1776444999664716300,4.42671630859375,2.890228271484375,-0.04749374836683273,-0.41850003600120544
1776444999689733400,4.4517333984375,2.7372143268585205,0.35733842849731445,-0.3945896625518799
1776444999714750200,4.476750244140625,2.737257719039917,0.7870274782180786,-0.39036428928375244
1776444999739767300,4.501767333984375,3.155703544616699,0.7268632054328918,-0.3992515206336975
1776444999764784400,4.526784423828125,3.2791900634765625,0.5886973738670349,-0.6518377065658569
1776444999789801200,4.55180126953125,2.979922294616699,0.036434974521398544,-1.046404480934143
1776444999814818000,4.576818115234375,2.5801899433135986,0.19886302947998047,-1.1432687044143677
1776444999839835100,4.601835205078125,1.8980423212051392,0.09658539295196533,-1.1875338554382324
1776444999864852200,4.626852294921875,1.3564062118530273,0.004457865376025438,-1.0370032787322998
1776444999889869300,4.651869384765625,1.0777865648269653,0.0377495102584362,-0.7602696418762207
1776444999914886100,4.67688623046875,0.7633922100067139,-0.2311442643404007,-0.32702046632766724
1776444999939903200,4.7019033203125,0.6459475755691528,-0.3136303722858429,0.14152437448501587
1776444999964920300,4.72692041015625,0.7927948236465454,-0.05482463166117668,0.596084713935852
1776444999989937400,4.7519375,0.9910253286361694,-0.10753019154071808,0.6717637181282043
1776445000014954200,4.776954345703125,0.9980398416519165,0.124703049659729,0.6428234577178955
1776445000039971300,4.801971435546875,0.7816039323806763,0.06700912863016129,0.5773704051971436
1776445000064988200,4.82698828125,0.7175338864326477,-0.0034266894217580557,0.4983208477497101
1776445000090005200,4.852005126953125,0.684792697429657,-0.008623847737908363,0.46590059995651245
1776445000115022000,4.87702197265625,0.530112624168396,-0.14415957033634186,0.4185972511768341
1776445000140039200,4.9020390625,0.8846246004104614,0.016213856637477875,0.008086955174803734
1776445000165056300,4.92705615234375,1.3667417764663696,0.3359966576099396,-0.09355604648590088
1776445000190073300,4.9520732421875,2.0324318408966064,-0.4889470636844635,0.01629907824099064
1776445000215091200,4.97709130859375,2.4885683059692383,-0.7791024446487427,0.04709374159574509
1776445000240108300,5.0021083984375,2.401442527770996,-0.4705488681793213,0.04300445690751076
1776445000265125400,5.02712548828125,2.143378257751465,-0.1399451196193695,0.11294092983007431
1776445000290142200,5.05214208984375,2.0677614212036133,0.12187903374433517,0.26978355646133423
1776445000315159300,5.0771591796875,2.084383964538574,0.41239795088768005,0.44424375891685486
1776445000340176400,5.10217626953125,1.8604371547698975,0.7159069776535034,0.43698611855506897
1776445000365193200,5.127193115234375,1.6275229454040527,0.19561797380447388,0.06244633346796036
1776445000390210000,5.1522099609375,1.69667649269104,-0.25222453474998474,-0.27515485882759094
1776445000415227100,5.17722705078125,1.7844598293304443,-0.06276831030845642,-0.05859193950891495
1776445000440244200,5.202244140625,1.5000497102737427,0.046605851501226425,0.08355934172868729
1776445000465261300,5.22726123046875,1.208999514579773,-0.669019877910614,-0.04637175798416138
1776445000490278100,5.252278076171875,1.2638670206069946,-1.4033825397491455,-0.3053428828716278
1776445000515295200,5.277295166015625,1.522910237312317,-1.134875774383545,-0.3412784934043884
1776445000540312300,5.302312255859375,1.8022947311401367,-0.5775908827781677,-0.4079773724079132
1776445000565329400,5.327329345703125,1.9410604238510132,0.06107880175113678,-0.2731796205043793
1776445000590342100,5.352342041015625,1.7725461721420288,0.8742833137512207,0.2976769506931305
1776445000615359000,5.37735888671875,1.9986096620559692,0.9945220947265625,0.6654509902000427
1776445000640376000,5.4023759765625,2.4370830059051514,0.6561581492424011,0.2703095078468323
1776445000665393200,5.42739306640625,2.6812093257904053,-0.03387487679719925,0.0860869511961937
1776445000690410200,5.45241015625,2.5726752281188965,0.09560961276292801,0.3146125376224518
1776445000715427000,5.477427001953125,2.441235065460205,-0.07560154795646667,0.20741523802280426
1776445000740444200,5.502444091796875,1.9668294191360474,-0.47877591848373413,-0.19412313401699066
1776445000765461200,5.527461181640625,1.5073249340057373,-0.508072018623352,-0.22300006449222565
1776445000790478000,5.55247802734375,1.7450112104415894,-0.3417759835720062,-0.06850342452526093
1776445000815495000,5.577494873046875,1.6922023296356201,0.3378230333328247,-0.3392427861690521
1776445000840512000,5.602511962890625,1.2931910753250122,0.29242652654647827,-0.5562464594841003
1776445000865529000,5.627529052734375,1.1625741720199585,-0.3358464539051056,-0.5144505500793457
1776445000890546200,5.652546142578125,1.1991814374923706,-0.26742851734161377,-0.41563475131988525
1776445000915564000,5.67756396484375,0.9757036566734314,0.09717555344104767,-0.717738151550293
1776445000940581000,5.7025810546875,0.7395614385604858,0.08675166964530945,-0.7078330516815186
1776445000965598200,5.72759814453125,0.5509944558143616,0.0922689437866211,-0.4144376516342163
1776445000990615000,5.752614990234375,0.3849303722381592,0.19512128829956055,-0.3340916931629181
1776445001015632100,5.777632080078125,0.3687010705471039,-0.0873924270272255,-0.5418904423713684
1776445001040649200,5.802649169921875,0.44792959094047546,-0.2846040427684784,-0.43980666995048523
1776445001065666300,5.827666259765625,0.5339201092720032,-0.10090530663728714,-0.13024508953094482
1776445001090683100,5.85268310546875,0.6292501091957092,-0.05957970768213272,-0.19013053178787231
1776445001115700000,5.877699951171875,0.6414439082145691,-0.10740688443183899,-0.24976882338523865
1776445001140717000,5.902717041015625,0.822331428527832,0.05728992074728012,-0.17183621227741241
1776445001165734100,5.927734130859375,0.6207655072212219,-0.4895808696746826,-0.11082238703966141
1776445001190751000,5.9527509765625,0.2851148247718811,-0.9172731041908264,-0.05769924819469452
1776445001215768000,5.97776806640625,1.0488790273666382,-0.21065843105316162,0.1560913324356079
1776445001240785200,6.00278515625,1.2763950824737549,-1.0205938816070557,0.08425416052341461
1776445001265802200,6.02780224609375,1.4628890752792358,-0.32186806201934814,-0.06388869881629944
1776445001290819000,6.052819091796875,1.6906814575195312,0.4569859206676483,0.11435933411121368
1776445001315836200,6.077836181640625,1.8810044527053833,0.7728208303451538,0.22735512256622314
1776445001340853200,6.102853271484375,1.9205737113952637,0.4595678448677063,0.12379464507102966
1776445001365870000,6.1278701171875,1.7704579830169678,-0.46065816283226013,-0.17077679932117462
1776445001390887000,6.152886962890625,1.620551586151123,-0.3416476249694824,-0.17747731506824493
1776445001415904000,6.177904052734375,1.2739484310150146,-0.8046480417251587,-0.32558849453926086
1776445001440921000,6.202921142578125,1.4266306161880493,-0.8841173052787781,-0.562103807926178
1776445001465938200,6.227938232421875,1.4919906854629517,-0.6606135964393616,-0.4214441776275635
1776445001490955000,6.252955078125,1.2928941249847412,-0.1325223594903946,-0.02929743565618992
1776445001515972000,6.27797216796875,1.2958155870437622,0.10191411525011063,0.1439121663570404
1776445001540990200,6.302990234375,1.7181215286254883,0.08502993732690811,0.10912169516086578
1776445001566007000,6.328007080078125,2.3305156230926514,-0.07696482539176941,0.1393805295228958
1776445001591028200,6.3530283203125,2.6723361015319824,0.24575144052505493,0.35453757643699646
1776445001616045300,6.37804541015625,2.7478082180023193,0.18904262781143188,0.4556572735309601
1776445001641062100,6.403062255859375,2.631101369857788,-0.22969897091388702,0.579804003238678
1776445001666079000,6.428078857421875,2.1573662757873535,0.07951240241527557,0.6373476982116699
1776445001691096000,6.453095947265625,1.832959532737732,0.3288620412349701,0.3827745318412781
1776445001716113200,6.478113037109375,1.4832358360290527,0.17170891165733337,0.16735143959522247
1776445001741130200,6.503130126953125,1.625483751296997,0.049736395478248596,-0.03592284768819809
1776445001766147000,6.52814697265625,1.919419288635254,0.1557517796754837,-0.05084613710641861
1776445001791164200,6.5531640625,2.198911666870117,0.5420608520507812,0.09834147989749908
1776445001816181200,6.57818115234375,2.339521646499634,0.12050005048513412,0.15323589742183685
1776445001841198000,6.603197998046875,2.318145513534546,0.3328661024570465,0.1735619306564331
1776445001866215200,6.628215087890625,2.315309524536133,0.3521929383277893,0.10777653008699417
1776445001891232300,6.653232177734375,2.4110207557678223,0.34154215455055237,0.1871296763420105
1776445001916249000,6.6782490234375,2.5182204246520996,0.7560282945632935,0.12738485634326935
1776445001941266200,6.70326611328125,2.42684006690979,0.3116191327571869,-0.3233269155025482
1776445001966283000,6.728282958984375,1.8576430082321167,0.10854458808898926,-0.5128893852233887
1776445001991300000,6.753300048828125,1.4446098804473877,0.5337808132171631,-0.6460226774215698
1776445002016317200,6.778317138671875,1.43234121799469,-0.11642381548881531,-0.8637014627456665
1776445002041334300,6.803334228515625,1.635172963142395,-0.46223554015159607,-0.6841972470283508
1776445002066352000,6.82835205078125,1.5951000452041626,0.15992015600204468,-0.31172168254852295
1776445002091369200,6.853369140625,1.6312050819396973,0.7866532802581787,0.0007398261222988367
1776445002116386000,6.878385986328125,2.122299909591675,0.0892646312713623,-0.134771928191185
1776445002141403100,6.903403076171875,2.4273784160614014,-0.2326446920633316,-0.1471574902534485
1776445002166420200,6.928420166015625,2.692427158355713,-0.3046587109565735,-0.2611551582813263
1776445002191437300,6.953437255859375,2.562570810317993,-1.1828651428222656,-0.4501088559627533
1776445002216454100,6.9784541015625,2.0729620456695557,-1.0059441328048706,-0.6274335384368896
1776445002241471000,7.003470947265625,1.5974785089492798,-0.7816140651702881,-0.711087167263031
1776445002266488000,7.028488037109375,1.2850325107574463,-0.9922384023666382,-0.8288779854774475
1776445002291505200,7.053505126953125,1.3805246353149414,-1.1753363609313965,-0.9346970915794373
1776445002316522200,7.078522216796875,1.7060039043426514,-0.657436192035675,-0.8006937503814697
1776445002341539000,7.1035390625,1.8971768617630005,0.0065231467597186565,-0.5018327832221985
1776445002366556200,7.12855615234375,2.1178979873657227,-0.2814505994319916,-0.36944782733917236
1776445002391573200,7.1535732421875,1.9894750118255615,-0.4026595652103424,-0.13643667101860046
1776445002416590300,7.17859033203125,1.7433850765228271,-0.23627671599388123,0.39343172311782837
1776445002441607200,7.203607177734375,1.7217477560043335,0.7716224193572998,0.6102764010429382
1776445002466624300,7.228624267578125,1.377178430557251,0.6241698265075684,0.49810007214546204
1776445002491641000,7.25364111328125,1.3569769859313965,0.26275572180747986,0.16705450415611267
1776445002516658200,7.278658203125,1.8447391986846924,0.3830541670322418,-0.057686466723680496
1776445002541675000,7.303675048828125,2.059809684753418,-0.16846971213817596,-0.2675326466560364
1776445002566693000,7.328693115234375,2.307251214981079,-0.7931404709815979,-0.5144543051719666
1776445002591707000,7.353706787109375,2.8191471099853516,-0.36843448877334595,-0.46756479144096375
1776445002616723700,7.3787236328125,2.888322114944458,0.17651352286338806,-0.16269303858280182
1776445002641740800,7.40374072265625,2.614919662475586,0.24870595335960388,-0.24645717442035675
1776445002666758000,7.4287578125,2.577533006668091,0.05468055605888367,-0.6487524509429932
1776445002691774700,7.453774658203125,2.6067874431610107,-0.4360833168029785,-0.7785860300064087
1776445002716791600,7.47879150390625,2.4390008449554443,-0.22631728649139404,-0.07618425041437149
1776445002741808600,7.50380859375,2.01242995262146,-0.08780095726251602,0.0859689712524414
1776445002766825700,7.52882568359375,1.7758601903915405,-0.35398897528648376,-0.16199715435504913
1776445002791842800,7.5538427734375,1.7669475078582764,-0.31246548891067505,-0.04791745916008949
1776445002816859600,7.578859619140625,1.6125091314315796,-0.043002061545848846,0.4539682865142822
1776445002841876700,7.603876708984375,1.2611202001571655,0.2400786429643631,0.675604522228241
1776445002866893800,7.628893798828125,1.0715742111206055,0.2994903028011322,0.3713168203830719
1776445002891911000,7.653910888671875,1.2014718055725098,0.00945049338042736,0.21529845893383026
1776445002916927700,7.678927734375,1.2492971420288086,-0.4851837456226349,0.4760056734085083
1776445002941944800,7.70394482421875,1.0127100944519043,-0.9301468133926392,0.5208905935287476
1776445002966961700,7.728961669921875,0.9676502346992493,-0.8392318487167358,0.38096198439598083
1776445002991978800,7.753978759765625,0.9490877389907837,-0.7188215255737305,0.44155317544937134
1776445003016995600,7.77899560546875,0.7108719944953918,-0.2344769537448883,0.6939377784729004
1776445003042013700,7.804013671875,0.27015557885169983,0.03891277685761452,0.6632589101791382
1776445003067030800,7.82903076171875,0.09013575315475464,-0.2006273716688156,0.5022047758102417
1776445003092047600,7.854047607421875,0.34121909737586975,-0.6267105340957642,0.30207809805870056
1776445003117064700,7.879064697265625,0.7078381180763245,-0.5079167485237122,0.2072186917066574
1776445003142081800,7.904081787109375,0.870760440826416,-0.17800435423851013,0.19325467944145203
1776445003167099000,7.929098876953125,0.3186533451080322,0.2945661246776581,0.3265778422355652
1776445003192115700,7.95411572265625,-0.47996607422828674,0.6077312231063843,0.32649341225624084
1776445003217132800,7.9791328125,-0.5048405528068542,-0.05223044753074646,0.17188628017902374
1776445003242150000,8.00414990234375,-0.04075195640325546,0.45630761981010437,0.4086066782474518
1776445003267167000,8.0291669921875,0.3452242314815521,0.44277822971343994,0.44315212965011597
1776445003292183600,8.05418359375,0.6605105400085449,-0.09311875700950623,0.25110092759132385
1776445003317200600,8.07920068359375,0.9461124539375305,-0.37139591574668884,0.07941493391990662
1776445003342217700,8.1042177734375,1.068764328956604,-0.19038085639476776,-0.0806647539138794
1776445003367234800,8.12923486328125,1.2554702758789062,0.013458018191158772,-0.33914902806282043
1776445003392251600,8.154251708984376,1.8667560815811157,0.7312059998512268,-0.2864797115325928
1776445003417268700,8.179268798828126,2.109018087387085,0.8874161243438721,-0.16115853190422058
1776445003442285800,8.204285888671874,2.0811495780944824,0.783263087272644,-0.14025484025478363
1776445003467303000,8.229302978515625,1.9051498174667358,0.7128943800926208,-0.1388324499130249
1776445003492319700,8.25431982421875,1.7884604930877686,0.7428333759307861,-0.14490045607089996
1776445003517337900,8.279337890625,2.168466091156006,0.32628676295280457,-0.2938297688961029
1776445003542355000,8.30435498046875,2.7852041721343994,-0.2785911560058594,-0.3275783956050873
1776445003567371800,8.329371826171876,3.3899760246276855,-0.14475718140602112,-0.14327140152454376
1776445003592388000,8.35438818359375,3.845344066619873,-0.09139595925807953,0.032875124365091324
1776445003617405200,8.3794052734375,3.860538959503174,-0.1282394677400589,0.021932462230324745
1776445003642422300,8.40442236328125,3.4711122512817383,0.2538607716560364,-0.1926133930683136
1776445003667439000,8.429439208984375,2.9927873611450195,0.9211754202842712,-0.19163760542869568
1776445003692456000,8.4544560546875,2.6037139892578125,0.7265617251396179,0.018001636490225792
1776445003717473000,8.47947314453125,2.1062824726104736,0.6069344282150269,0.17815375328063965
1776445003742490000,8.504489990234376,1.400952935218811,0.8683167695999146,0.016921991482377052
1776445003767507200,8.529507080078124,0.908715009689331,0.5841246843338013,-0.31392011046409607
1776445003792524000,8.55452392578125,0.9576032161712646,0.3291379511356354,-0.6875879764556885
1776445003817541000,8.579541015625,1.1315369606018066,-0.22634471952915192,-1.0177890062332153
1776445003842558200,8.60455810546875,1.2044748067855835,-0.6444149613380432,-1.1091597080230713
1776445003867575300,8.6295751953125,1.1369503736495972,-0.6906934976577759,-1.057543396949768
1776445003892592000,8.654592041015626,0.9053946137428284,-0.45942965149879456,-0.8229484558105469
1776445003917609200,8.679609130859374,0.8088374137878418,-0.0002671150432433933,-0.5508671402931213
1776445003942627000,8.704626953125,0.8235681653022766,0.07949882000684738,-0.3067018687725067
1776445003967644200,8.72964404296875,0.7320848703384399,0.40380364656448364,0.023301860317587852
1776445003992661000,8.754660888671875,0.49989238381385803,0.3620237112045288,0.30844491720199585
1776445004017678000,8.779677978515625,0.3849617838859558,0.03283890709280968,0.4589571952819824
1776445004042695200,8.804695068359376,0.5906718373298645,0.11182720214128494,0.575617253780365
1776445004067712000,8.8297119140625,0.6828579306602478,0.0028447885997593403,0.7397624850273132
1776445004092729000,8.85472900390625,0.4470595121383667,-0.660653293132782,0.8146545886993408
1776445004117746200,8.87974609375,0.6861118078231812,-0.29994383454322815,0.03773779049515724
1776445004142763300,8.90476318359375,1.3644005060195923,0.44728508591651917,-0.4220210015773773
1776445004167780000,8.929780029296875,1.9965121746063232,-0.19789044559001923,-0.35813072323799133
1776445004192797200,8.954797119140625,2.1945154666900635,-0.5588805675506592,-0.4080980122089386
1776445004217814300,8.979814208984376,1.87068772315979,-0.4514515995979309,-0.6117637753486633
1776445004242831000,9.0048310546875,1.321743130683899,-0.3991660475730896,-0.7706527709960938
1776445004267848000,9.029847900390624,1.299177646636963,-0.8403487801551819,-0.6953777074813843
1776445004292865000,9.054864990234375,1.4710960388183594,-1.0462905168533325,-0.41053372621536255
1776445004317882000,9.079882080078125,1.566142201423645,-0.7515232563018799,-0.22698014974594116
1776445004342899200,9.104899169921875,1.7107577323913574,-0.9134809970855713,-0.09007156640291214
1776445004367916000,9.129916015625,1.7482352256774902,-0.7955719828605652,0.051901012659072876
1776445004392933000,9.15493310546875,1.7279577255249023,-0.3496818244457245,0.18361777067184448
1776445004417951200,9.179951171875,1.7024328708648682,0.37812039256095886,0.1837107092142105
1776445004442968000,9.204968017578125,1.4530997276306152,0.9400673508644104,0.24416740238666534
1776445004467985200,9.229985107421875,1.482701063156128,1.0746639966964722,0.34975162148475647
1776445004493002200,9.255002197265625,1.7957950830459595,1.2219326496124268,0.19785583019256592
1776445004518019000,9.28001904296875,2.071570634841919,0.9908783435821533,-0.2818000018596649
1776445004543036200,9.3050361328125,1.9208166599273682,0.41149941086769104,-0.6541953682899475
1776445004568053000,9.330052978515624,1.9187726974487305,-0.23891031742095947,-0.5540637373924255
1776445004593071000,9.355071044921875,1.997260332107544,-0.30366775393486023,-0.300400048494339
1776445004618088000,9.380087890625,1.9673316478729248,-0.17605172097682953,-0.4803639352321625
1776445004643105000,9.40510498046875,1.9775649309158325,-0.43347686529159546,-0.6344893574714661
1776445004668122000,9.4301220703125,2.0941085815429688,-0.41659456491470337,-0.26581862568855286
1776445004693139200,9.45513916015625,1.8942763805389404,0.5240331292152405,0.424953430891037
1776445004718156000,9.480156005859374,1.7152093648910522,1.2270240783691406,0.716171145439148
1776445004743173000,9.505173095703125,1.8082700967788696,0.4353157877922058,0.5278680920600891
1776445004768190000,9.53018994140625,1.736641526222229,0.112253837287426,0.564182698726654
1776445004793207000,9.55520703125,1.352383017539978,0.052264537662267685,0.4528100788593292
1776445004818223900,9.580223876953125,1.2655788660049438,-0.8724946975708008,-0.055201202630996704
1776445004843241000,9.605240966796876,1.1486605405807495,-1.4707674980163574,-0.12354590743780136
1776445004868258000,9.630258056640624,0.8665193915367126,-0.7711741924285889,0.17785760760307312
1776445004893275100,9.655275146484374,0.9224111437797546,-0.04493818059563637,0.3003489077091217
1776445004918293000,9.68029296875,1.0291328430175781,0.2958180606365204,0.006168413441628218
1776445004943310000,9.70531005859375,1.3361822366714478,0.31393876671791077,-0.12789857387542725
1776445004968327200,9.7303271484375,1.4022632837295532,0.4012526273727417,0.22845740616321564
1776445004993344000,9.755343994140626,1.033172845840454,0.9460341930389404,0.3375799059867859
1776445005018361000,9.780361083984374,0.5819411873817444,0.7127846479415894,-0.07528357207775116
1776445005043378200,9.805378173828124,0.6243972778320312,-0.45608311891555786,-0.2381284087896347
1776445005068395300,9.830395263671875,0.5035837888717651,-0.6093067526817322,-0.011001251637935638
1776445005093411800,9.855411865234375,0.27473223209381104,-0.07123875617980957,0.14130759239196777
1776445005118429000,9.880428955078125,-0.024396153166890144,0.1073344424366951,0.08603208512067795
1776445005143446000,9.905446044921876,-0.040216926485300064,-0.33592554926872253,0.03093181736767292
1776445005168463000,9.930463134765626,0.3083469271659851,-0.7328534722328186,0.15880535542964935
1776445005193480000,9.95547998046875,1.075386881828308,0.3232390582561493,0.16354897618293762
1776445005218497000,9.9804970703125,1.3025180101394653,-0.23542369902133942,-0.16738232970237732
1776445005243514000,10.00551416015625,1.0995033979415894,-0.3522837460041046,-0.3905528485774994
1776445005268531200,10.03053125,1.2634888887405396,-0.4476182460784912,-0.4451577663421631
1776445005293548000,10.055548095703125,1.3720179796218872,-1.0823822021484375,-0.5662162899971008
1776445005318565000,10.080565185546876,1.3957080841064453,-0.7894072532653809,-0.5189153552055359
1776445005343582000,10.10558203125,1.546887993812561,0.0638149306178093,-0.12105398625135422
1776445005368599000,10.13059912109375,1.7782981395721436,0.22989684343338013,0.22187088429927826
1776445005393616000,10.155615966796875,1.9313603639602661,-0.18697680532932281,0.23382820188999176
1776445005418634000,10.180634033203125,1.909192681312561,0.027468375861644745,0.31303513050079346
1776445005443651000,10.205651123046875,2.1244900226593018,0.2340622991323471,0.4576389193534851
1776445005468668000,10.23066796875,2.6657917499542236,-0.06017439067363739,0.33448851108551025
1776445005493685000,10.25568505859375,3.04645037651062,-0.17703735828399658,0.12179647386074066
1776445005518702000,10.2807021484375,2.7716400623321533,0.019208315759897232,0.14879240095615387
1776445005543719200,10.30571923828125,2.584725856781006,0.21979361772537231,0.21597491204738617
1776445005568736000,10.330736083984375,2.6392922401428223,-0.15705566108226776,-0.003022954100742936
1776445005593757000,10.3557568359375,2.6286568641662598,-0.03278537839651108,-0.20309320092201233
1776445005618774000,10.38077392578125,2.3363265991210938,0.08737831562757492,-0.2561553418636322
1776445005643790800,10.405790771484375,2.0223124027252197,0.32264676690101624,-0.20459549129009247
1776445005668807700,10.4308076171875,2.0787386894226074,0.41496044397354126,-0.20965176820755005
1776445005693824800,10.45582470703125,2.3170628547668457,-0.005981726106256247,-0.11797430366277695
1776445005718841900,10.480841796875,2.316828489303589,0.33503177762031555,0.08999327570199966
1776445005743858700,10.505858642578126,2.3165249824523926,0.36819931864738464,0.10477355122566223
1776445005768875800,10.530875732421874,2.410485029220581,0.2735540568828583,0.24116042256355286
1776445005793892900,10.555892822265625,2.417038917541504,0.27668139338493347,0.27363741397857666
1776445005818910000,10.580909912109375,2.305349826812744,0.32365715503692627,0.07472776621580124
1776445005843926800,10.6059267578125,2.164043664932251,0.44905608892440796,0.0816810131072998
1776445005868944000,10.63094384765625,2.1650030612945557,0.7117436528205872,0.22309193015098572
1776445005893961000,10.6559609375,2.39926815032959,0.5410840511322021,0.10156551003456116
1776445005918978000,10.68097802734375,2.4942626953125,0.16716715693473816,-0.16566486656665802
1776445005943996000,10.705995849609375,2.137969970703125,0.336637407541275,-0.2158995419740677
1776445005969013000,10.731012939453125,1.4391024112701416,0.639580249786377,-0.12656059861183167
1776445005994029800,10.75602978515625,0.7879063487052917,0.5233889222145081,-0.04852279648184776
1776445006019046700,10.781046630859375,0.4870295822620392,-0.17571456730365753,-0.17579659819602966
1776445006044063700,10.806063720703126,0.35794830322265625,-0.32471176981925964,-0.2941461503505707
1776445006069080800,10.831080810546876,0.2646697461605072,-0.24726784229278564,-0.2693904638290405
1776445006094098000,10.856097900390624,0.44231271743774414,-0.2484191358089447,-0.14653190970420837
1776445006119114800,10.88111474609375,0.6493532657623291,-0.04205504059791565,-0.0516996793448925
1776445006144131800,10.9061318359375,0.7990708351135254,0.29395705461502075,-0.07397302985191345
1776445006169149000,10.93114892578125,1.5344518423080444,0.32537275552749634,0.08612875640392303
1776445006194166000,10.956166015625,2.21821665763855,0.2874855697154999,0.2078661173582077
1776445006219182800,10.981182861328126,2.3986549377441406,0.8541580438613892,0.14148549735546112
1776445006244199700,11.00619970703125,2.5872080326080322,0.9328153133392334,0.12870818376541138
1776445006269216800,11.031216796875,2.6435153484344482,0.9038457274436951,0.07219057530164719
1776445006294233900,11.05623388671875,2.2645440101623535,0.9056273698806763,0.15362338721752167
1776445006319251000,11.0812509765625,1.028319239616394,-0.35290053486824036,0.03845737874507904
1776445006344267800,11.106267822265625,0.46223822236061096,-0.42237362265586853,-0.4135340452194214
1776445006369284900,11.131284912109376,0.6975593566894531,-0.4837392270565033,-0.6913565993309021
1776445006394302000,11.156302001953126,0.8843660354614258,-0.670812726020813,-0.56276535987854
1776445006419319000,11.181319091796874,1.3459104299545288,-0.6885352730751038,-0.23512543737888336
1776445006444335900,11.2063359375,1.372107744216919,-0.07349765300750732,-0.037951111793518066
1776445006469353000,11.23135302734375,0.9967639446258545,0.40306809544563293,-0.01865118183195591
1776445006494369800,11.256369873046875,0.8847862482070923,0.30992695689201355,-0.1369093805551529
1776445006519388000,11.281387939453126,1.051787257194519,-0.21193435788154602,-0.002701510675251484
1776445006544404700,11.30640478515625,1.622483491897583,-0.1578359752893448,0.04755553603172302
1776445006569421800,11.331421875,1.8779163360595703,-0.07964422553777695,-0.22016698122024536
1776445006594438000,11.35643798828125,2.252260684967041,-0.49943244457244873,-0.24365313351154327
1776445006619455000,11.381455078125,2.3706700801849365,-0.31796279549598694,0.23266014456748962
1776445006644471800,11.406471923828125,2.223630666732788,0.10167762637138367,0.2166910320520401
1776445006669488600,11.431488525390625,2.4816102981567383,0.4855685532093048,-0.14775218069553375
1776445006694505700,11.456505615234375,2.756457567214966,0.3145129382610321,-0.4248386323451996
1776445006719522800,11.481522705078126,2.375535488128662,0.48309341073036194,-0.14454306662082672
1776445006744539600,11.50653955078125,1.8514575958251953,0.7338705062866211,-0.04625937342643738
1776445006769556700,11.531556640625,1.5930986404418945,0.6206134557723999,-0.15252269804477692
1776445006794573800,11.55657373046875,1.4363915920257568,-0.08579958975315094,0.03761768341064453
1776445006819591000,11.5815908203125,1.3211787939071655,-0.5120017528533936,0.32016468048095703
1776445006844607700,11.606607666015625,1.2357397079467773,-0.7854276895523071,0.2700115144252777
1776445006869624800,11.631624755859375,1.0055334568023682,-0.7318182587623596,0.15837739408016205
1776445006894642000,11.656641845703126,0.9595342874526978,-0.3378440737724304,0.19231991469860077
1776445006919658800,11.68165869140625,0.848422110080719,0.32129013538360596,0.22532419860363007
1776445006944675600,11.706675537109374,0.6985801458358765,0.25616520643234253,0.07192771881818771
1776445006969692700,11.731692626953125,0.7310555577278137,0.10515011847019196,0.06791699677705765
1776445006994709800,11.756709716796875,0.5851953029632568,-0.06484024971723557,0.17377819120883942
1776445007019726800,11.781726806640625,0.530486524105072,0.12688124179840088,0.03780383616685867
1776445007044743700,11.80674365234375,0.4859110414981842,0.20164470374584198,-0.0834411010146141
1776445007069760800,11.8317607421875,0.316057026386261,-0.01251286268234253,-0.07166379690170288
1776445007094777900,11.85677783203125,0.5887026786804199,-0.5758087038993835,-0.6229439973831177
1776445007119795700,11.881795654296875,0.7574312090873718,-0.42248600721359253,-0.9958954453468323
1776445007144812800,11.906812744140625,0.5236336588859558,0.34393179416656494,-0.7732698321342468
1776445007169830000,11.931829833984375,0.41187357902526855,0.29741862416267395,-0.4358167350292206
1776445007194847000,11.956846923828126,0.4604794681072235,0.26643407344818115,-0.1731315702199936
1776445007219863800,11.98186376953125,0.636968195438385,0.6807042360305786,0.21919147670269012
1776445007244880600,12.006880615234374,0.7357882857322693,0.5501715540885925,0.163595050573349
1776445007269897700,12.031897705078125,0.7339648008346558,0.025115739554166794,0.03551245480775833
1776445007294914800,12.056914794921875,1.1023372411727905,-0.7493554949760437,-0.15939125418663025
1776445007319931600,12.081931640625,0.9953468441963196,-0.8098017573356628,-0.43591126799583435
1776445007344948700,12.10694873046875,0.8563506007194519,-0.792678713798523,-0.42900729179382324
1776445007369965800,12.1319658203125,1.0019938945770264,0.007244330830872059,0.1362246870994568
1776445007394983000,12.15698291015625,1.278645634651184,0.4922906458377838,0.5521891117095947
1776445007419999700,12.181999755859374,1.7857691049575806,0.7499730587005615,0.645488977432251
1776445007445016800,12.207016845703125,1.413724660873413,1.0542261600494385,0.4065139591693878
1776445007470034000,12.232033935546875,1.1106114387512207,1.1316211223602295,0.3132021129131317
1776445007495050800,12.25705078125,1.0229052305221558,0.6815004944801331,0.0686056911945343
1776445007520067600,12.282067626953125,0.9826204180717468,-0.014995194971561432,-0.20233100652694702
1776445007545084700,12.307084716796876,1.3301395177841187,-0.18151386082172394,-0.39743125438690186
1776445007570101800,12.332101806640624,2.156649112701416,-0.4226841330528259,-0.5059571862220764
1776445007595115800,12.35711572265625,2.6903915405273438,-0.2528197467327118,-0.553585410118103
1776445007620132600,12.382132568359374,2.939122438430786,-0.3553093671798706,-0.6109248995780945
1776445007645149700,12.407149658203124,3.3506534099578857,-0.5043164491653442,-0.6981590986251831
1776445007670166800,12.432166748046875,3.73136830329895,-0.3360315263271332,-0.8439922332763672
1776445007695184000,12.457183837890625,3.372331380844116,0.17925870418548584,-0.5473171472549438
1776445007720200700,12.48220068359375,2.7822699546813965,1.1353015899658203,0.21459299325942993
1776445007745217800,12.5072177734375,2.128185510635376,1.036262035369873,0.4850772023200989
1776445007770235000,12.53223486328125,1.55980384349823,1.202283501625061,0.4898730218410492
1776445007795252700,12.557252685546874,1.2846508026123047,1.1967521905899048,0.3452860116958618
1776445007820269800,12.582269775390625,1.0605759620666504,0.7935612797737122,0.1899222731590271
1776445007845287000,12.607286865234375,0.6137813925743103,0.680669903755188,-0.10498740524053574
1776445007870303700,12.6323037109375,0.4184454679489136,-0.510689914226532,-0.6263642907142639
1776445007895320600,12.657320556640625,0.8690134286880493,-0.5330647230148315,-0.7467657923698425
1776445007920337700,12.682337646484376,1.5672249794006348,-0.519213080406189,-0.7706692814826965
1776445007945354800,12.707354736328124,1.9426660537719727,-0.5395921468734741,-0.6109659075737
1776445007970371800,12.732371826171875,1.9467544555664062,-0.23299969732761383,-0.3957214951515198
1776445007995388700,12.757388671875,1.6436386108398438,0.032871928066015244,-0.20743787288665771
1776445008020405800,12.78240576171875,1.4100703001022339,-0.5366501212120056,-0.33537134528160095
1776445008045422800,12.8074228515625,1.0580976009368896,-0.737688422203064,-0.47102850675582886
1776445008070440000,12.83243994140625,0.5291751623153687,-0.5173523426055908,-0.43300601840019226
1776445008095456800,12.857456787109374,0.6501556634902954,-0.7420176863670349,-0.5310748219490051
1776445008120473600,12.8824736328125,0.9101755023002625,-0.18480366468429565,-0.6955620050430298
1776445008145490700,12.90749072265625,1.0687896013259888,0.11762569844722748,-0.6469137668609619
1776445008170507800,12.9325078125,1.6270966529846191,-0.04766525700688362,-0.45203402638435364
1776445008195524600,12.957524658203125,2.045630693435669,-0.49763748049736023,-0.5426582098007202
1776445008220541700,12.982541748046875,2.2773759365081787,-0.40916353464126587,-0.6851770281791687
1776445008245558800,13.007558837890626,2.190682888031006,-0.2509478032588959,-0.8951762914657593
1776445008270575900,13.032575927734374,1.7015748023986816,-0.5723002552986145,-0.9806896448135376
1776445008295592700,13.0575927734375,1.4611382484436035,-0.9181452989578247,-1.0291786193847656
1776445008320609800,13.08260986328125,1.7106891870498657,-0.8129813075065613,-0.8466655015945435
1776445008345627000,13.107626953125,2.1156601905822754,-0.6451286673545837,-0.5289030075073242
1776445008370643700,13.132643798828125,1.935394525527954,-0.30392366647720337,-0.2609277367591858
1776445008395660500,13.15766064453125,1.6006852388381958,-0.1907571703195572,-0.02106453850865364
1776445008420677600,13.182677734375,1.476172924041748,-0.5316897034645081,0.16277986764907837
1776445008445694700,13.20769482421875,1.329879879951477,-1.038411021232605,0.09400266408920288
1776445008470711800,13.2327119140625,1.4350451231002808,-1.135480523109436,0.039855536073446274
1776445008495728600,13.257728759765625,1.59214186668396,-0.9796573519706726,0.21533814072608948
1776445008520746800,13.282746826171875,1.7284413576126099,-0.3889312446117401,0.42602720856666565
1776445008545763800,13.307763916015626,2.0429675579071045,-0.44538065791130066,0.3652117848396301
1776445008570780700,13.33278076171875,2.2807083129882812,-0.25051742792129517,0.4598703980445862
1776445008595798000,13.357798095703124,2.4834606647491455,0.4685744047164917,0.9314131736755371
1776445008620815000,13.382815185546875,2.7444026470184326,1.6368778944015503,1.451549768447876
1776445008645832000,13.40783203125,3.164269208908081,1.6527372598648071,1.1767126321792603
1776445008670849000,13.43284912109375,3.2812492847442627,1.3327698707580566,0.6917219758033752
1776445008695865900,13.457865966796875,3.3042213916778564,0.667829692363739,0.49672454595565796
1776445008720883000,13.482883056640626,2.852755069732666,0.04210431128740311,0.5478132963180542
1776445008745900000,13.507900146484374,2.762223958969116,-0.6252753138542175,0.30409571528434753
1776445008770916900,13.532916748046874,2.225917339324951,-0.9573137164115906,-0.23705728352069855
1776445008795934000,13.557933837890625,1.5772784948349,-1.0044050216674805,-0.46432799100875854
1776445008820951000,13.582950927734375,1.692145586013794,-1.0056806802749634,-0.32449790835380554
1776445008845968100,13.607968017578125,1.6778841018676758,-0.4353107213973999,-0.26801520586013794
1776445008870985000,13.63298486328125,1.505103588104248,-0.01378398947417736,-0.437659353017807
1776445008896002000,13.658001953125,1.495081901550293,-0.056659817695617676,-0.19088126718997955
1776445008921019100,13.68301904296875,1.5610930919647217,0.11327063292264938,0.2123223841190338
1776445008946036200,13.7080361328125,1.2351094484329224,0.42639631032943726,0.001886317040771246
1776445008971052800,13.733052734375,0.5785115361213684,0.35988733172416687,-0.5862669348716736
1776445008996070000,13.75806982421875,-0.03439871966838837,-0.1576215773820877,-0.6247482895851135
1776445009021087000,13.7830869140625,-0.33678922057151794,-0.48729297518730164,-0.4049946367740631
1776445009046104000,13.80810400390625,0.543951690196991,0.49060913920402527,0.19086448848247528
1776445009071121000,13.833120849609376,1.663970947265625,0.5168889164924622,0.5293197631835938
1776445009096138000,13.858137939453124,1.7230050563812256,-1.1584612131118774,-0.2046426236629486
1776445009121155000,13.883155029296875,1.4527876377105713,-1.2066090106964111,-0.9965958595275879
1776445009146172200,13.908172119140625,1.1091821193695068,-0.9764077663421631,-0.9351953864097595
1776445009171189000,13.93318896484375,1.1578998565673828,-0.028414597734808922,-0.16551412642002106
1776445009196206000,13.9582060546875,1.2429555654525757,-0.3319513201713562,0.22210043668746948
1776445009221223000,13.983222900390626,1.23799467086792,-0.36121731996536255,0.2941429316997528
1776445009246240000,14.008239990234374,1.5245920419692993,-0.19610053300857544,0.1598447859287262
1776445009271256800,14.0332568359375,1.7008544206619263,-0.20678113400936127,0.36887016892433167
1776445009296274000,14.05827392578125,1.532361626625061,0.03441949188709259,0.6373783349990845
1776445009321291000,14.083291015625,1.2164387702941895,0.12724104523658752,0.6255573630332947
1776445009346308000,14.10830810546875,0.8260536789894104,0.20242474973201752,0.45841097831726074
1776445009371326000,14.133325927734376,0.8337326645851135,0.203361377120018,0.19611544907093048
1776445009396343000,14.158343017578124,1.2235983610153198,0.10258469730615616,-0.0006926882197149098
1776445009421360000,14.183360107421874,1.5951626300811768,-0.024689100682735443,0.08947502076625824
1776445009446377000,14.208376953125,2.0367722511291504,-0.05800258368253708,0.2146875411272049
1776445009471394000,14.23339404296875,2.333000659942627,-0.10544360429048538,0.46080222725868225
1776445009496411100,14.2584111328125,2.262155532836914,0.21436555683612823,0.7913745641708374
1776445009521428000,14.283427978515626,2.438354969024658,0.5415375828742981,0.8447278141975403
1776445009546444800,14.30844482421875,2.8370978832244873,0.7477570176124573,0.7480753064155579
1776445009571462000,14.3334619140625,3.341736316680908,1.2033977508544922,0.9136389493942261
1776445009596482600,14.358482666015625,3.8317224979400635,1.1804879903793335,1.039183259010315
1776445009621499400,14.38349951171875,3.926973581314087,1.3492200374603271,0.9726468920707703
1776445009646516200,14.40851611328125,3.3309926986694336,1.144883394241333,0.5955701470375061
1776445009671533300,14.433533203125,2.3257901668548584,1.0344431400299072,0.17339974641799927
1776445009696550400,14.45855029296875,1.7512187957763672,0.937040388584137,-0.36291855573654175
1776445009721567500,14.4835673828125,1.8314145803451538,0.11556681245565414,-0.5995587706565857
1776445009746584300,14.508584228515625,1.9816921949386597,-0.445726603269577,-0.7633655667304993
1776445009771601400,14.533601318359375,1.8761969804763794,0.09661362320184708,-0.8737788796424866
1776445009796618500,14.558618408203126,1.8907638788223267,0.1746804565191269,-0.9432131052017212
1776445009821635600,14.583635498046876,2.1593847274780273,0.2374972403049469,-0.915588915348053
1776445009846652400,14.60865234375,2.306018829345703,0.11981614679098129,-0.9373953938484192
1776445009871669200,14.633669189453125,2.2127249240875244,0.10063153505325317,-0.9885363578796387
1776445009896686300,14.658686279296875,1.9051401615142822,0.028795162215828896,-0.9094556570053101
1776445009921703400,14.683703369140625,1.1626887321472168,-0.24388669431209564,-0.7647528052330017
1776445009946720300,14.70872021484375,0.29793500900268555,-0.34120607376098633,-0.5297402739524841
1776445009971737300,14.7337373046875,-0.18933983147144318,-0.12294483184814453,-0.021329523995518684
1776445009996754400,14.75875439453125,-0.25633856654167175,0.08022799342870712,0.22597454488277435
1776445010021771500,14.783771484375,-0.19829311966896057,-0.18146567046642303,0.22413456439971924
1776445010046788400,14.808788330078125,0.8740745186805725,-1.0030028820037842,0.3075788617134094
1776445010071805400,14.833805419921875,1.6303099393844604,-0.5582723021507263,0.2425718903541565
1776445010096822500,14.858822509765625,2.137572765350342,0.08478625863790512,0.21410882472991943
1776445010121839400,14.88383935546875,2.583930253982544,0.15321485698223114,0.17761527001857758
1776445010146856200,14.908856201171876,2.6912760734558105,0.2910483479499817,-0.024030767381191254
1776445010171873300,14.933873291015624,2.114344358444214,0.5245324969291687,-0.3204805552959442
1776445010196890400,14.958890380859375,1.2266054153442383,-0.5559857487678528,-0.6161092519760132
1776445010221907500,14.983907470703125,0.7851235866546631,-1.146532654762268,-0.6453012228012085
1776445010246924300,15.00892431640625,1.1230113506317139,-1.157440185546875,-0.48630839586257935
1776445010271941400,15.03394140625,1.7228151559829712,-0.8443911671638489,-0.3295547366142273
1776445010296958500,15.05895849609375,1.9422457218170166,-0.7814657092094421,-0.2645794451236725
1776445010321975600,15.0839755859375,1.8569817543029785,-0.3206339478492737,-0.039447009563446045
1776445010346992400,15.108992431640624,1.6831876039505005,-0.4221626818180084,0.3165696859359741
1776445010372009500,15.134009521484375,1.650185465812683,-1.2404191493988037,0.40968871116638184
1776445010397027600,15.159027587890625,1.478454351425171,-0.6222018003463745,0.16071750223636627
1776445010422044400,15.18404443359375,1.240233302116394,-0.17570844292640686,-0.46430402994155884
1776445010447061200,15.209061279296876,1.2754205465316772,-0.12703144550323486,-0.4268573224544525
1776445010472078300,15.234078369140626,1.6093809604644775,-0.3618684709072113,-0.13024908304214478
1776445010497095400,15.259095458984374,1.6538150310516357,0.6746453046798706,0.16468216478824615
1776445010522112300,15.2841123046875,1.9131771326065063,0.2340010404586792,0.07250802218914032
1776445010547129300,15.30912939453125,2.215604066848755,0.26964372396469116,0.07863062620162964
1776445010572146400,15.334146484375,2.6106061935424805,0.5384517312049866,0.2719620168209076
1776445010597160000,15.359159912109375,2.7111682891845703,0.7887284159660339,0.20926134288311005
1776445010622176800,15.3841767578125,2.3725743293762207,0.1620248556137085,-0.04674194008111954
1776445010647193600,15.409193603515625,2.2305450439453125,-0.2631725072860718,-0.32515865564346313
1776445010672210700,15.434210693359375,2.371925115585327,-0.7298163771629333,-0.2694447934627533
1776445010697227800,15.459227783203126,1.9513484239578247,-1.4804975986480713,0.08260832726955414
1776445010722244900,15.484244873046874,2.2443599700927734,-1.1890125274658203,-0.06899531185626984
1776445010747261700,15.50926171875,2.005662202835083,0.36691755056381226,0.02323661372065544
1776445010772278800,15.53427880859375,1.4911094903945923,0.9910748600959778,0.42383676767349243
1776445010797295900,15.5592958984375,0.8046448230743408,1.2448712587356567,0.6177910566329956
1776445010822312700,15.584312744140625,0.5011613965034485,0.9575188159942627,0.6358209252357483
1776445010847329800,15.609329833984376,0.47646427154541016,0.4753239154815674,0.731935441493988
1776445010872347000,15.634346923828126,0.30873680114746094,0.05727341026067734,0.7981445789337158
1776445010897363700,15.65936376953125,0.6512771248817444,-0.4055118262767792,0.39132675528526306
1776445010922380800,15.684380859375,1.1520235538482666,-0.18431897461414337,0.023723438382148743
1776445010947397600,15.709397705078125,1.1442985534667969,0.09051737934350967,-0.08550424873828888
1776445010972414700,15.734414794921875,0.5353366732597351,1.1738183498382568,0.08569413423538208
1776445010997431800,15.759431884765625,0.6732292771339417,0.40991321206092834,-0.011480621062219143
1776445011022449000,15.784448974609376,0.9725358486175537,0.6830102801322937,-0.12226599454879761
1776445011047465700,15.8094658203125,1.0935347080230713,0.7052851915359497,0.2808026373386383
1776445011072482800,15.83448291015625,1.0317517518997192,0.9042167067527771,0.6447494029998779
1776445011097500000,15.8595,1.0445133447647095,0.9829671382904053,0.44082534313201904
1776445011122517000,15.88451708984375,1.0024681091308594,0.5409641861915588,-0.08882308006286621
1776445011147533800,15.909533935546875,0.8800777792930603,0.07408780604600906,-0.209565207362175
1776445011172550700,15.934550537109375,0.5106592774391174,0.24236257374286652,-0.04339407756924629
1776445011197567700,15.959567626953126,0.4227440655231476,0.23133867979049683,-0.11507093161344528
1776445011222584800,15.984584716796874,1.037683367729187,-0.21500231325626373,-0.1962113231420517
1776445011247601700,16.0096015625,1.6228594779968262,-0.21189387142658234,-0.31463995575904846
1776445011272618800,16.03461865234375,1.6357591152191162,-0.03839665651321411,-0.29990071058273315
1776445011297635800,16.0596357421875,1.3417420387268066,-0.32025763392448425,-0.31561946868896484
1776445011322653000,16.08465283203125,1.035596251487732,-0.24969425797462463,-0.25569674372673035
1776445011347669800,16.109669677734374,1.3935784101486206,0.0728616863489151,-0.19961164891719818
1776445011372686800,16.134686767578124,2.106736183166504,0.3710891306400299,-0.258113294839859
1776445011397704000,16.159703857421874,2.752013683319092,0.9151281714439392,-0.2863854169845581
1776445011422720800,16.184720703125,3.123460531234741,1.1391386985778809,-0.42807838320732117
1776445011447737600,16.209737548828127,2.897045850753784,0.9200236201286316,-0.6142136454582214
1776445011472754700,16.234754638671873,2.5060737133026123,0.5878949165344238,-0.7668359279632568
1776445011497771800,16.259771728515624,2.0683388710021973,0.3193223476409912,-0.7612320780754089
1776445011522788900,16.284788818359374,1.6449917554855347,0.31270864605903625,-0.805526852607727
1776445011547805700,16.3098056640625,1.3318947553634644,0.06247669458389282,-0.7844002842903137
1776445011572822800,16.33482275390625,1.321908712387085,-0.5741168260574341,-0.6359676718711853
1776445011597844000,16.359843994140626,1.8600925207138062,-0.555742084980011,-0.2689307928085327
1776445011622860800,16.38486083984375,2.4076178073883057,-0.44292762875556946,0.0023699470330029726
1776445011647878000,16.4098779296875,2.2852556705474854,-0.6059911251068115,-0.030277477577328682
1776445011672895000,16.43489501953125,2.085580348968506,-0.6521860361099243,-0.2106858640909195
1776445011697912000,16.459912109375,1.8776524066925049,-0.5354653000831604,-0.2015291154384613
1776445011722928600,16.4849287109375,1.4698292016983032,-0.6074156165122986,-0.20271901786327362
1776445011747945700,16.50994580078125,1.1796014308929443,-0.30684301257133484,-0.10388006269931793
1776445011772962800,16.534962890625,1.1899807453155518,-0.08763877302408218,-0.014847655780613422
1776445011797980000,16.55997998046875,1.3816250562667847,-0.22474655508995056,-0.1265864372253418
1776445011822996700,16.584996826171874,1.6637235879898071,-0.017406420782208443,-0.19974985718727112
1776445011848013800,16.610013916015625,1.9460124969482422,0.16392634809017181,-0.2240522801876068
1776445011873031000,16.635031005859375,2.0720417499542236,-0.030471090227365494,-0.1759052574634552
1776445011898048800,16.660048828125,1.876846194267273,-0.18328113853931427,-0.117865651845932
1776445011923065900,16.68506591796875,1.7354673147201538,-0.20562346279621124,-0.1290980577468872
1776445011948083000,16.7100830078125,1.9723347425460815,0.02436472848057747,-0.36839133501052856
1776445011973100000,16.73510009765625,1.9118212461471558,-0.25028282403945923,-0.4151434004306793
1776445011998116900,16.760116943359375,1.587589979171753,-0.6647737622261047,-0.23369690775871277
1776445012023133700,16.7851337890625,1.3302305936813354,-0.3695567548274994,0.03230521082878113
1776445012048150800,16.81015087890625,1.2880535125732422,-0.16342514753341675,-0.0314098559319973
1776445012073168000,16.83516796875,1.2640728950500488,-0.11419527977705002,-0.02255644090473652
1776445012098184700,16.860184814453124,1.3144090175628662,-0.34895986318588257,0.05286987125873566
1776445012123201800,16.885201904296874,1.3246374130249023,-0.18260416388511658,0.17886509001255035
1776445012148219000,16.910218994140624,1.055982232093811,0.40421217679977417,0.25265809893608093
1776445012173236000,16.935236083984375,0.9889185428619385,0.15605324506759644,0.09826558083295822
1776445012198252800,16.960252685546877,1.0382535457611084,-0.24632641673088074,-0.05079606920480728
1776445012223270000,16.985269775390623,1.164319396018982,-0.6531525254249573,-0.05817116051912308
1776445012248287000,17.010286865234374,1.2215293645858765,-0.9239357709884644,-0.0339510440826416
1776445012273303800,17.0353037109375,1.1330515146255493,-1.3665353059768677,-0.06782644987106323
1776445012298321000,17.06032080078125,1.110887885093689,-0.7151783108711243,0.10475970059633255
1776445012323337700,17.085337646484376,1.2419252395629883,-0.15604765713214874,0.3331209719181061
1776445012348354800,17.110354736328127,1.5506492853164673,0.23697926104068756,0.5625352263450623
1776445012373372000,17.135371826171873,1.7488576173782349,0.23132111132144928,0.7585082054138184
1776445012398388700,17.160388671875,2.4629714488983154,-0.12647750973701477,0.7402455806732178
1776445012423405800,17.18540576171875,2.7734711170196533,-0.22184957563877106,0.29500260949134827
1776445012448423000,17.2104228515625,2.653761148452759,-0.009557286277413368,-0.02485022135078907
1776445012473440000,17.23543994140625,2.850991725921631,0.0038948729634284973,-0.10516370087862015
1776445012498456800,17.260456787109376,2.9292311668395996,-0.13983939588069916,-0.03533855080604553
1776445012523474000,17.285473876953127,2.432863235473633,-0.20817157626152039,0.09352542459964752
1776445012548490800,17.31049072265625,1.9508640766143799,-0.05625395104289055,0.4034465253353119
1776445012573507800,17.3355078125,1.974494218826294,0.3314506411552429,0.6400982141494751
1776445012598520800,17.360520751953125,1.92000412940979,0.21879732608795166,0.13397377729415894
1776445012623537700,17.38553759765625,1.9709583520889282,0.037282925099134445,-0.12450837343931198
1776445012648554800,17.4105546875,2.084646701812744,-0.0741133764386177,0.15530996024608612
1776445012673571800,17.43557177734375,2.1318209171295166,0.36533722281455994,0.12377440184354782
1776445012698589000,17.4605888671875,1.9175670146942139,0.30022507905960083,-0.41355401277542114
1776445012723605800,17.485605712890624,1.4798680543899536,-0.17173980176448822,-0.5393063426017761
1776445012748622800,17.510622802734375,1.1514052152633667,0.270964115858078,-0.2564850449562073
1776445012773640000,17.535639892578125,1.0965280532836914,0.45933297276496887,-0.3562110960483551
1776445012798657000,17.560656982421875,0.9273547530174255,0.13067226111888885,-0.5917884707450867
1776445012823673900,17.585673828125,0.7821123600006104,-0.2812631130218506,-0.5268747210502625
1776445012848690700,17.610690673828124,0.6679573059082031,-0.30961909890174866,-0.29026538133621216
1776445012873707800,17.635707763671874,0.6710574626922607,-0.25648850202560425,-0.3357226252555847
1776445012898724900,17.660724853515624,0.9405696392059326,0.1253882795572281,-0.7709752917289734
1776445012923741700,17.68574169921875,1.0516705513000488,0.44682809710502625,-1.0636260509490967
1776445012948758800,17.7107587890625,0.7603111863136292,-0.06943606585264206,-0.4337301254272461
1776445012973776000,17.73577587890625,0.8533630967140198,0.18280203640460968,0.6103520393371582
1776445012998793000,17.76079296875,1.3236699104309082,0.7009104490280151,1.0268983840942383
1776445013023809800,17.785809814453124,2.02886700630188,0.5117239952087402,1.2596772909164429
1776445013048827000,17.810826904296874,2.7701594829559326,0.34670203924179077,1.2847634553909302
1776445013073844000,17.835843994140625,3.217113494873047,-0.009425193071365356,0.9326464533805847
1776445013098860800,17.86086083984375,3.456960678100586,-0.12079166620969772,0.5525811314582825
1776445013123878000,17.8858779296875,3.4756369590759277,-0.05606779456138611,0.4238679111003876
1776445013148894700,17.910894775390624,2.6799681186676025,-0.3711322546005249,0.5466553568840027
1776445013173911800,17.935911865234374,1.6845617294311523,0.03736095502972603,0.46523532271385193
1776445013198929000,17.960928955078124,1.1439446210861206,0.13523532450199127,-0.16080112755298615
1776445013223946000,17.985946044921874,0.9409547448158264,0.09483569860458374,-0.49297693371772766
1776445013248962800,18.010962890625,1.1509798765182495,-0.19415776431560516,-0.6689050793647766
1776445013273980000,18.03597998046875,1.4898942708969116,-0.0906611904501915,-0.6541125774383545
1776445013298997000,18.0609970703125,1.7885613441467285,0.021756161004304886,-0.47145140171051025
1776445013324013800,18.086013916015624,2.1188089847564697,0.2998831272125244,-0.271595299243927
1776445013349031000,18.111031005859374,2.2944540977478027,0.4230212867259979,-0.10812780261039734
1776445013374047700,18.1360478515625,2.314210891723633,0.46160703897476196,0.06496009230613708
1776445013399064800,18.16106494140625,2.193542003631592,0.4485948383808136,0.11636282503604889
1776445013424082000,18.18608203125,1.909033179283142,0.4246213138103485,0.12947197258472443
1776445013449098800,18.2110986328125,1.6808940172195435,0.43987858295440674,0.24115349352359772
1776445013474115800,18.23611572265625,1.4172121286392212,0.05602571740746498,0.24983566999435425
1776445013499133000,18.2611328125,1.1154247522354126,-0.18315757811069489,0.040459807962179184
1776445013524150000,18.28614990234375,0.9851030111312866,-0.25445786118507385,-0.18931400775909424
1776445013549166800,18.311166748046876,1.0811504125595093,-0.18890440464019775,-0.16031962633132935
1776445013574184000,18.336183837890626,1.2744663953781128,-0.15491953492164612,0.011753062717616558
1776445013599204900,18.361204833984374,1.4881501197814941,-0.0410238653421402,0.10019797086715698
1776445013624221700,18.3862216796875,1.7623319625854492,0.11036112904548645,0.0650935173034668
1776445013649238800,18.41123876953125,2.0356662273406982,0.22207488119602203,0.18623511493206024
1776445013674256000,18.436255859375,2.056767702102661,0.24909211695194244,0.3126697540283203
1776445013699272700,18.461272705078127,1.7413544654846191,0.009416405111551285,0.21314848959445953
1776445013724289500,18.48628955078125,1.36395263671875,-0.04205344244837761,-0.0647536963224411
1776445013749306600,18.511306640625,0.898926854133606,-0.17284874618053436,-0.27113455533981323
1776445013774323700,18.53632373046875,0.46242544054985046,-0.4070660471916199,-0.23506897687911987
1776445013799340800,18.5613408203125,0.326550155878067,-0.19042374193668365,-0.14744697511196136
1776445013824357600,18.586357666015626,0.5869564414024353,-0.08219340443611145,-0.21933555603027344
1776445013849374700,18.611374755859377,0.8865988254547119,-0.2351643145084381,-0.3324626386165619
1776445013874391800,18.636391845703123,0.8672837018966675,-0.24477753043174744,-0.4445188641548157
1776445013899409000,18.661408935546874,0.8101280331611633,0.3575541377067566,-0.4900591969490051
1776445013924425700,18.68642578125,1.053383231163025,-0.012416988611221313,-0.3233186602592468
1776445013949442600,18.711442626953126,1.5082000494003296,-0.3432955741882324,-0.026642529293894768
1776445013974459600,18.736459716796876,2.1046109199523926,0.009877131320536137,-0.003964648116379976
1776445013999476700,18.761476806640626,2.2931594848632812,0.024456873536109924,-0.3175657093524933
1776445014024493600,18.78649365234375,1.684134840965271,-0.5196011066436768,-0.631730854511261
1776445014049510700,18.8115107421875,0.7492308616638184,-0.6589429974555969,-0.7142091989517212
1776445014074527700,18.83652783203125,0.7512966394424438,-0.4846140742301941,-0.6302080154418945
1776445014099544800,18.861544921875,1.4527075290679932,-0.6084630489349365,-0.7036761045455933
1776445014124561700,18.886561767578126,1.4451204538345337,-1.3009803295135498,-0.9629937410354614
1776445014149578800,18.911578857421876,1.1878867149353027,-1.3769927024841309,-0.4004339575767517
1776445014174595800,18.936595947265626,0.9798983931541443,-0.3973678648471832,-0.0007193197961896658
1776445014199612700,18.96161279296875,0.6245160698890686,1.1936527490615845,0.8136465549468994
1776445014224629800,18.986629638671875,0.5684501528739929,0.8596750497817993,0.9580860137939453
1776445014249646600,19.011646484375,0.8575993776321411,0.6312224268913269,1.4630059003829956
1776445014274663700,19.03666357421875,1.67868971824646,0.2307751625776291,1.9582223892211914
1776445014299680800,19.0616806640625,1.7372926473617554,-0.8962844610214233,1.083479404449463
1776445014324697900,19.08669775390625,1.0625567436218262,-1.699212908744812,0.7831592559814453
1776445014349714700,19.111714599609375,1.0474755764007568,-1.22043776512146,0.7173128724098206
1776445014374731800,19.136731689453125,1.831695318222046,-0.4438541531562805,0.5381252765655518
1776445014399748900,19.161748779296875,2.4658217430114746,0.2849470376968384,0.475390762090683
1776445014424766000,19.186765869140626,3.071751832962036,0.5879844427108765,0.18051810562610626
1776445014449782800,19.21178271484375,3.5126469135284424,0.4380345940589905,0.01973988302052021
1776445014474799600,19.236799560546874,3.2913315296173096,0.11455134302377701,0.11261416226625443
1776445014499816700,19.261816650390625,3.0931692123413086,-0.16337081789970398,0.24475115537643433
1776445014524833800,19.286833740234375,3.096034526824951,-0.015216769650578499,0.28508368134498596
1776445014549850600,19.3118505859375,2.882307767868042,0.08097527921199799,0.08687470853328705
1776445014574867700,19.33686767578125,2.577364921569824,-0.09959396719932556,-0.1738002896308899
1776445014599882000,19.361882080078125,1.9882441759109497,-0.06157414987683296,-0.14213423430919647
1776445014624898600,19.386898681640623,2.0515403747558594,0.5314955711364746,0.05764438584446907
1776445014649915600,19.41191552734375,2.0699381828308105,1.1302599906921387,0.04759441688656807
1776445014674932700,19.4369326171875,1.6429392099380493,0.9218936562538147,-0.3176349401473999
1776445014699949800,19.46194970703125,1.3054176568984985,0.4374002516269684,-0.5062360167503357
1776445014724966700,19.486966552734376,1.3189507722854614,0.43854379653930664,-0.25047749280929565
1776445014749983700,19.511983642578127,1.1083942651748657,0.5065332651138306,-0.14183303713798523
1776445014775000800,19.537000732421873,0.8698067665100098,0.3997069299221039,-0.36155712604522705
1776445014800018000,19.562017822265624,0.9210979342460632,0.1730700433254242,-0.41506269574165344
1776445014825034800,19.58703466796875,0.9276799559593201,0.39420002698898315,-0.009801497682929039
1776445014850051800,19.6120517578125,1.0330228805541992,-0.18245743215084076,-0.15527799725532532
1776445014875068700,19.637068603515626,1.0393582582473755,-0.19507335126399994,-0.3830251395702362
1776445014900085800,19.662085693359376,1.3147273063659668,-0.4559169411659241,-0.34603142738342285
1776445014925102600,19.6871025390625,1.3101905584335327,-0.41053879261016846,-0.1632363200187683
1776445014950119700,19.71211962890625,1.481634497642517,-0.8290215134620667,-0.22223785519599915
1776445014975136800,19.73713671875,2.033215045928955,-0.5891109108924866,-0.3100617229938507
1776445015000153900,19.76215380859375,1.1942389011383057,0.059546951204538345,-0.35862207412719727
1776445015025170700,19.787170654296876,0.5997132658958435,0.25022849440574646,-0.026343191042542458
1776445015050187800,19.812187744140626,0.7327096462249756,0.13244059681892395,0.6565605401992798
1776445015075204900,19.837204833984377,1.0172369480133057,0.03702219948172569,1.035733938217163
1776445015100222000,19.862221923828123,1.2006092071533203,0.4169713854789734,0.8513239026069641
1776445015125238800,19.88723876953125,1.446621060371399,0.8569223880767822,0.5769099593162537
1776445015150255600,19.912255615234375,1.9360350370407104,1.015844702720642,0.6469244360923767
1776445015175272700,19.937272705078126,2.529975652694702,1.467222809791565,0.8256680965423584
1776445015200289800,19.962289794921876,2.242143154144287,1.5073299407958984,0.6365535259246826
1776445015225306600,19.987306640625,1.4964711666107178,1.77626633644104,0.35438230633735657
1776445015250323700,20.01232373046875,0.5340298414230347,1.5102722644805908,-0.09513717144727707
1776445015275340800,20.0373408203125,-0.37732383608818054,0.5967895984649658,-0.3370555341243744
1776445015300358000,20.06235791015625,-0.44543418288230896,-0.6477417349815369,-0.6025189161300659
1776445015325374700,20.087374755859376,0.495902419090271,-0.7842916250228882,-0.7689592838287354
1776445015350391800,20.112391845703126,1.8205339908599854,-0.2611120343208313,-0.5184333324432373
1776445015375409000,20.137408935546876,2.5327658653259277,-0.007789480034261942,-0.2730594873428345
1776445015400425700,20.16242578125,2.750030279159546,0.09051045775413513,-0.0771283432841301
1776445015425442800,20.18744287109375,2.5614871978759766,0.3758860230445862,-0.14673058688640594
1776445015450459600,20.212459716796875,2.329364538192749,0.6356834769248962,-0.40616828203201294
1776445015475476700,20.237476806640625,2.9408862590789795,0.9238622784614563,-0.4620014429092407
1776445015500493800,20.262493896484376,3.380079746246338,0.019233083352446556,-0.5822815299034119
1776445015525511000,20.287510986328126,3.24324631690979,-0.4588261544704437,-0.5249969363212585
1776445015550527700,20.31252783203125,2.620466947555542,-0.3930242359638214,-0.4703632593154907
1776445015575544800,20.337544921875,1.8619331121444702,-0.4428698420524597,-0.6393415927886963
1776445015600566000,20.36256591796875,1.3675580024719238,-1.0540237426757812,-0.8694542050361633
1776445015625582800,20.387582763671876,1.2471002340316772,-0.6732127666473389,-0.7632182836532593
1776445015650600000,20.412599853515626,1.2631481885910034,-0.16609176993370056,-0.484060138463974
1776445015675617000,20.437616943359377,1.4144059419631958,-0.022346850484609604,-0.2007964849472046
1776445015700634000,20.462634033203123,1.689290165901184,-0.2058490365743637,-0.17641738057136536
1776445015725651000,20.48765087890625,2.0631275177001953,-0.08055609464645386,-0.17958414554595947
1776445015750668000,20.51266796875,2.3087565898895264,-0.005858421791344881,-0.07941786199808121
1776445015775685000,20.53768505859375,2.3324878215789795,-0.157072976231575,0.09921926259994507
1776445015800702200,20.5627021484375,2.0737497806549072,-0.7394580841064453,0.25963449478149414
1776445015825718800,20.58771875,2.016859292984009,-0.7540791034698486,0.020250143483281136
1776445015850735900,20.61273583984375,1.9061130285263062,0.03695588558912277,-0.30101868510246277
1776445015875753000,20.6377529296875,1.9933140277862549,-0.5986748933792114,-0.49518337845802307
1776445015900770000,20.66277001953125,2.336637258529663,-1.383385181427002,-0.7135828137397766
1776445015925787000,20.687786865234376,2.420792818069458,-0.9706923961639404,-0.8690195679664612
1776445015950804000,20.712803955078126,2.0859649181365967,-0.7371004223823547,-1.060915231704712
1776445015975821000,20.737821044921876,1.6988469362258911,-0.8573058843612671,-1.063514232635498
1776445016000838100,20.762838134765627,1.3813436031341553,-0.6098604202270508,-0.9430311918258667
1776445016025855000,20.78785498046875,1.3567063808441162,-0.5391218066215515,-0.955569326877594
1776445016050872000,20.8128720703125,1.562852382659912,-0.4034217596054077,-0.9591281414031982
1776445016075889000,20.837888916015626,1.7650110721588135,0.6663205027580261,-0.5912989974021912
1776445016100906000,20.862906005859376,2.0312612056732178,1.483437180519104,-0.01962376944720745
1776445016125922800,20.8879228515625,2.197091579437256,1.106481909751892,0.46461695432662964
1776445016150940000,20.91293994140625,2.2315611839294434,0.3635331988334656,0.7383971214294434
1776445016175957000,20.93795703125,2.049619436264038,-0.5024005174636841,0.8158713579177856
1776445016200974000,20.96297412109375,1.9320347309112549,-1.1400758028030396,0.45015063881874084
1776445016225991000,20.987990966796875,1.5271306037902832,-1.4257160425186157,0.0665566548705101
1776445016251008000,21.013008056640626,1.3725931644439697,-0.42197519540786743,0.3688882887363434
1776445016276025000,21.038025146484376,1.383109211921692,0.09946001321077347,0.724608838558197
1776445016301042200,21.063042236328126,1.9443531036376953,0.6684132218360901,0.9632323384284973
1776445016326059000,21.08805908203125,2.2490735054016113,0.45253098011016846,0.5528839826583862
1776445016351075800,21.113075927734375,2.3149733543395996,-0.07683512568473816,0.2008817046880722
1776445016376093000,21.138093017578125,2.18087100982666,-0.21689370274543762,0.2654939889907837
1776445016401110000,21.163110107421875,1.735302448272705,-0.7696860432624817,-0.568366527557373
1776445016426126800,21.188126953125,1.743957757949829,-0.38221341371536255,0.14295795559883118
1776445016451144000,21.21314404296875,1.9158685207366943,-0.3896108865737915,0.40464335680007935
1776445016476161000,21.2381611328125,1.8528999090194702,-0.37467852234840393,0.5445530414581299
1776445016501178000,21.26317822265625,1.7027069330215454,0.47669756412506104,0.970360279083252
1776445016526195000,21.28819482421875,1.6808149814605713,0.8998701572418213,1.0506644248962402
1776445016551212000,21.3132119140625,1.9590561389923096,1.0831557512283325,0.6375468969345093
1776445016576229000,21.33822900390625,2.0419981479644775,0.9762924909591675,-0.059250541031360626
1776445016601239600,21.363239501953124,2.089420795440674,0.39898547530174255,-0.06427086144685745
1776445016626256400,21.38825634765625,1.8989787101745605,-0.23070324957370758,0.028978921473026276
1776445016651273200,21.413273193359377,1.3135128021240234,-0.1649753749370575,-0.28842219710350037
1776445016676290300,21.438290283203123,0.8707865476608276,-0.4013088047504425,-0.500163197517395
1776445016701307400,21.463307373046874,0.8274089694023132,-0.7305316925048828,-0.45157119631767273
1776445016726324200,21.48832421875,1.0435359477996826,-0.7594030499458313,-0.3147195875644684
1776445016751341300,21.51334130859375,1.4303885698318481,0.18362176418304443,-0.3849380910396576
1776445016776358400,21.5383583984375,1.5268962383270264,0.4993155300617218,-0.27409040927886963
1776445016801375500,21.56337548828125,0.8723447918891907,-1.988967776298523,-0.9053192138671875
1776445016826392300,21.588392333984373,0.5103777647018433,-0.7265457510948181,-0.36875247955322266
1776445016851409400,21.613409423828124,1.0317938327789307,0.9418333172798157,0.4164765775203705
1776445016876426500,21.638426513671874,1.5784486532211304,1.291638970375061,0.573524534702301
1776445016901443300,21.663443359375,1.9210307598114014,0.5400714874267578,0.25959348678588867
1776445016926460200,21.688460205078126,2.2160143852233887,0.19420036673545837,-0.0923251360654831
1776445016951477200,21.713477294921876,3.0095677375793457,-0.3995276987552643,-0.6862459778785706
1776445016976494300,21.738494384765627,3.6338629722595215,-0.9490190744400024,-0.7824380397796631
1776445017001511400,21.763511474609373,3.88108491897583,-0.42113471031188965,-0.6143723726272583
1776445017026528300,21.7885283203125,3.9201443195343018,-0.03256407007575035,-0.5994716882705688
1776445017051545300,21.81354541015625,3.7301650047302246,0.16425125300884247,-0.4816920757293701
1776445017076562400,21.8385625,3.362344741821289,0.279297411441803,-0.2950337827205658
1776445017101579500,21.86357958984375,2.9145100116729736,0.10511789470911026,-0.18176127970218658
1776445017126596400,21.888596435546877,2.599989891052246,0.3223474323749542,-0.0766308605670929
1776445017151613400,21.913613525390623,2.5225942134857178,0.5352256298065186,0.14122796058654785
1776445017176630300,21.93863037109375,2.4814445972442627,0.5916140675544739,0.31594863533973694
1776445017201647400,21.9636474609375,2.4936084747314453,0.5761221647262573,0.45458853244781494
1776445017226664200,21.988664306640626,2.5979137420654297,0.1651141196489334,0.5884832143783569
1776445017251681300,22.013681396484376,2.5218164920806885,-0.1485665738582611,0.8562422394752502
1776445017276698400,22.038698486328126,2.310281753540039,-0.6459444165229797,1.0850181579589844
1776445017301715500,22.063715576171877,2.3720791339874268,-1.1507247686386108,1.0252184867858887
1776445017326732300,22.088732177734375,2.476489782333374,-1.3925610780715942,0.8261450529098511
1776445017351749400,22.113749267578125,2.6436495780944824,-0.9502766132354736,0.8606982231140137
1776445017376766500,22.138766357421876,2.7246572971343994,-0.5798676609992981,0.7113937139511108
1776445017401783600,22.163783447265626,2.5274858474731445,-0.4311460554599762,0.24202381074428558
1776445017426800000,22.188800048828124,2.114757776260376,0.43250906467437744,-0.013920875266194344
1776445017451817200,22.213817138671875,1.6412036418914795,0.560012698173523,0.11652661114931107
1776445017476834300,22.238834228515625,1.163198471069336,0.4783492684364319,0.42142951488494873
1776445017501851400,22.263851318359375,0.9053706526756287,0.2801850438117981,0.4449303150177002
1776445017526868200,22.2888681640625,0.7788052558898926,0.177285298705101,0.2938292324542999
1776445017551885300,22.31388525390625,0.8437546491622925,0.04380633682012558,0.04898325353860855
1776445017576902400,22.33890234375,1.0307128429412842,-0.20235763490200043,-0.16450372338294983
1776445017601920300,22.363920166015625,1.3049428462982178,-0.004261856433004141,-0.2938747704029083
1776445017626937300,22.388937255859375,1.4849271774291992,0.3188647925853729,-0.40882638096809387
1776445017651954200,22.4139541015625,1.6190059185028076,0.3190474808216095,-0.47378674149513245
1776445017676971300,22.43897119140625,1.683909296989441,0.2602773904800415,-0.5207947492599487
1776445017701988000,22.463988037109374,1.7243754863739014,0.6071075201034546,-0.5001754760742188
1776445017727005200,22.489005126953124,2.230804681777954,0.3876824676990509,-0.1844255030155182
1776445017752022300,22.514022216796874,2.2380034923553467,0.06675852090120316,0.1716625690460205
1776445017777039400,22.539039306640625,2.1441168785095215,0.46094444394111633,0.0996115431189537
1776445017802056200,22.56405615234375,2.0906219482421875,0.815768301486969,-0.2815893292427063
1776445017827073300,22.5890732421875,1.7313129901885986,1.1236393451690674,-0.5578328967094421
1776445017852090400,22.61409033203125,1.6915544271469116,1.1737687587738037,-0.8705316781997681
1776445017877107500,22.639107421875,2.021815538406372,0.9941420555114746,-1.3719210624694824
1776445017902124300,22.664124267578124,1.708027958869934,0.1666928380727768,-1.3234435319900513
1776445017927141000,22.68914111328125,1.8188146352767944,-1.575940489768982,-0.5870208740234375
1776445017952158200,22.714158203125,1.826109528541565,-1.4698233604431152,0.24843484163284302
1776445017977175300,22.73917529296875,1.8305370807647705,-0.72804856300354,0.6554657220840454
1776445018002192400,22.7641923828125,1.8510420322418213,-0.7570160627365112,0.6597491502761841
1776445018027209200,22.789209228515624,1.737844705581665,-1.3658514022827148,0.4508521258831024
1776445018052226300,22.814226318359374,1.2788339853286743,-1.2943389415740967,0.6701786518096924
1776445018077242400,22.839242431640624,0.9733374118804932,-0.631213366985321,0.6845653057098389
1776445018102259200,22.86425927734375,1.0096485614776611,-0.15278901159763336,0.5147360563278198
1776445018127276300,22.8892763671875,1.3674885034561157,-0.7763559222221375,0.2256656140089035
1776445018152293000,22.914293212890627,1.6078007221221924,-1.2416937351226807,0.33024927973747253
1776445018177310200,22.939310302734373,1.559652328491211,-1.2631410360336304,0.7787357568740845
1776445018202327300,22.964327392578124,1.5578078031539917,-1.190760612487793,0.9194483757019043
1776445018227344400,22.989344482421874,1.513182520866394,-1.2577422857284546,0.7682852149009705
1776445018252361200,23.014361328125,1.3209017515182495,-1.5081875324249268,0.6992304921150208
1776445018277378300,23.03937841796875,1.1329673528671265,-2.2751846313476562,0.6862457394599915
1776445018302395400,23.0643955078125,1.0810461044311523,-2.307992696762085,0.8086406588554382
1776445018327412500,23.08941259765625,1.069140911102295,-2.215496301651001,0.523312509059906
1776445018352429300,23.11442919921875,1.2559292316436768,-1.3626407384872437,0.5334199666976929
1776445018377446100,23.139446044921876,1.5413388013839722,-1.1423568725585938,0.5940178036689758
1776445018402463200,23.164463134765626,1.3105887174606323,-1.8773198127746582,0.5777871608734131
1776445018427480300,23.189480224609376,0.9940893054008484,-1.937735915184021,0.4975253641605377
1776445018452497200,23.2144970703125,0.6575400829315186,-1.6412345170974731,0.42096665501594543
1776445018477514200,23.23951416015625,0.734313428401947,-1.1257978677749634,0.6527636647224426
1776445018502531300,23.26453125,1.233662724494934,-1.2632601261138916,0.7237159013748169
1776445018527548400,23.28954833984375,1.3004636764526367,-1.639129877090454,0.7068559527397156
1776445018552565200,23.314565185546876,1.1126223802566528,-1.9280329942703247,0.5484769344329834
1776445018577582300,23.339582275390626,0.9893837571144104,-1.8546642065048218,0.3911062479019165
1776445018602599400,23.364599365234376,0.710709810256958,-1.8813000917434692,0.4358169734477997
1776445018627616500,23.389616455078126,0.3827814757823944,-1.9692070484161377,0.7327895164489746
1776445018652633300,23.41463330078125,0.4024462401866913,-1.5672553777694702,0.8940809369087219
1776445018677650400,23.439650390625,0.45930394530296326,-1.4681458473205566,0.8391026854515076
1776445018702667500,23.46466748046875,0.33090177178382874,-1.429709553718567,0.6917304992675781
1776445018727684600,23.4896845703125,0.4626006782054901,-1.1257296800613403,0.6518757939338684
1776445018752701200,23.514701171875,0.4234681725502014,-0.6483169794082642,0.5165536403656006
1776445018777718300,23.53971826171875,0.2847643494606018,-0.3768514096736908,0.20037570595741272
1776445018802735400,23.5647353515625,0.041963428258895874,-0.39661258459091187,0.08294415473937988
1776445018827752400,23.58975244140625,0.08407865464687347,-0.27130821347236633,0.16715756058692932
1776445018852769300,23.614769287109375,0.28028279542922974,-0.17494598031044006,0.1915353387594223
1776445018877786400,23.639786376953126,0.15463805198669434,-0.2758941650390625,0.12458667159080505
1776445018902803500,23.664803466796876,0.019750535488128662,-0.18951719999313354,0.14539581537246704
1776445018927820500,23.689820556640626,0.16486112773418427,-0.1687546670436859,0.1939481645822525
1776445018952837400,23.71483740234375,0.2779213786125183,-0.30872535705566406,0.2918209433555603
1776445018977854500,23.7398544921875,0.46812859177589417,-0.2849550247192383,0.3890926241874695
1776445019002871600,23.76487158203125,0.6267390251159668,-0.25520727038383484,0.508904218673706
1776445019027888400,23.789888427734375,0.6233605146408081,-0.2516242563724518,0.5692828893661499
1776445019052905200,23.8149052734375,0.49150875210762024,-0.19526590406894684,0.6555099487304688
1776445019077922300,23.83992236328125,0.29901838302612305,-0.24339641630649567,0.7457039952278137
1776445019102939400,23.864939453125,0.17977668344974518,-0.33427783846855164,0.6828888058662415
1776445019127956500,23.88995654296875,0.15703782439231873,-0.296518474817276,0.5846464037895203
1776445019152973300,23.914973388671875,0.0024839304387569427,-0.28332385420799255,0.5496061444282532
1776445019177990400,23.939990478515625,-0.3399517238140106,-0.42149531841278076,0.5636841654777527
1776445019203007500,23.965007568359376,-0.5065351128578186,-0.5052362680435181,0.5126925706863403
1776445019228024600,23.990024658203126,-0.4685909152030945,-0.44673728942871094,0.4941503405570984
1776445019253041400,24.01504150390625,-0.15258102118968964,-0.316468209028244,0.726035475730896
1776445019278058200,24.040058349609374,0.21359297633171082,-0.4313868284225464,0.8021808862686157
1776445019303075300,24.065075439453125,0.03232545033097267,-0.7636950016021729,0.6513668298721313
1776445019328092400,24.090092529296875,-0.41391274333000183,-0.3985329866409302,0.42770126461982727
1776445019353109200,24.115109130859373,-0.4445319175720215,-0.18889455497264862,0.3443051874637604
1776445019378126300,24.140126220703124,-0.3451094627380371,-0.4151729643344879,0.26244601607322693
1776445019403143400,24.165143310546874,-0.2162870317697525,-0.9454014301300049,0.36850133538246155
1776445019428160500,24.190160400390624,0.19563820958137512,-1.0149961709976196,0.9968518018722534
1776445019453177300,24.21517724609375,0.5535033941268921,-0.5563604235649109,1.482616662979126
1776445019478194400,24.2401943359375,0.6226534247398376,-0.48870763182640076,1.4938639402389526
1776445019503211500,24.26521142578125,0.49971526861190796,-0.9679168462753296,1.3264107704162598
1776445019528228400,24.290228271484374,0.18691742420196533,-0.8850600123405457,1.4840360879898071
1776445019553245200,24.3152451171875,-0.38535380363464355,-0.291766881942749,1.5855965614318848
1776445019578262300,24.34026220703125,-0.7038984894752502,0.13899463415145874,1.9190765619277954
1776445019603278600,24.365278564453124,-0.6412268877029419,0.35155242681503296,2.4790196418762207
1776445019628295700,24.390295654296875,-0.2563798427581787,0.46658822894096375,2.9975075721740723
1776445019653312800,24.415312744140625,0.04620584473013878,0.44804516434669495,3.004295587539673
1776445019678329600,24.44032958984375,0.5854496359825134,0.6803244948387146,2.2512078285217285
1776445019703346700,24.4653466796875,1.2725672721862793,0.7351222038269043,2.001063346862793
1776445019728363800,24.49036376953125,2.0763492584228516,0.7735736966133118,2.1757051944732666
1776445019753380900,24.515380859375,2.4585330486297607,0.3458460867404938,1.9473949670791626
1776445019778397000,24.54039697265625,2.3380813598632812,-0.30921298265457153,1.7247307300567627
1776445019803413500,24.56541357421875,1.9034501314163208,-0.30010175704956055,1.1770602464675903
1776445019828430600,24.5904306640625,1.4484935998916626,-0.0628543272614479,0.726928174495697
1776445019853447700,24.61544775390625,1.2357288599014282,-0.13784201443195343,0.4608464539051056
1776445019878464800,24.64046484375,0.8315898776054382,-0.569499135017395,0.17144498229026794
1776445019903481600,24.665481689453124,0.039454732090234756,-0.8551937341690063,0.33572980761528015
1776445019928498700,24.690498779296874,-0.46454450488090515,-0.8565874099731445,0.3364432752132416
1776445019953515800,24.715515869140624,-0.5134265422821045,-0.673653244972229,0.6036145091056824
1776445019978532900,24.740532958984375,-0.3669028878211975,0.08629973232746124,0.6574457883834839
1776445020003549700,24.7655498046875,-0.4856221079826355,-0.13489016890525818,0.8507044315338135
1776445020028566800,24.79056689453125,-0.6529141664505005,-0.6467025876045227,0.5084387063980103
1776445020053583600,24.81558349609375,-0.30113402009010315,-0.37845301628112793,1.1235309839248657
1776445020078600700,24.8406005859375,0.12258743494749069,0.9094380736351013,1.3655976057052612
1776445020103617800,24.86561767578125,0.1945958435535431,0.6464517116546631,1.5470209121704102
1776445020128634600,24.890634521484376,0.025358885526657104,1.6210525035858154,1.402069330215454
1776445020153651700,24.915651611328126,0.2403223216533661,-0.12072375416755676,0.699735701084137
1776445020178668800,24.940668701171877,0.3995647132396698,-0.6829367876052856,0.21062301099300385
1776445020203686000,24.965685791015623,0.475722074508667,0.003058374160900712,-0.4155431389808655
1776445020228702700,24.99070263671875,0.44442272186279297,0.6638150215148926,-0.9870732426643372
1776445020253719800,25.0157197265625,0.7288219928741455,0.5488090515136719,-0.34745118021965027
1776445020278737000,25.04073681640625,1.1849602460861206,-0.12258876860141754,0.5721482038497925
1776445020303753700,25.065753662109376,1.3741594552993774,-1.655682921409607,0.45206332206726074
1776445020328770600,25.0907705078125,0.867473840713501,-1.4974464178085327,0.04700399562716484
1776445020353787600,25.11578759765625,0.37941816449165344,-0.18680104613304138,0.25294196605682373
1776445020378804700,25.1408046875,0.664760172367096,0.8550291657447815,0.9750311970710754
1776445020403821800,25.16582177734375,0.5310196876525879,0.4478249251842499,1.3392659425735474
1776445020428838700,25.190838623046876,0.4212207496166229,-0.20790019631385803,1.4438191652297974
1776445020453855700,25.215855712890626,0.2580792307853699,-0.5027123689651489,1.303510308265686
1776445020478872800,25.240872802734376,0.010462228208780289,-0.6034160852432251,1.4296319484710693
1776445020503890000,25.265889892578127,0.3101613223552704,-0.8136745095252991,1.8771929740905762
1776445020528906800,25.29090673828125,0.6839386224746704,-0.5891719460487366,2.264521360397339
1776445020553922600,25.315922607421875,0.9577347636222839,-0.37411874532699585,2.4304211139678955
1776445020578939600,25.340939697265625,0.6746079921722412,-0.698083221912384,2.23539662361145
1776445020603957200,25.365957275390624,0.5310628414154053,-0.9568631052970886,2.2209208011627197
1776445020628974000,25.39097412109375,0.9295766353607178,-0.7683185338973999,2.5345447063446045
1776445020653991200,25.4159912109375,0.8704837560653687,-0.538719654083252,2.258817672729492
1776445020679008300,25.44100830078125,0.3542395830154419,-0.5165134072303772,1.7949068546295166
1776445020704025300,25.466025390625,0.011563711799681187,-0.5889378190040588,1.8922555446624756
1776445020729042200,25.491042236328123,0.02629312314093113,-0.9605928659439087,1.9262443780899048
1776445020754059000,25.51605908203125,0.22828030586242676,-1.5532596111297607,1.4151856899261475
1776445020779076000,25.541076171875,0.3183092772960663,-2.0176713466644287,1.0436842441558838
1776445020804093200,25.56609326171875,0.02797171287238598,-1.2234586477279663,1.6282252073287964
1776445020829110300,25.5911103515625,-0.09587512910366058,-0.36012542247772217,1.6853630542755127
1776445020854127000,25.616127197265627,0.0012727247085422277,-0.2389553189277649,1.150191307067871
1776445020879144200,25.641144287109373,0.41052842140197754,-0.3123115599155426,0.8871868252754211
1776445020904161300,25.666161376953124,0.30404457449913025,-0.2085508108139038,1.2791883945465088
1776445020929178000,25.69117822265625,0.04601516202092171,-0.4182097613811493,1.6832679510116577
1776445020954195200,25.7161953125,-0.14193104207515717,-0.826301634311676,1.9326589107513428
1776445020979212000,25.7412119140625,0.06686452031135559,-0.7099526524543762,2.260411024093628
1776445021004229000,25.76622900390625,0.14081303775310516,-0.36383333802223206,2.3572282791137695
1776445021029246200,25.79124609375,-0.06441228091716766,-0.18225263059139252,2.2127387523651123
1776445021054263000,25.816262939453125,0.1602027267217636,-0.5909357070922852,1.9607728719711304
1776445021079280000,25.841280029296875,0.5511153340339661,-1.0505590438842773,1.822429895401001
1776445021104297200,25.866297119140626,0.2172042280435562,-0.6209684610366821,2.100078582763672
1776445021129314300,25.891314208984376,0.018198978155851364,-0.7296414375305176,2.1826558113098145
1776445021154331100,25.9163310546875,-0.16899114847183228,-1.045132040977478,2.46178936958313
1776445021179348200,25.94134814453125,-0.44015395641326904,-0.572037398815155,2.0268824100494385
1776445021204365300,25.966365234375,-0.16839326918125153,0.5414880514144897,1.1283997297286987
1776445021229382100,25.991382080078125,0.02997734025120735,0.6775132417678833,0.9827285408973694
1776445021254399000,26.01639892578125,-0.04260098934173584,-0.14175313711166382,1.1279946565628052
1776445021279416000,26.041416015625,0.44682249426841736,0.0695982500910759,1.191739559173584
1776445021304433200,26.06643310546875,0.7339469790458679,0.45483994483947754,1.0649834871292114
1776445021329449200,26.09144921875,0.6857306957244873,0.32878002524375916,1.3871055841445923
1776445021354466300,26.11646630859375,0.516147255897522,0.2992548942565918,1.572369933128357
1776445021379483100,26.141483154296875,0.3291288912296295,-0.12639175355434418,1.3197486400604248
1776445021404500200,26.166500244140625,0.32237404584884644,-0.13927240669727325,1.2655644416809082
1776445021429517300,26.191517333984375,0.385315477848053,-0.6738207340240479,1.0099539756774902
1776445021454534100,26.2165341796875,0.41751575469970703,-0.7185860872268677,0.628364086151123
1776445021479551000,26.241551025390624,0.2830652594566345,-0.4167436957359314,0.18797948956489563
1776445021504568000,26.266568115234374,0.088595911860466,-0.44297128915786743,0.0226840078830719
1776445021529585200,26.291585205078125,0.2825203835964203,-0.44178780913352966,-0.0062698801048099995
1776445021554602200,26.316602294921875,0.05226666480302811,0.8987718820571899,-0.35268187522888184
1776445021579619000,26.341619140625,-0.9314557909965515,0.955776572227478,0.20242740213871002
1776445021604635600,26.3666357421875,-0.5146790742874146,0.9091347455978394,0.8190269470214844
1776445021629652700,26.39165283203125,-0.04946395754814148,1.1087725162506104,1.5026055574417114
1776445021654669800,26.416669921875,0.23753799498081207,0.2630755603313446,1.4693809747695923
1776445021679687000,26.44168701171875,0.16971100866794586,-0.14193449914455414,1.6436105966567993
1776445021704703700,26.466703857421876,-0.01577363722026348,0.5678344368934631,1.0593689680099487
1776445021729720800,26.491720947265627,0.11121547222137451,0.42471933364868164,0.7037520408630371
1776445021754737700,26.516737548828125,0.6723664402961731,-0.4682074189186096,0.2801397740840912
1776445021779754800,26.541754638671875,0.8043396472930908,-0.6325013041496277,0.03410311043262482
1776445021804771600,26.566771484375,0.9539307355880737,-0.9771527051925659,0.06753350049257278
1776445021829788700,26.59178857421875,0.264198362827301,0.787364661693573,0.3941395878791809
1776445021854805800,26.6168056640625,0.2128145396709442,0.7916640639305115,-0.1023375540971756
1776445021879822800,26.64182275390625,0.34937718510627747,1.718493103981018,-0.28853991627693176
1776445021904839700,26.666839599609375,0.32324543595314026,0.9970299601554871,-0.42216694355010986
1776445021929856800,26.691856689453125,0.763014018535614,-0.31473156809806824,-0.24545210599899292
1776445021954873900,26.716873779296876,0.913722038269043,-1.2645506858825684,-0.02064162865281105
1776445021979891000,26.741890869140626,0.876503050327301,-1.4223456382751465,0.549697756767273
1776445022004907800,26.76690771484375,-0.011935755610466003,-1.530126690864563,0.8687545657157898
1776445022029923600,26.791923583984374,-0.5859233736991882,-1.0837507247924805,0.8256449103355408
1776445022054940700,26.816940673828125,-0.6734803915023804,-0.5746084451675415,0.7081031203269958
1776445022079957800,26.841957763671875,-0.1153111457824707,-0.5355589985847473,0.611327052116394
1776445022104974800,26.866974853515625,0.24442093074321747,-0.6662704348564148,0.6448324918746948
1776445022129991700,26.89199169921875,0.8589690327644348,-1.7931500673294067,1.0090000629425049
1776445022155008800,26.9170087890625,1.7108229398727417,-2.5307741165161133,1.8998335599899292
1776445022180025900,26.94202587890625,1.8968985080718994,-3.2613582611083984,2.453214645385742
1776445022205043000,26.96704296875,1.8485493659973145,-1.1492540836334229,0.9191786050796509
1776445022230059500,26.9920595703125,1.0848594903945923,0.32332587242126465,0.09281409531831741
1776445022255076600,27.01707666015625,0.9582594037055969,0.4783306121826172,-0.1370430737733841
1776445022280093700,27.04209375,1.547316074371338,0.10502548515796661,0.21560366451740265
1776445022305110800,27.06711083984375,1.6417958736419678,-0.5749620795249939,0.8104638457298279
1776445022330127600,27.092127685546874,1.20638108253479,-0.9723296761512756,1.3514666557312012
1776445022355144700,27.117144775390624,1.2808574438095093,-1.4134855270385742,1.7980574369430542
1776445022380161800,27.142161865234375,0.6140780448913574,-1.6049745082855225,1.755327820777893
1776445022405179000,27.167178955078125,-0.5390254259109497,-0.6687775254249573,1.4119457006454468
1776445022430195700,27.19219580078125,-0.8221220970153809,-0.3603003919124603,1.177024245262146
1776445022455212800,27.217212890625,-0.6442657709121704,0.40289977192878723,0.9650774002075195
1776445022480229600,27.242229736328124,-0.7522114515304565,1.023766279220581,0.4501280188560486
1776445022505246700,27.267246826171874,-0.7023128867149353,1.3275716304779053,0.4306427240371704
1776445022530263600,27.292263671875,-0.2260829359292984,1.4425240755081177,0.36199867725372314
1776445022555280600,27.31728076171875,0.3935595452785492,1.1212069988250732,0.7817504405975342
1776445022580297700,27.342297607421877,0.821744441986084,-0.029811957851052284,1.1223617792129517
1776445022605315300,27.3673154296875,0.8619059920310974,-0.44709280133247375,1.4074689149856567
1776445022630332000,27.392331787109374,0.25695908069610596,0.32570141553878784,1.304697036743164
1776445022655348000,27.417347900390624,-0.3347257971763611,1.0969089269638062,1.3286329507827759
1776445022680365000,27.442364990234374,-0.30551278591156006,0.9804784059524536,1.600141167640686
1776445022705382100,27.467382080078124,0.3468833863735199,-0.2802031636238098,1.2947056293487549
1776445022730399200,27.492399169921875,0.5209710597991943,-0.6956562995910645,0.7162057757377625
1776445022755416000,27.517416015625,0.13175563514232635,-0.6536374688148499,0.6644280552864075
1776445022780433200,27.54243310546875,0.1702851802110672,-0.561567485332489,0.7872751355171204
1776445022805450200,27.5674501953125,0.2642284631729126,-0.3121509850025177,0.7650481462478638
1776445022830467300,27.59246728515625,0.036491699516773224,-0.26004037261009216,0.9402031898498535
1776445022855484000,27.61748388671875,-0.3607126474380493,1.7945654392242432,1.512442946434021
1776445022880501000,27.6425009765625,-0.3966999351978302,2.2702934741973877,1.7182621955871582
1776445022905518000,27.66751806640625,-0.5285077691078186,1.3730590343475342,1.7827123403549194
1776445022930535200,27.69253515625,0.2533784806728363,0.32773977518081665,1.4333412647247314
1776445022955552000,27.717552001953123,1.1236904859542847,-1.280421495437622,0.8486793637275696
1776445022980569000,27.742569091796874,1.4724239110946655,-2.4705376625061035,0.725583016872406
1776445023005586200,27.767586181640624,1.4347172975540161,-1.737410545349121,1.0653057098388672
1776445023030603300,27.792603271484374,1.2411787509918213,-0.547234058380127,1.516004204750061
1776445023055620000,27.8176201171875,0.9694644212722778,0.06423171609640121,1.8934657573699951
1776445023080637200,27.84263720703125,0.7944023013114929,0.09725065529346466,2.366572618484497
1776445023105654000,27.867654052734373,0.7511197924613953,-0.21223635971546173,2.5833256244659424
1776445023130671000,27.892671142578124,0.601407527923584,-0.4202028810977936,2.1073203086853027
1776445023155688000,27.91768798828125,0.7782076001167297,-0.863879919052124,1.501136302947998
1776445023180705000,27.942705078125,1.155133843421936,-1.227367877960205,1.7863973379135132
1776445023205722000,27.96772216796875,1.017186164855957,-0.9889086484909058,2.677454948425293
1776445023230739200,27.9927392578125,0.9983133673667908,-0.5171131491661072,2.2701637744903564
1776445023255756000,28.017756103515627,0.8547327518463135,-1.1741176843643188,1.6745027303695679
1776445023280773000,28.042773193359373,0.14752687513828278,-0.8438917994499207,2.1465744972229004
1776445023305790200,28.067790283203124,-0.2078021913766861,0.13716131448745728,1.989126443862915
1776445023330807300,28.092807373046874,0.10536850243806839,-0.2122613936662674,1.7277603149414062
1776445023355823000,28.117822998046876,0.4798946976661682,-1.01705002784729,1.8670694828033447
1776445023380840000,28.14283984375,0.571954071521759,-0.9213935136795044,2.06954026222229
1776445023405857000,28.16785693359375,0.8060392737388611,-0.08823345601558685,1.9786322116851807
1776445023430874000,28.1928740234375,1.016532063484192,-0.45157119631767273,1.6257545948028564
1776445023455891200,28.21789111328125,0.9361796975135803,-0.4629002809524536,1.8558344841003418
1776445023480908000,28.242907958984375,0.8164101243019104,0.7349759936332703,2.0794742107391357
1776445023505925000,28.267925048828126,0.9774850606918335,0.6650840044021606,1.8219225406646729
1776445023530942200,28.292942138671876,0.9753028750419617,-0.25545281171798706,1.5069968700408936
1776445023555959300,28.317959228515626,0.7150158882141113,0.5079615116119385,1.5151444673538208
1776445023580976000,28.34297607421875,0.5416022539138794,0.8417397141456604,1.3013304471969604
1776445023605992400,28.367992431640626,0.4595622718334198,-0.43645375967025757,0.9400838613510132
1776445023631009500,28.393009521484377,0.48281458020210266,-0.43575119972229004,0.8788604736328125
1776445023656026600,28.418026611328123,0.45960327982902527,-0.12391688674688339,1.0724328756332397
1776445023681043700,28.443043701171874,0.8249067068099976,0.4696391224861145,0.9028630256652832
1776445023706060500,28.468060546875,0.9368430972099304,-0.8679785132408142,0.40532058477401733
1776445023731077600,28.49307763671875,0.8625432848930359,-0.5191989541053772,0.517726480960846
1776445023756094700,28.5180947265625,0.34428414702415466,0.6616831421852112,1.064117670059204
1776445023781111800,28.54311181640625,-0.05234629660844803,1.1004564762115479,0.9398031830787659
1776445023806128600,28.568128662109373,-0.1098221018910408,1.0708214044570923,0.6195298433303833
1776445023831145700,28.593145751953124,0.2877207398414612,1.2230428457260132,0.5412589907646179
1776445023856162600,28.61816259765625,0.40479063987731934,1.3061270713806152,0.9616589546203613
1776445023881178600,28.6431787109375,0.43888601660728455,1.311877727508545,1.2432911396026611
1776445023906195700,28.66819580078125,0.3652985990047455,1.0935522317886353,1.4075818061828613
1776445023931212500,28.693212646484376,0.16789206862449646,1.1350704431533813,1.4413973093032837
1776445023956229600,28.718229736328126,0.06799928843975067,1.0415455102920532,1.5584344863891602
1776445023981246700,28.743246826171877,-0.0783185064792633,1.1629528999328613,1.8616286516189575
1776445024006263800,28.768263916015623,-0.30681106448173523,1.1278873682022095,1.769682765007019
1776445024031280600,28.79328076171875,-0.035888224840164185,-0.13108664751052856,0.8066637516021729
1776445024056297500,28.81829736328125,0.2902049422264099,-0.9567829370498657,-0.03302106633782387
1776445024081314600,28.843314453125,0.2823978662490845,-1.136767864227295,-0.4084804356098175
1776445024106331600,28.86833154296875,0.6369133591651917,-1.1003915071487427,-0.5568121075630188
1776445024131348700,28.8933486328125,1.3584073781967163,-0.6059836745262146,0.035767316818237305
1776445024156365600,28.918365478515625,0.896453857421875,-0.24125735461711884,1.048896074295044
1776445024181382700,28.943382568359375,0.14871278405189514,-0.11692209541797638,1.2527427673339844
1776445024206399700,28.968399658203126,-0.22809894382953644,-0.27143922448158264,0.8741874098777771
1776445024231416600,28.99341650390625,-0.3429277837276459,-0.14659716188907623,0.50830078125
1776445024256433700,29.01843359375,-0.213933065533638,-0.026211896911263466,0.4916120767593384
1776445024281449500,29.043449462890624,0.05758633092045784,-0.12279995530843735,0.760991096496582
1776445024306466600,29.068466552734375,0.08675939589738846,0.0028016455471515656,0.7070513963699341
1776445024331483600,29.093483642578125,0.04330139979720116,-0.3853445053100586,0.10375222563743591
1776445024356500700,29.118500732421875,0.10255593806505203,-0.548953652381897,-0.04766978323459625
1776445024381517600,29.143517578125,0.11394281685352325,-0.5890030860900879,0.1277124285697937
1776445024406534700,29.16853466796875,0.12433846294879913,-0.7073448896408081,0.09599923342466354
1776445024431551700,29.1935517578125,1.0000311136245728,0.13593094050884247,0.4102413058280945
1776445024456568800,29.21856884765625,2.4042680263519287,1.2496696710586548,2.2568318843841553
1776445024481585700,29.243585693359375,3.3355774879455566,1.3905519247055054,2.656365156173706
1776445024506602800,29.268602783203125,3.5045523643493652,0.8958474397659302,2.237931251525879
1776445024531619600,29.29361962890625,2.657081127166748,0.25507569313049316,1.6879671812057495
1776445024556636700,29.31863671875,0.8915091753005981,-0.17176564037799835,1.0350128412246704
1776445024581653500,29.343653564453124,-0.1008262112736702,-0.4406096041202545,0.5237628221511841
1776445024606674200,29.368674072265627,0.0358235128223896,-0.7673991918563843,0.4129795730113983
1776445024631691300,29.393691162109373,0.49173858761787415,-0.904532790184021,0.7058018445968628
1776445024656708400,29.418708251953124,0.8208776116371155,-1.034376859664917,1.1534550189971924
1776445024681725200,29.44372509765625,0.9855882525444031,-0.6514893770217896,1.4231491088867188
1776445024706742300,29.4687421875,0.7426773309707642,-0.0818200334906578,1.4815114736557007
1776445024731759400,29.49375927734375,0.5367084741592407,-0.2526160180568695,1.372056007385254
1776445024756776400,29.5187763671875,0.5811470150947571,-0.25886619091033936,1.0650231838226318
1776445024781792300,29.543792236328127,0.6160200238227844,-0.4708237051963806,1.0197781324386597
1776445024806809000,29.56880908203125,0.7560485005378723,-0.18737149238586426,1.060386061668396
1776445024831826200,29.593826171875,0.83205246925354,-0.010223076678812504,1.0919711589813232
1776445024856843300,29.61884326171875,0.8406118750572205,0.31817930936813354,1.1569451093673706
1776445024881860400,29.6438603515625,0.9311729073524475,0.4023096263408661,1.1663687229156494
1776445024906877200,29.668877197265626,0.7039368748664856,0.10583615303039551,1.2529579401016235
1776445024931894300,29.693894287109377,0.732833743095398,-0.18931053578853607,1.8672431707382202
1776445024956911400,29.718911376953123,0.6995977759361267,0.1303207278251648,2.3824663162231445
1776445024981928400,29.743928466796874,0.6397051215171814,0.2741854786872864,2.5149614810943604
1776445025006945300,29.7689453125,0.698387622833252,0.28874126076698303,2.4550912380218506
1776445025031962400,29.79396240234375,0.8455328941345215,0.6398681402206421,2.6859893798828125
1776445025056979200,29.818979248046876,1.0433365106582642,1.0410091876983643,3.030503511428833
1776445025081996300,29.843996337890626,1.1147863864898682,0.47358646988868713,3.094498634338379
1776445025107013000,29.86901318359375,1.116636037826538,0.6938804984092712,3.284715414047241
1776445025132030200,29.8940302734375,1.0771125555038452,0.9480201005935669,3.2319388389587402
1776445025157047300,29.91904736328125,0.996351957321167,0.4162534177303314,2.9548182487487793
1776445025182064400,29.944064453125,0.8339073657989502,0.19465070962905884,2.91005277633667
1776445025207081200,29.969081298828126,1.0166205167770386,0.7455516457557678,3.2589001655578613
1776445025232098300,29.994098388671876,1.2648444175720215,1.1273919343948364,3.3494133949279785
1776445025257115400,30.019115478515626,1.2979199886322021,0.44822171330451965,3.306321859359741
1776445025282131200,30.044131103515625,1.2036257982254028,0.577052652835846,3.3155758380889893
1776445025307148300,30.069148193359375,1.0906363725662231,0.4407116174697876,3.301408290863037
1776445025332165000,30.0941650390625,1.0657129287719727,0.03482748940587044,3.496108055114746
1776445025357182200,30.11918212890625,1.4383455514907837,0.36491990089416504,3.752199172973633
1776445025382199300,30.14419921875,1.759216070175171,0.7489863634109497,4.211905479431152
1776445025407216400,30.16921630859375,1.7292903661727905,0.16110260784626007,4.415318489074707
1776445025432233200,30.194233154296874,1.7027727365493774,-0.16561771929264069,4.038301944732666
1776445025457250300,30.219250244140625,1.7954217195510864,0.09454834461212158,3.7363944053649902
1776445025482267400,30.244267333984375,1.7379541397094727,0.005416869651526213,3.355578660964966
1776445025507284200,30.2692841796875,1.552620530128479,-0.20041406154632568,2.7804300785064697
1776445025532301300,30.29430126953125,1.4529820680618286,-0.03834233060479164,2.40322208404541
1776445025557318100,30.319318115234374,1.3398083448410034,-0.22856846451759338,2.0575361251831055
1776445025582335200,30.344335205078124,1.2008401155471802,0.11810027807950974,2.0038270950317383
1776445025607348500,30.369348388671874,1.156007170677185,0.11153078824281693,1.8953746557235718
1776445025632365600,30.394365478515624,1.1569666862487793,-0.09107611328363419,1.649161696434021
1776445025657382100,30.419382080078126,0.9859488606452942,-0.16071830689907074,1.5402621030807495
1776445025682399200,30.444399169921876,0.8584276437759399,-0.2818833589553833,1.3048429489135742
1776445025707416300,30.469416259765627,0.9563267827033997,-0.348894864320755,1.5877039432525635
1776445025732432400,30.494432373046877,1.1178253889083862,-0.22805660963058472,2.175321102142334
1776445025757449500,30.519449462890623,1.256285548210144,-0.17171183228492737,2.3971445560455322
1776445025782466300,30.54446630859375,1.2410506010055542,-0.3203335404396057,2.0825109481811523
1776445025807483400,30.5694833984375,1.098785400390625,-0.23513048887252808,1.7678632736206055
1776445025832500500,30.59450048828125,0.879721999168396,-0.2757764458656311,1.7066433429718018
1776445025857517300,30.619517333984376,0.7661600112915039,-0.41546696424484253,1.5580132007598877
1776445025882534100,30.6445341796875,0.8347244262695312,-0.3464418351650238,1.2183176279067993
1776445025907551200,30.66955126953125,0.7807333469390869,-0.2533044219017029,1.0549465417861938
1776445025932568300,30.694568359375,0.4385097026824951,-0.03774205222725868,1.1634429693222046
1776445025957585400,30.71958544921875,0.4100852608680725,-0.04345985874533653,1.3744020462036133
1776445025982602200,30.744602294921876,0.7255465388298035,-0.38383713364601135,1.0954068899154663
1776445026007619300,30.769619384765626,0.8785707354545593,-0.3731648027896881,0.8459888100624084
1776445026032636400,30.794636474609376,0.7737372517585754,-0.9433819055557251,0.22498491406440735
1776445026057653500,30.819653564453127,0.443107932806015,-1.0222150087356567,0.026326945051550865
1776445026082670300,30.84467041015625,0.3559708893299103,-0.6525301337242126,0.7512705326080322
1776445026107687400,30.8696875,0.17204207181930542,-0.7051246166229248,1.3041428327560425
1776445026132704300,30.894704345703126,-0.24356551468372345,-0.7227752804756165,1.0481829643249512
1776445026157721300,30.919721435546876,-0.42482104897499084,-0.7496878504753113,0.7115580439567566
1776445026182738400,30.944738525390626,-0.3483150899410248,-0.5310803651809692,0.33922600746154785
1776445026207754500,30.96975439453125,-0.25978416204452515,-0.8065484762191772,0.3195979595184326
1776445026232771300,30.994771240234375,-0.3467393219470978,-0.8431530594825745,0.44024530053138733
1776445026257788400,31.019788330078125,-0.5007914304733276,-0.7405062913894653,0.5587373375892639
1776445026282805500,31.044805419921875,-0.5688440203666687,-0.41373005509376526,0.4895438551902771
1776445026307822600,31.069822509765626,-0.7485296130180359,0.14923928678035736,0.5467911958694458
1776445026332839200,31.094839111328124,-0.568228006362915,0.5882733464241028,0.7497096657752991
1776445026357856300,31.119856201171874,-0.15800374746322632,1.170678734779358,1.3829715251922607
1776445026382873300,31.144873291015625,0.47766590118408203,1.279766321182251,1.8763331174850464
1776445026407890400,31.169890380859375,1.2223047018051147,0.98171466588974,1.8507475852966309
1776445026432907300,31.1949072265625,1.018858790397644,0.6480573415756226,1.6508978605270386
1776445026457924400,31.21992431640625,0.5572968125343323,0.21763299405574799,1.5578770637512207
