time,seconds_elapsed,z,y,x
1776444995361787600,0.12378759765625,-1.006744384765625,-0.113800048828125,-0.1450042724609375
1776444995386804500,0.148804443359375,-0.9863739013671875,-0.074432373046875,-0.1246185302734375
1776444995411821600,0.173821533203125,-0.9545440673828125,-0.076568603515625,-0.145294189453125
1776444995436838700,0.198838623046875,-0.9627838134765625,-0.0867462158203125,-0.15045166015625
1776444995461855700,0.223855712890625,-0.9803924560546875,-0.06365966796875,-0.1201934814453125
1776444995486872600,0.24887255859375,-0.9823150634765625,-0.0406951904296875,-0.0703277587890625
1776444995511889700,0.2738896484375,-0.9752349853515625,-0.01727294921875,-0.024627685546875
1776444995536906800,0.29890673828125,-0.9241485595703125,0.014892578125,0.0596160888671875
1776444995561923800,0.323923828125,-0.932281494140625,0.0818023681640625,0.0947265625
1776444995586940700,0.348940673828125,-0.9289093017578125,0.09283447265625,0.159515380859375
1776444995611957800,0.373957763671875,-1.0120697021484375,0.0480499267578125,0.219512939453125
1776444995636974800,0.398974853515625,-1.075225830078125,0.032958984375,0.2921905517578125
1776444995661992000,0.423991943359375,-1.0412750244140625,0.07293701171875,0.313232421875
1776444995687008800,0.4490087890625,-1.1440582275390625,0.0812225341796875,0.2755279541015625
1776444995712025900,0.47402587890625,-1.019775390625,0.092498779296875,0.1748504638671875
1776444995737042700,0.499042724609375,-0.987945556640625,0.0904693603515625,0.1063079833984375
1776444995762059800,0.524059814453125,-1.0048980712890625,0.0127410888671875,0.0492401123046875
1776444995787076600,0.54907666015625,-1.0554962158203125,0.0192413330078125,0.0088653564453125
1776444995812093700,0.57409375,-0.99835205078125,0.0633544921875,-0.0078582763671875
1776444995837110800,0.59911083984375,-1.0540008544921875,0.146759033203125,0.0602874755859375
1776444995862127900,0.6241279296875,-1.0777130126953125,0.046051025390625,-0.009063720703125
1776444995887144700,0.649144775390625,-1.0201263427734375,-0.001068115234375,-0.035308837890625
1776444995912161800,0.674161865234375,-0.9402923583984375,0.1236419677734375,0.0342559814453125
1776444995937179000,0.699178955078125,-0.9516448974609375,0.178863525390625,0.054107666015625
1776444995962196000,0.724196044921875,-0.9757843017578125,0.0979156494140625,0.001220703125
1776444995987212500,0.749212646484375,-0.9699554443359375,0.0377349853515625,-0.083465576171875
1776444996012229600,0.774229736328125,-0.935211181640625,0.0468292236328125,-0.060089111328125
1776444996037246700,0.799246826171875,-0.931915283203125,0.13055419921875,-0.0074920654296875
1776444996062263800,0.824263916015625,-0.9688262939453125,0.139617919921875,0.0592193603515625
1776444996087280600,0.84928076171875,-0.9877777099609375,0.080291748046875,0.010650634765625
1776444996112297700,0.874297607421875,-0.9786834716796875,0.065643310546875,-0.0026397705078125
1776444996137314800,0.899314697265625,-1.008544921875,0.10369873046875,0.071685791015625
1776444996162332000,0.924331787109375,-1.0262908935546875,0.13531494140625,0.0902252197265625
1776444996187348700,0.9493486328125,-0.975067138671875,0.135986328125,0.065826416015625
1776444996212365800,0.97436572265625,-0.944976806640625,0.1020355224609375,0.0444488525390625
1776444996237383000,0.9993828125,-0.97686767578125,0.091400146484375,-0.014373779296875
1776444996262399700,1.024399658203125,-0.953460693359375,0.137451171875,-0.0467987060546875
1776444996287416600,1.04941650390625,-0.8863983154296875,0.05584716796875,-0.0420379638671875
1776444996312433700,1.07443359375,-1.0252532958984375,0.0816192626953125,0.05877685546875
1776444996337450800,1.09945068359375,-1.021942138671875,0.0872955322265625,0.1146697998046875
1776444996362467800,1.1244677734375,-1.0028076171875,-0.0103302001953125,0.102325439453125
1776444996387484700,1.149484619140625,-1.0028076171875,-0.0013885498046875,0.21295166015625
1776444996412501800,1.174501708984375,-1.07757568359375,-0.026031494140625,0.1920318603515625
1776444996437518800,1.199518798828125,-0.9986114501953125,-0.0609893798828125,0.12762451171875
1776444996462536000,1.224535888671875,-0.99444580078125,-0.0413665771484375,0.1761322021484375
1776444996487552800,1.249552734375,-1.0223388671875,-0.0211334228515625,0.1550140380859375
1776444996512569600,1.274569580078125,-0.9719390869140625,-0.0635986328125,0.131195068359375
1776444996537586700,1.299586669921875,-0.995941162109375,-0.052032470703125,0.1064605712890625
1776444996562603800,1.324603759765625,-0.919036865234375,-0.064697265625,0.1287841796875
1776444996587619800,1.349619873046875,-0.989715576171875,-0.0477294921875,0.1557769775390625
1776444996612637000,1.374636962890625,-0.9310455322265625,-0.0249786376953125,0.1518402099609375
1776444996637654800,1.39965478515625,-0.9374237060546875,-0.0493316650390625,0.1472930908203125
1776444996662670800,1.4246708984375,-0.9817657470703125,-0.0272674560546875,0.1958465576171875
1776444996687688000,1.44968798828125,-0.9936676025390625,-0.03216552734375,0.2271881103515625
1776444996712705000,1.474705078125,-0.9523162841796875,-0.049835205078125,0.2428436279296875
1776444996737721900,1.499721923828125,-0.9727325439453125,0.003082275390625,0.184356689453125
1776444996762739000,1.524739013671875,-1.005828857421875,0.0126190185546875,0.178009033203125
1776444996787756000,1.549756103515625,-1.0280914306640625,0.052886962890625,0.2048797607421875
1776444996812772900,1.57477294921875,-0.9344940185546875,0.0453643798828125,0.21136474609375
1776444996837789700,1.599789794921875,-0.954742431640625,0.0158843994140625,0.244720458984375
1776444996862806800,1.624806884765625,-1.039520263671875,0.0521087646484375,0.2575836181640625
1776444996887824000,1.649823974609375,-1.01513671875,0.087066650390625,0.2583160400390625
1776444996912841000,1.674841064453125,-0.943145751953125,0.07745361328125,0.2184906005859375
1776444996937857800,1.69985791015625,-0.96685791015625,0.0276641845703125,0.23114013671875
1776444996962875000,1.724875,-1.03533935546875,0.031280517578125,0.2154388427734375
1776444996987892000,1.74989208984375,-0.949981689453125,-0.0275115966796875,0.2579193115234375
1776444997012909000,1.774908935546875,-0.97125244140625,-0.084228515625,0.2562255859375
1776444997037926000,1.79992578125,-0.9526824951171875,-0.072509765625,0.2399139404296875
1776444997062942700,1.824942626953125,-0.945526123046875,-0.0937042236328125,0.2528533935546875
1776444997087959800,1.849959716796875,-1.040191650390625,-0.1205902099609375,0.268280029296875
1776444997112977000,1.874976806640625,-1.108612060546875,-0.04229736328125,0.2985076904296875
1776444997137993700,1.89999365234375,-1.073089599609375,0.0616607666015625,0.2299346923828125
1776444997163010800,1.9250107421875,-0.874786376953125,0.0633544921875,0.051605224609375
1776444997188028000,1.95002783203125,-0.8847808837890625,0.076080322265625,0.013671875
1776444997213045000,1.975044921875,-1.05517578125,0.0941925048828125,0.0887451171875
1776444997238061800,2.000061767578125,-1.0224761962890625,0.095794677734375,0.11749267578125
1776444997263079000,2.025078857421875,-0.981109619140625,0.091583251953125,0.1007232666015625
1776444997288096000,2.050095947265625,-0.9712982177734375,0.0456695556640625,0.095184326171875
1776444997313113000,2.075113037109375,-1.0055999755859375,0.000396728515625,0.1492919921875
1776444997338129700,2.100129638671875,-1.040069580078125,-0.0130767822265625,0.1553497314453125
1776444997363146800,2.125146728515625,-0.9701995849609375,-0.0040740966796875,0.0679931640625
1776444997388163800,2.150163818359375,-0.9778900146484375,-0.073028564453125,-0.0248260498046875
1776444997413181000,2.175180908203125,-0.9791717529296875,-0.018951416015625,0.070556640625
1776444997438197800,2.20019775390625,-0.9823760986328125,-0.010711669921875,0.1257781982421875
1776444997463214800,2.22521484375,-1.01824951171875,0.0201568603515625,0.0937957763671875
1776444997488232000,2.25023193359375,-0.9477996826171875,0.06829833984375,0.130767822265625
1776444997513249000,2.2752490234375,-1.0336761474609375,0.0801239013671875,0.175506591796875
1776444997538265900,2.300265869140625,-1.0332183837890625,0.04254150390625,0.144775390625
1776444997563283000,2.325282958984375,-0.9563751220703125,-0.0266571044921875,0.0437164306640625
1776444997588300000,2.350300048828125,-0.957794189453125,-0.0858917236328125,0.009429931640625
1776444997613317000,2.375317138671875,-0.999420166015625,-0.090362548828125,0.047027587890625
1776444997638334000,2.400333984375,-0.998046875,-0.1053314208984375,0.0348358154296875
1776444997663351000,2.42535107421875,-0.983367919921875,-0.089111328125,0.0229949951171875
1776444997688368000,2.4503681640625,-0.9600067138671875,-0.0617828369140625,0.0002593994140625
1776444997713385200,2.47538525390625,-0.9896240234375,-0.1651611328125,-0.060699462890625
1776444997738402000,2.500402099609375,-1.06231689453125,-0.2384033203125,-0.0455474853515625
1776444997763419000,2.5254189453125,-1.06585693359375,-0.215972900390625,0.05120849609375
1776444997788436000,2.55043603515625,-1.1002197265625,-0.0471649169921875,0.1714324951171875
1776444997813453000,2.575453125,-0.913543701171875,-0.1915740966796875,0.1136627197265625
1776444997838470000,2.600469970703125,-0.999603271484375,-0.1195526123046875,0.059051513671875
1776444997863487000,2.625487060546875,-0.96124267578125,-0.03863525390625,0.0521087646484375
1776444997888504000,2.650504150390625,-0.9450836181640625,0.01416015625,0.0500030517578125
1776444997913521200,2.675521240234375,-0.9545745849609375,-0.04742431640625,0.1147918701171875
1776444997938538000,2.7005380859375,-1.0496673583984375,-0.1147003173828125,0.144775390625
1776444997963555000,2.72555517578125,-1.0149688720703125,-0.1638946533203125,0.0958099365234375
1776444997988572200,2.750572265625,-0.9930877685546875,-0.1828155517578125,0.0245513916015625
1776444998013589200,2.77558935546875,-0.937347412109375,-0.1645965576171875,0.0215911865234375
1776444998038605800,2.800605712890625,-0.979827880859375,-0.135894775390625,-0.0059051513671875
1776444998063623000,2.825622802734375,-0.97296142578125,-0.0921173095703125,0.0037841796875
1776444998088640000,2.850639892578125,-0.99658203125,-0.033843994140625,0.0457916259765625
1776444998113657000,2.875656982421875,-1.0163116455078125,-0.02032470703125,0.09661865234375
1776444998138674000,2.900673828125,-1.0065155029296875,-0.0143890380859375,0.10662841796875
1776444998163691000,2.92569091796875,-0.9930267333984375,-0.0264892578125,0.06005859375
1776444998188708000,2.9507080078125,-0.954071044921875,-0.02734375,0.0799102783203125
1776444998213725200,2.97572509765625,-0.9798431396484375,-0.0568389892578125,0.1001129150390625
1776444998238742000,3.000741943359375,-0.9694061279296875,-0.045013427734375,0.181884765625
1776444998263759000,3.025759033203125,-1.049224853515625,0.1236114501953125,0.1309356689453125
1776444998288776000,3.05077587890625,-0.908782958984375,0.0272674560546875,0.0731658935546875
1776444998313793000,3.07579296875,-0.993194580078125,-0.0518646240234375,0.0148773193359375
1776444998338811000,3.100810791015625,-1.052642822265625,-0.06024169921875,-0.0103759765625
1776444998363828000,3.125827880859375,-0.9286651611328125,-0.1281890869140625,-0.005462646484375
1776444998388845000,3.150844970703125,-1.0208587646484375,-0.09521484375,0.048065185546875
1776444998413862000,3.17586181640625,-1.1179656982421875,0.0250091552734375,0.185455322265625
1776444998438879000,3.20087890625,-1.0762481689453125,0.0526275634765625,0.17303466796875
1776444998463896000,3.22589599609375,-0.9575347900390625,-0.0275726318359375,0.0342864990234375
1776444998488913200,3.2509130859375,-0.9347991943359375,-0.014984130859375,0.0135955810546875
1776444998513930000,3.275929931640625,-0.9486236572265625,-0.0016632080078125,0.0667572021484375
1776444998538947000,3.300947021484375,-1.0460357666015625,-0.072418212890625,0.0956878662109375
1776444998563964200,3.325964111328125,-1.034942626953125,-0.0545196533203125,0.1282196044921875
1776444998588980200,3.350980224609375,-1.0081024169921875,-0.0222930908203125,0.1406402587890625
1776444998613997300,3.375997314453125,-1.0008697509765625,-0.051666259765625,0.1142120361328125
1776444998639014100,3.40101416015625,-1.021484375,-0.000823974609375,0.090179443359375
1776444998664031200,3.42603125,-0.9696197509765625,0.0352630615234375,-0.0549163818359375
1776444998689048000,3.451048095703125,-0.8806610107421875,0.0326080322265625,-0.1580810546875
1776444998714065200,3.476065185546875,-0.92791748046875,0.0173797607421875,-0.1253204345703125
1776444998739082000,3.50108203125,-0.996856689453125,-0.0216064453125,-0.0078887939453125
1776444998764099000,3.52609912109375,-1.12548828125,0.0120697021484375,0.141143798828125
1776444998789116200,3.5511162109375,-1.1345672607421875,-0.0179595947265625,0.1116180419921875
1776444998814133200,3.57613330078125,-1.111175537109375,-0.0529937744140625,0.04376220703125
1776444998839150000,3.601150146484375,-1.0242156982421875,0.0219879150390625,-0.0287322998046875
1776444998864167200,3.626167236328125,-0.9587249755859375,0.102325439453125,-0.0290374755859375
1776444998889184300,3.651184326171875,-0.9471588134765625,0.142333984375,0.0730133056640625
1776444998914201300,3.676201416015625,-0.935546875,0.14007568359375,0.0298004150390625
1776444998939218000,3.701218017578125,-0.928436279296875,0.150054931640625,-0.0441436767578125
1776444998964235000,3.726235107421875,-0.938995361328125,0.156280517578125,0.0565643310546875
1776444998989252000,3.751252197265625,-1.0033416748046875,0.1350250244140625,0.089935302734375
1776444999014269200,3.776269287109375,-0.950225830078125,0.0591278076171875,0.02996826171875
1776444999039286000,3.8012861328125,-0.9679718017578125,0.092254638671875,0.12811279296875
1776444999064303000,3.82630322265625,-0.9307098388671875,0.0322418212890625,0.0177764892578125
1776444999089320200,3.8513203125,-0.92962646484375,-0.0130767822265625,-0.07733154296875
1776444999114337300,3.876337158203125,-0.9478759765625,-0.034088134765625,-0.0989837646484375
1776444999139354000,3.90135400390625,-1.014373779296875,-0.0514984130859375,0.0212249755859375
1776444999164371200,3.92637109375,-1.1171722412109375,-0.10772705078125,-0.0372772216796875
1776444999189388000,3.951387939453125,-1.0617828369140625,-0.138031005859375,-0.103668212890625
1776444999214405000,3.976405029296875,-0.9608154296875,-0.02264404296875,-0.1326141357421875
1776444999239422200,4.001422119140625,-0.950286865234375,0.00164794921875,-0.125640869140625
1776444999264439000,4.02643896484375,-0.9547576904296875,-0.0142822265625,-0.0437774658203125
1776444999289456000,4.0514560546875,-1.064849853515625,0.04449462890625,0.0683441162109375
1776444999314473200,4.07647314453125,-1.08758544921875,0.09552001953125,0.097076416015625
1776444999339490000,4.101489990234375,-1.0056915283203125,0.0438385009765625,0.024627685546875
1776444999364507100,4.126507080078125,-1.0548095703125,0.0390472412109375,0.049072265625
1776444999389525200,4.151525146484375,-1.135528564453125,0.010711669921875,0.0698089599609375
1776444999414542000,4.1765419921875,-1.0096282958984375,-0.0140380859375,0.0686492919921875
1776444999439559200,4.20155908203125,-0.9878082275390625,-0.1129150390625,-0.0452880859375
1776444999464576300,4.226576171875,-1.007781982421875,-0.1750335693359375,-0.0491790771484375
1776444999489593300,4.25159326171875,-1.0374298095703125,-0.149444580078125,0.0296630859375
1776444999514610200,4.276610107421875,-0.9993438720703125,-0.0885467529296875,0.1201019287109375
1776444999539627000,4.301626953125,-0.9487762451171875,0.00518798828125,0.1408233642578125
1776444999564644000,4.32664404296875,-0.87188720703125,0.08978271484375,0.162384033203125
1776444999589665300,4.351665283203125,-0.8729248046875,0.09808349609375,0.14764404296875
1776444999614682000,4.37668212890625,-0.9499359130859375,0.07501220703125,-0.017669677734375
1776444999639699200,4.40169921875,-0.9323272705078125,0.0488433837890625,-0.0811309814453125
1776444999664716300,4.42671630859375,-0.9544219970703125,0.1292877197265625,0.0015106201171875
1776444999689733400,4.4517333984375,-0.897216796875,0.12701416015625,0.0307769775390625
1776444999714750200,4.476750244140625,-0.93304443359375,0.124298095703125,0.05865478515625
1776444999739767300,4.501767333984375,-0.9670867919921875,0.109405517578125,0.085174560546875
1776444999764784400,4.526784423828125,-1.0374603271484375,0.1340484619140625,0.1850128173828125
1776444999789801200,4.55180126953125,-1.097991943359375,0.201568603515625,0.248626708984375
1776444999814818000,4.576818115234375,-0.970306396484375,0.2722015380859375,0.3251953125
1776444999839835100,4.601835205078125,-1.0047607421875,0.345611572265625,0.3405303955078125
1776444999864852200,4.626852294921875,-0.9350433349609375,0.3575897216796875,0.3083038330078125
1776444999889869300,4.651869384765625,-0.9132537841796875,0.3587493896484375,0.3726654052734375
1776444999914886100,4.67688623046875,-0.92657470703125,0.357269287109375,0.359344482421875
1776444999939903200,4.7019033203125,-0.935577392578125,0.3554534912109375,0.236663818359375
1776444999964920300,4.72692041015625,-0.901214599609375,0.325592041015625,0.18499755859375
1776444999989937400,4.7519375,-0.9492340087890625,0.2882843017578125,0.19781494140625
1776445000014954200,4.776954345703125,-0.9525909423828125,0.221771240234375,0.2679595947265625
1776445000039971300,4.801971435546875,-0.9982147216796875,0.206207275390625,0.2715606689453125
1776445000064988200,4.82698828125,-0.9608917236328125,0.1920013427734375,0.2413482666015625
1776445000090005200,4.852005126953125,-0.9525299072265625,0.186309814453125,0.26751708984375
1776445000115022000,4.87702197265625,-0.971954345703125,0.1952056884765625,0.2971649169921875
1776445000140039200,4.9020390625,-1.0178375244140625,-0.0565185546875,0.0823822021484375
1776445000165056300,4.92705615234375,-0.932342529296875,0.0083770751953125,0.207427978515625
1776445000190073300,4.9520732421875,-0.9846954345703125,0.0706787109375,0.241363525390625
1776445000215091200,4.97709130859375,-0.9360809326171875,0.15087890625,0.283782958984375
1776445000240108300,5.0021083984375,-0.9303436279296875,0.1500244140625,0.269744873046875
1776445000265125400,5.02712548828125,-0.8980255126953125,0.095855712890625,0.215667724609375
1776445000290142200,5.05214208984375,-0.9005279541015625,0.0896759033203125,0.200958251953125
1776445000315159300,5.0771591796875,-0.856781005859375,0.038177490234375,0.195404052734375
1776445000340176400,5.10217626953125,-0.9099884033203125,0.0110626220703125,0.3003082275390625
1776445000365193200,5.127193115234375,-1.0755157470703125,-0.00653076171875,0.366180419921875
1776445000390210000,5.1522099609375,-1.0848388671875,0.0093231201171875,0.3169403076171875
1776445000415227100,5.17722705078125,-0.88922119140625,-0.005157470703125,0.2435455322265625
1776445000440244200,5.202244140625,-0.9580078125,0.03253173828125,0.2946014404296875
1776445000465261300,5.22726123046875,-1.0935516357421875,0.0000152587890625,0.3796844482421875
1776445000490278100,5.252278076171875,-1.053314208984375,-0.0201873779296875,0.2816314697265625
1776445000515295200,5.277295166015625,-0.8970489501953125,-0.0576324462890625,0.195098876953125
1776445000540312300,5.302312255859375,-0.9465484619140625,-0.020965576171875,0.1045379638671875
1776445000565329400,5.327329345703125,-0.9630126953125,0.0421142578125,0.037322998046875
1776445000590342100,5.352342041015625,-0.854644775390625,0.031707763671875,0.102386474609375
1776445000615359000,5.37735888671875,-0.93035888671875,-0.121002197265625,0.205078125
1776445000640376000,5.4023759765625,-1.10699462890625,-0.1838836669921875,0.291290283203125
1776445000665393200,5.42739306640625,-1.0599822998046875,-0.126434326171875,0.246734619140625
1776445000690410200,5.45241015625,-0.9190673828125,-0.08807373046875,0.2494964599609375
1776445000715427000,5.477427001953125,-0.9883575439453125,-0.144866943359375,0.2714080810546875
1776445000740444200,5.502444091796875,-1.071502685546875,-0.1038970947265625,0.247802734375
1776445000765461200,5.527461181640625,-0.9630584716796875,-0.1096954345703125,0.2073516845703125
1776445000790478000,5.55247802734375,-0.8703460693359375,-0.1885223388671875,0.10546875
1776445000815495000,5.577494873046875,-0.9573516845703125,-0.1722564697265625,0.1019134521484375
1776445000840512000,5.602511962890625,-1.0160064697265625,-0.14666748046875,0.1890411376953125
1776445000865529000,5.627529052734375,-1.021697998046875,-0.1705474853515625,0.1941986083984375
1776445000890546200,5.652546142578125,-0.9032440185546875,-0.1767730712890625,0.1075439453125
1776445000915564000,5.67756396484375,-1.0074310302734375,-0.11041259765625,0.0694580078125
1776445000940581000,5.7025810546875,-0.984161376953125,-0.0489501953125,0.06427001953125
1776445000965598200,5.72759814453125,-0.926025390625,-0.0310516357421875,0.070831298828125
1776445000990615000,5.752614990234375,-0.923797607421875,-0.0555572509765625,0.1279144287109375
1776445001015632100,5.777632080078125,-1.04034423828125,-0.07318115234375,0.1608734130859375
1776445001040649200,5.802649169921875,-0.976409912109375,-0.063385009765625,0.1285400390625
1776445001065666300,5.827666259765625,-0.9489288330078125,-0.0469207763671875,0.0899200439453125
1776445001090683100,5.85268310546875,-1.0638427734375,-0.017669677734375,0.0991363525390625
1776445001115700000,5.877699951171875,-1.0662384033203125,0.0112152099609375,0.1419219970703125
1776445001140717000,5.902717041015625,-1.03533935546875,0.0169830322265625,0.0987091064453125
1776445001165734100,5.927734130859375,-1.0364990234375,-0.0151824951171875,0.1474151611328125
1776445001190751000,5.9527509765625,-1.0150909423828125,-0.046722412109375,0.1358184814453125
1776445001215768000,5.97776806640625,-0.9283599853515625,-0.111602783203125,0.07489013671875
1776445001240785200,6.00278515625,-1.063140869140625,-0.0893402099609375,0.0382843017578125
1776445001265802200,6.02780224609375,-0.956787109375,-0.096099853515625,-0.1305389404296875
1776445001290819000,6.052819091796875,-0.883514404296875,-0.06024169921875,-0.1670379638671875
1776445001315836200,6.077836181640625,-0.9477996826171875,-0.0429840087890625,-0.0663909912109375
1776445001340853200,6.102853271484375,-1.03546142578125,-0.1428070068359375,0.11029052734375
1776445001365870000,6.1278701171875,-1.0893096923828125,-0.114166259765625,0.17034912109375
1776445001390887000,6.152886962890625,-1.0181121826171875,-0.1367340087890625,0.1606903076171875
1776445001415904000,6.177904052734375,-1.0833740234375,-0.0659942626953125,0.105560302734375
1776445001440921000,6.202921142578125,-1.0256195068359375,-0.0389556884765625,-0.0569305419921875
1776445001465938200,6.227938232421875,-0.924346923828125,0.0640869140625,-0.1175537109375
1776445001490955000,6.252955078125,-0.8402099609375,0.097381591796875,-0.107421875
1776445001515972000,6.27797216796875,-0.9073944091796875,0.04302978515625,-0.1261444091796875
1776445001540990200,6.302990234375,-0.975433349609375,-0.0263671875,-0.1443939208984375
1776445001566007000,6.328007080078125,-0.9670562744140625,-0.033172607421875,-0.1656494140625
1776445001591028200,6.3530283203125,-0.8819580078125,-0.0579681396484375,-0.1179351806640625
1776445001616045300,6.37804541015625,-0.9656524658203125,-0.020721435546875,-0.02325439453125
1776445001641062100,6.403062255859375,-0.9993896484375,-0.0326995849609375,-0.0020751953125
1776445001666079000,6.428078857421875,-0.9605560302734375,-0.0475616455078125,-0.01727294921875
1776445001691096000,6.453095947265625,-1.0492095947265625,-0.099700927734375,0.0053863525390625
1776445001716113200,6.478113037109375,-1.07696533203125,-0.1368408203125,0.0024871826171875
1776445001741130200,6.503130126953125,-1.0652008056640625,-0.16619873046875,-0.068267822265625
1776445001766147000,6.52814697265625,-0.9827728271484375,-0.1586151123046875,-0.140380859375
1776445001791164200,6.5531640625,-0.945037841796875,-0.139434814453125,-0.04913330078125
1776445001816181200,6.57818115234375,-1.0098419189453125,-0.1281280517578125,-0.0341949462890625
1776445001841198000,6.603197998046875,-0.976287841796875,-0.1374664306640625,-0.047210693359375
1776445001866215200,6.628215087890625,-1.014984130859375,-0.128387451171875,-0.075927734375
1776445001891232300,6.653232177734375,-0.988006591796875,-0.13238525390625,-0.0858306884765625
1776445001916249000,6.6782490234375,-0.96405029296875,-0.168853759765625,-0.0546417236328125
1776445001941266200,6.70326611328125,-1.14019775390625,-0.1244659423828125,0.0311737060546875
1776445001966283000,6.728282958984375,-1.0820465087890625,-0.03070068359375,0.0565338134765625
1776445001991300000,6.753300048828125,-1.0178070068359375,-0.0705413818359375,0.0748291015625
1776445002016317200,6.778317138671875,-1.06756591796875,-0.0755157470703125,0.0742340087890625
1776445002041334300,6.803334228515625,-0.918243408203125,-0.03033447265625,-0.013153076171875
1776445002066352000,6.82835205078125,-0.882080078125,0.2322540283203125,-0.075897216796875
1776445002091369200,6.853369140625,-0.8997344970703125,0.0357513427734375,-0.044891357421875
1776445002116386000,6.878385986328125,-1.0699005126953125,-0.0490264892578125,-0.0426483154296875
1776445002141403100,6.903403076171875,-1.012908935546875,-0.09039306640625,-0.0160369873046875
1776445002166420200,6.928420166015625,-0.9823760986328125,-0.066162109375,0.110992431640625
1776445002191437300,6.953437255859375,-1.114410400390625,-0.038116455078125,0.1154632568359375
1776445002216454100,6.9784541015625,-0.98828125,0.069061279296875,0.1258087158203125
1776445002241471000,7.003470947265625,-0.936279296875,0.0306396484375,0.1678466796875
1776445002266488000,7.028488037109375,-1.03668212890625,0.07586669921875,0.0387115478515625
1776445002291505200,7.053505126953125,-1.0682220458984375,0.07177734375,-0.172393798828125
1776445002316522200,7.078522216796875,-0.9448699951171875,0.093719482421875,-0.2210235595703125
1776445002341539000,7.1035390625,-0.8937835693359375,0.1101226806640625,-0.164306640625
1776445002366556200,7.12855615234375,-0.9615020751953125,0.1659698486328125,-0.127899169921875
1776445002391573200,7.1535732421875,-0.9580230712890625,0.236968994140625,-0.1114654541015625
1776445002416590300,7.17859033203125,-0.9888458251953125,0.22137451171875,-0.19287109375
1776445002441607200,7.203607177734375,-0.8366241455078125,0.1614990234375,-0.162933349609375
1776445002466624300,7.228624267578125,-1.045074462890625,0.2098541259765625,-0.0082855224609375
1776445002491641000,7.25364111328125,-1.0915069580078125,0.1541748046875,-0.0753021240234375
1776445002516658200,7.278658203125,-1.016326904296875,0.06658935546875,-0.1500396728515625
1776445002541675000,7.303675048828125,-1.1059112548828125,0.1059112548828125,-0.0072021484375
1776445002566693000,7.328693115234375,-1.049957275390625,0.123016357421875,-0.070556640625
1776445002591707000,7.353706787109375,-0.8978271484375,0.148162841796875,-0.225067138671875
1776445002616723700,7.3787236328125,-0.929168701171875,0.15081787109375,-0.1041107177734375
1776445002641740800,7.40374072265625,-1.008209228515625,0.161773681640625,0.06103515625
1776445002666758000,7.4287578125,-1.025115966796875,0.1502685546875,0.096954345703125
1776445002691774700,7.453774658203125,-0.955047607421875,0.234039306640625,0.07257080078125
1776445002716791600,7.47879150390625,-0.8249359130859375,0.2605133056640625,0.1029052734375
1776445002741808600,7.50380859375,-0.917724609375,0.2626495361328125,0.187591552734375
1776445002766825700,7.52882568359375,-0.9544219970703125,0.2536468505859375,0.1328125
1776445002791842800,7.5538427734375,-0.88092041015625,0.2812957763671875,0.0317230224609375
1776445002816859600,7.578859619140625,-0.860626220703125,0.2988739013671875,0.0520782470703125
1776445002841876700,7.603876708984375,-0.94195556640625,0.262725830078125,0.09210205078125
1776445002866893800,7.628893798828125,-1.0025177001953125,0.222930908203125,0.1096038818359375
1776445002891911000,7.653910888671875,-0.986083984375,0.1894073486328125,0.1027984619140625
1776445002916927700,7.678927734375,-0.9999847412109375,0.2102203369140625,0.1859283447265625
1776445002941944800,7.70394482421875,-1.0223846435546875,0.233673095703125,0.20574951171875
1776445002966961700,7.728961669921875,-0.993682861328125,0.198272705078125,0.0995025634765625
1776445002991978800,7.753978759765625,-0.968902587890625,0.21258544921875,0.0217437744140625
1776445003016995600,7.77899560546875,-0.9437103271484375,0.17864990234375,0.07257080078125
1776445003042013700,7.804013671875,-1.0248565673828125,0.1311492919921875,0.1320037841796875
1776445003067030800,7.82903076171875,-1.0946502685546875,0.0453033447265625,0.098114013671875
1776445003092047600,7.854047607421875,-1.08251953125,-0.002716064453125,-0.046142578125
1776445003117064700,7.879064697265625,-0.9810333251953125,0.0356597900390625,-0.1304779052734375
1776445003142081800,7.904081787109375,-0.93023681640625,0.0531158447265625,-0.0497283935546875
1776445003167099000,7.929098876953125,-0.906707763671875,0.03094482421875,0.118865966796875
1776445003192115700,7.95411572265625,-1.0198516845703125,0.11102294921875,0.196685791015625
1776445003217132800,7.9791328125,-1.01025390625,0.105682373046875,0.027252197265625
1776445003242150000,8.00414990234375,-0.8818206787109375,0.02001953125,-0.068389892578125
1776445003267167000,8.0291669921875,-1.0056610107421875,0.0139007568359375,0.0137176513671875
1776445003292183600,8.05418359375,-1.09051513671875,-0.0086669921875,0.0713958740234375
1776445003317200600,8.07920068359375,-1.081512451171875,-0.0050048828125,0.043060302734375
1776445003342217700,8.1042177734375,-0.9986419677734375,-0.0406036376953125,0.010223388671875
1776445003367234800,8.12923486328125,-0.998931884765625,-0.058837890625,-0.0326080322265625
1776445003392251600,8.154251708984376,-0.8592376708984375,-0.0841522216796875,-0.10528564453125
1776445003417268700,8.179268798828126,-0.91986083984375,-0.003997802734375,0.050872802734375
1776445003442285800,8.204285888671874,-0.9992828369140625,0.0150909423828125,0.126251220703125
1776445003467303000,8.229302978515625,-1.01068115234375,0.0633544921875,0.1994781494140625
1776445003492319700,8.25431982421875,-0.99755859375,0.0398101806640625,0.23309326171875
1776445003517337900,8.279337890625,-1.1015472412109375,-0.002044677734375,0.2219390869140625
1776445003542355000,8.30435498046875,-1.0780792236328125,0.001434326171875,0.17791748046875
1776445003567371800,8.329371826171876,-0.9764251708984375,-0.00701904296875,0.1074676513671875
1776445003592388000,8.35438818359375,-0.984100341796875,-0.0452728271484375,0.11053466796875
1776445003617405200,8.3794052734375,-1.0091705322265625,-0.0224456787109375,0.114715576171875
1776445003642422300,8.40442236328125,-1.0002593994140625,0.068084716796875,0.0937042236328125
1776445003667439000,8.429439208984375,-0.9222259521484375,0.1010284423828125,0.1386260986328125
1776445003692456000,8.4544560546875,-0.94207763671875,0.09454345703125,0.17413330078125
1776445003717473000,8.47947314453125,-0.9193267822265625,0.068084716796875,0.2252197265625
1776445003742490000,8.504489990234376,-0.9505767822265625,0.0617218017578125,0.30047607421875
1776445003767507200,8.529507080078124,-1.0322723388671875,0.045257568359375,0.282958984375
1776445003792524000,8.55452392578125,-1.0136566162109375,0.003692626953125,0.3143463134765625
1776445003817541000,8.579541015625,-1.0316925048828125,-0.0019683837890625,0.3365325927734375
1776445003842558200,8.60455810546875,-0.9997406005859375,0.0228271484375,0.2817840576171875
1776445003867575300,8.6295751953125,-0.932830810546875,0.077239990234375,0.2070159912109375
1776445003892592000,8.654592041015626,-0.8580780029296875,0.0976409912109375,0.16455078125
1776445003917609200,8.679609130859374,-0.886932373046875,0.119842529296875,0.1652069091796875
1776445003942627000,8.704626953125,-0.93780517578125,0.1370697021484375,0.161346435546875
1776445003967644200,8.72964404296875,-0.8968505859375,0.09759521484375,0.256256103515625
1776445003992661000,8.754660888671875,-0.959716796875,0.0625,0.317352294921875
1776445004017678000,8.779677978515625,-0.989898681640625,0.0699462890625,0.2504425048828125
1776445004042695200,8.804695068359376,-0.9759063720703125,0.0481109619140625,0.20916748046875
1776445004067712000,8.8297119140625,-1.013671875,0.051605224609375,0.3287200927734375
1776445004092729000,8.85472900390625,-1.0408172607421875,0.04119873046875,0.3951263427734375
1776445004117746200,8.87974609375,-1.138946533203125,-0.428314208984375,-0.056060791015625
1776445004142763300,8.90476318359375,-0.9246063232421875,-0.209075927734375,0.0984344482421875
1776445004167780000,8.929780029296875,-0.95849609375,0.028564453125,0.261322021484375
1776445004192797200,8.954797119140625,-1.0062408447265625,0.0047760009765625,0.2774810791015625
1776445004217814300,8.979814208984376,-0.972686767578125,-0.0088348388671875,0.221038818359375
1776445004242831000,9.0048310546875,-0.995086669921875,0.012847900390625,0.282196044921875
1776445004267848000,9.029847900390624,-1.005706787109375,-0.0424041748046875,0.21466064453125
1776445004292865000,9.054864990234375,-0.9795989990234375,0.012237548828125,0.1494903564453125
1776445004317882000,9.079882080078125,-1.0072784423828125,0.0679779052734375,0.135223388671875
1776445004342899200,9.104899169921875,-1.0011444091796875,0.0224151611328125,0.093719482421875
1776445004367916000,9.129916015625,-0.966339111328125,0.01409912109375,0.0803985595703125
1776445004392933000,9.15493310546875,-0.9329986572265625,-0.0040435791015625,-0.0048065185546875
1776445004417951200,9.179951171875,-0.9684600830078125,0.039581298828125,-0.010833740234375
1776445004442968000,9.204968017578125,-0.975830078125,0.051544189453125,0.0625
1776445004467985200,9.229985107421875,-1.0075531005859375,0.008758544921875,0.059844970703125
1776445004493002200,9.255002197265625,-0.935791015625,-0.0807952880859375,0.0920562744140625
1776445004518019000,9.28001904296875,-1.087310791015625,-0.0573272705078125,0.2086639404296875
1776445004543036200,9.3050361328125,-1.0972137451171875,-0.02667236328125,0.31207275390625
1776445004568053000,9.330052978515624,-0.980499267578125,-0.047821044921875,0.239044189453125
1776445004593071000,9.355071044921875,-0.8795013427734375,-0.0671844482421875,0.1718597412109375
1776445004618088000,9.380087890625,-1.0112152099609375,-0.048309326171875,0.179107666015625
1776445004643105000,9.40510498046875,-1.0814056396484375,-0.0135650634765625,0.1832122802734375
1776445004668122000,9.4301220703125,-0.953704833984375,0.0175323486328125,0.06243896484375
1776445004693139200,9.45513916015625,-0.813720703125,0.0368194580078125,0.030731201171875
1776445004718156000,9.480156005859374,-0.9173126220703125,0.024749755859375,0.10272216796875
1776445004743173000,9.505173095703125,-1.1222991943359375,-0.022491455078125,0.1525115966796875
1776445004768190000,9.53018994140625,-0.9877471923828125,-0.016815185546875,0.1926422119140625
1776445004793207000,9.55520703125,-0.9728851318359375,-0.020660400390625,0.2841644287109375
1776445004818223900,9.580223876953125,-1.1331329345703125,-0.0517425537109375,0.2466583251953125
1776445004843241000,9.605240966796876,-1.0334320068359375,-0.0290374755859375,0.1492767333984375
1776445004868258000,9.630258056640624,-0.879852294921875,-0.01202392578125,0.06475830078125
1776445004893275100,9.655275146484374,-0.9015655517578125,-0.093780517578125,0.028900146484375
1776445004918293000,9.68029296875,-0.995391845703125,-0.1501617431640625,0.1427154541015625
1776445004943310000,9.70531005859375,-0.990264892578125,-0.1393280029296875,0.0985107421875
1776445004968327200,9.7303271484375,-0.9029693603515625,-0.0980682373046875,0.05108642578125
1776445004993344000,9.755343994140626,-0.91387939453125,-0.0836334228515625,0.0920257568359375
1776445005018361000,9.780361083984374,-1.0869903564453125,-0.1122283935546875,0.211761474609375
1776445005043378200,9.805378173828124,-1.116363525390625,-0.13330078125,0.170562744140625
1776445005068395300,9.830395263671875,-0.95928955078125,-0.0692596435546875,0.0870819091796875
1776445005093411800,9.855411865234375,-0.9245452880859375,-0.05682373046875,0.01788330078125
1776445005118429000,9.880428955078125,-1.0258331298828125,-0.0606231689453125,0.051239013671875
1776445005143446000,9.905446044921876,-1.158203125,-0.118133544921875,0.152069091796875
1776445005168463000,9.930463134765626,-0.9583282470703125,-0.2325439453125,0.093719482421875
1776445005193480000,9.95547998046875,-0.84130859375,-0.3279876708984375,0.0338134765625
1776445005218497000,9.9804970703125,-1.089599609375,-0.2468414306640625,0.1122894287109375
1776445005243514000,10.00551416015625,-1.0277862548828125,-0.1806793212890625,0.14776611328125
1776445005268531200,10.03053125,-0.9984893798828125,-0.1873779296875,0.0570220947265625
1776445005293548000,10.055548095703125,-1.0301361083984375,-0.17340087890625,0.0547637939453125
1776445005318565000,10.080565185546876,-0.9562225341796875,-0.11627197265625,-0.0625762939453125
1776445005343582000,10.10558203125,-0.8826446533203125,-0.093231201171875,-0.1418304443359375
1776445005368599000,10.13059912109375,-0.970306396484375,-0.11553955078125,-0.111297607421875
1776445005393616000,10.155615966796875,-1.0255279541015625,-0.0801544189453125,-0.066497802734375
1776445005418634000,10.180634033203125,-0.9573822021484375,-0.0824737548828125,-0.0550994873046875
1776445005443651000,10.205651123046875,-0.9738616943359375,-0.1189117431640625,-0.1014556884765625
1776445005468668000,10.23066796875,-1.0731201171875,-0.1341094970703125,-0.11822509765625
1776445005493685000,10.25568505859375,-0.9970703125,-0.1377716064453125,-0.0949249267578125
1776445005518702000,10.2807021484375,-0.9509429931640625,-0.104034423828125,-0.02593994140625
1776445005543719200,10.30571923828125,-0.98468017578125,-0.13726806640625,-0.019866943359375
1776445005568736000,10.330736083984375,-1.080780029296875,-0.1888427734375,-0.1159210205078125
1776445005593757000,10.3557568359375,-0.962860107421875,-0.1675262451171875,-0.0977935791015625
1776445005618774000,10.38077392578125,-0.9593963623046875,-0.0912933349609375,-0.098419189453125
1776445005643790800,10.405790771484375,-0.938201904296875,-0.0775604248046875,-0.1001129150390625
1776445005668807700,10.4308076171875,-0.975555419921875,-0.0764007568359375,-0.0571441650390625
1776445005693824800,10.45582470703125,-0.9911956787109375,-0.06561279296875,-0.0867767333984375
1776445005718841900,10.480841796875,-0.8919219970703125,-0.0516204833984375,-0.0647125244140625
1776445005743858700,10.505858642578126,-0.9538726806640625,-0.0350189208984375,-0.0528717041015625
1776445005768875800,10.530875732421874,-0.96051025390625,-0.056732177734375,-0.063446044921875
1776445005793892900,10.555892822265625,-0.986572265625,-0.0912017822265625,-0.0869903564453125
1776445005818910000,10.580909912109375,-0.99432373046875,-0.1130218505859375,-0.0978546142578125
1776445005843926800,10.6059267578125,-0.9656524658203125,-0.08502197265625,-0.1071929931640625
1776445005868944000,10.63094384765625,-0.9663238525390625,-0.0923309326171875,-0.071441650390625
1776445005893961000,10.6559609375,-1.0652923583984375,-0.17230224609375,-0.048004150390625
1776445005918978000,10.68097802734375,-1.0673980712890625,-0.1610107421875,-0.0561370849609375
1776445005943996000,10.705995849609375,-1.007659912109375,-0.106781005859375,-0.0509185791015625
1776445005969013000,10.731012939453125,-0.94921875,-0.048980712890625,0.013946533203125
1776445005994029800,10.75602978515625,-1.0242919921875,-0.024261474609375,0.1081390380859375
1776445006019046700,10.781046630859375,-1.0966949462890625,0.0009307861328125,0.0920867919921875
1776445006044063700,10.806063720703126,-0.9945831298828125,0.02630615234375,0.046539306640625
1776445006069080800,10.831080810546876,-0.9539794921875,0.031494140625,0.007354736328125
1776445006094098000,10.856097900390624,-0.9755859375,-0.0106964111328125,-0.0839385986328125
1776445006119114800,10.88111474609375,-0.944244384765625,-0.0197906494140625,-0.1359710693359375
1776445006144131800,10.9061318359375,-0.9776611328125,-0.008575439453125,-0.1284942626953125
1776445006169149000,10.93114892578125,-0.974273681640625,0.0338134765625,-0.0482330322265625
1776445006194166000,10.956166015625,-0.94964599609375,-0.027374267578125,-0.12249755859375
1776445006219182800,10.981182861328126,-0.929290771484375,-0.1031646728515625,-0.105072021484375
1776445006244199700,11.00619970703125,-0.98974609375,-0.1625823974609375,-0.0276336669921875
1776445006269216800,11.031216796875,-0.973052978515625,-0.1376953125,0.0738067626953125
1776445006294233900,11.05623388671875,-0.9602813720703125,-0.0528411865234375,0.2814788818359375
1776445006319251000,11.0812509765625,-1.162200927734375,0.1378173828125,0.3696746826171875
1776445006344267800,11.106267822265625,-1.05328369140625,0.001953125,0.223602294921875
1776445006369284900,11.131284912109376,-1.0631256103515625,-0.0746307373046875,0.00079345703125
1776445006394302000,11.156302001953126,-1.0249786376953125,-0.0320587158203125,-0.0150909423828125
1776445006419319000,11.181319091796874,-0.98199462890625,-0.0449676513671875,-0.090972900390625
1776445006444335900,11.2063359375,-0.9658355712890625,-0.023101806640625,-0.0233612060546875
1776445006469353000,11.23135302734375,-0.9899139404296875,-0.0018157958984375,0.0562896728515625
1776445006494369800,11.256369873046875,-1.0567626953125,0.0351715087890625,0.05023193359375
1776445006519388000,11.281387939453126,-1.0710296630859375,0.001373291015625,-0.0315399169921875
1776445006544404700,11.30640478515625,-1.0298309326171875,-0.0904998779296875,-0.1446533203125
1776445006569421800,11.331421875,-1.0135650634765625,0.0101165771484375,-0.06793212890625
1776445006594438000,11.35643798828125,-0.975341796875,-0.003997802734375,-0.1291046142578125
1776445006619455000,11.381455078125,-0.9473419189453125,0.0272369384765625,-0.1236419677734375
1776445006644471800,11.406471923828125,-0.9875946044921875,0.0230712890625,-0.1226654052734375
1776445006669488600,11.431488525390625,-0.983551025390625,-0.042388916015625,-0.13323974609375
1776445006694505700,11.456505615234375,-0.992828369140625,-0.008026123046875,-0.0631103515625
1776445006719522800,11.481522705078126,-0.9425811767578125,0.058563232421875,0.0792388916015625
1776445006744539600,11.50653955078125,-0.9515380859375,0.0878753662109375,0.107208251953125
1776445006769556700,11.531556640625,-0.9656829833984375,0.0830535888671875,0.1339263916015625
1776445006794573800,11.55657373046875,-0.994354248046875,0.0894012451171875,0.1575469970703125
1776445006819591000,11.5815908203125,-0.965484619140625,0.058197021484375,0.17266845703125
1776445006844607700,11.606607666015625,-0.987640380859375,0.021575927734375,0.1150360107421875
1776445006869624800,11.631624755859375,-0.9802398681640625,0.0325469970703125,0.067138671875
1776445006894642000,11.656641845703126,-0.9485931396484375,-0.0085601806640625,-0.051300048828125
1776445006919658800,11.68165869140625,-0.95477294921875,-0.0241241455078125,-0.006561279296875
1776445006944675600,11.706675537109374,-1.03692626953125,-0.0273895263671875,0.0296630859375
1776445006969692700,11.731692626953125,-1.0212860107421875,-0.0365142822265625,0.0408477783203125
1776445006994709800,11.756709716796875,-1.021270751953125,-0.025421142578125,0.087738037109375
1776445007019726800,11.781726806640625,-0.9918212890625,-0.0628662109375,0.042755126953125
1776445007044743700,11.80674365234375,-0.9930877685546875,-0.049957275390625,0.04736328125
1776445007069760800,11.8317607421875,-1.0642242431640625,-0.0575714111328125,0.0936431884765625
1776445007094777900,11.85677783203125,-1.2291259765625,-0.1236419677734375,-0.0493011474609375
1776445007119795700,11.881795654296875,-1.0485382080078125,-0.0656585693359375,-0.0535125732421875
1776445007144812800,11.906812744140625,-0.8791961669921875,0.048095703125,0.01220703125
1776445007169830000,11.931829833984375,-0.958526611328125,0.128662109375,0.01458740234375
1776445007194847000,11.956846923828126,-0.89813232421875,0.1652984619140625,-0.000152587890625
1776445007219863800,11.98186376953125,-0.884674072265625,0.0998992919921875,-0.0216522216796875
1776445007244880600,12.006880615234374,-1.0212249755859375,0.062255859375,0.0426788330078125
1776445007269897700,12.031897705078125,-1.0610504150390625,0.06414794921875,0.159210205078125
1776445007294914800,12.056914794921875,-1.0740203857421875,-0.02099609375,0.0482635498046875
1776445007319931600,12.081931640625,-1.141754150390625,0.078643798828125,-0.0079803466796875
1776445007344948700,12.10694873046875,-0.9996490478515625,0.1688690185546875,-0.0615997314453125
1776445007369965800,12.1319658203125,-0.8040618896484375,0.14825439453125,-0.0577850341796875
1776445007394983000,12.15698291015625,-0.8801422119140625,0.0552825927734375,-0.008026123046875
1776445007419999700,12.181999755859374,-0.966217041015625,-0.0428314208984375,-0.00592041015625
1776445007445016800,12.207016845703125,-1.021331787109375,-0.0266876220703125,0.027099609375
1776445007470034000,12.232033935546875,-1.00225830078125,-0.03076171875,0.1228790283203125
1776445007495050800,12.25705078125,-1.089630126953125,-0.0620574951171875,0.2310638427734375
1776445007520067600,12.282067626953125,-1.077484130859375,-0.081268310546875,0.2752685546875
1776445007545084700,12.307084716796876,-0.9943084716796875,-0.0966033935546875,0.203887939453125
1776445007570101800,12.332101806640624,-0.99041748046875,-0.1011505126953125,0.09722900390625
1776445007595115800,12.35711572265625,-0.9416656494140625,-0.0484466552734375,0.1433563232421875
1776445007620132600,12.382132568359374,-0.9224700927734375,-0.0110931396484375,0.1527557373046875
1776445007645149700,12.407149658203124,-0.9533843994140625,0.0014190673828125,0.1090545654296875
1776445007670166800,12.432166748046875,-0.96221923828125,0.0852203369140625,0.01141357421875
1776445007695184000,12.457183837890625,-0.8867340087890625,0.227813720703125,0.0036468505859375
1776445007720200700,12.48220068359375,-0.785736083984375,0.2591400146484375,0.103485107421875
1776445007745217800,12.5072177734375,-0.9561309814453125,0.2276763916015625,0.1055450439453125
1776445007770235000,12.53223486328125,-0.9602203369140625,0.16815185546875,0.173095703125
1776445007795252700,12.557252685546874,-1.0281829833984375,0.13690185546875,0.2089385986328125
1776445007820269800,12.582269775390625,-1.0750274658203125,0.074676513671875,0.25286865234375
1776445007845287000,12.607286865234375,-1.131683349609375,0.026397705078125,0.39044189453125
1776445007870303700,12.6323037109375,-1.2095947265625,0.011444091796875,0.34796142578125
1776445007895320600,12.657320556640625,-0.962432861328125,-0.091796875,0.2682342529296875
1776445007920337700,12.682337646484376,-1.0251007080078125,-0.0281524658203125,0.179107666015625
1776445007945354800,12.707354736328124,-0.97540283203125,0.0205535888671875,0.19647216796875
1776445007970371800,12.732371826171875,-0.878875732421875,0.0496826171875,0.2180023193359375
1776445007995388700,12.757388671875,-0.890106201171875,0.06256103515625,0.25408935546875
1776445008020405800,12.78240576171875,-1.0528106689453125,0.0742034912109375,0.288055419921875
1776445008045422800,12.8074228515625,-0.9855194091796875,0.0797271728515625,0.280914306640625
1776445008070440000,12.83243994140625,-0.98785400390625,0.093536376953125,0.3155670166015625
1776445008095456800,12.857456787109374,-1.04547119140625,0.0355072021484375,0.017364501953125
1776445008120473600,12.8824736328125,-0.9023590087890625,-0.06195068359375,0.1434783935546875
1776445008145490700,12.90749072265625,-0.963897705078125,0.0030059814453125,0.09503173828125
1776445008170507800,12.9325078125,-0.9872589111328125,0.0594940185546875,0.094146728515625
1776445008195524600,12.957524658203125,-1.0586395263671875,0.10736083984375,0.169189453125
1776445008220541700,12.982541748046875,-1.017547607421875,0.0919647216796875,0.1307525634765625
1776445008245558800,13.007558837890626,-0.977447509765625,0.1458892822265625,0.2391510009765625
1776445008270575900,13.032575927734374,-1.0059356689453125,0.16363525390625,0.296051025390625
1776445008295592700,13.0575927734375,-1.0289306640625,0.1854248046875,0.174102783203125
1776445008320609800,13.08260986328125,-0.93804931640625,0.145233154296875,0.0820465087890625
1776445008345627000,13.107626953125,-0.9314117431640625,0.1837158203125,0.022186279296875
1776445008370643700,13.132643798828125,-0.9006500244140625,0.2362213134765625,0.0938720703125
1776445008395660500,13.15766064453125,-0.9043731689453125,0.2155609130859375,0.095794677734375
1776445008420677600,13.182677734375,-0.9925079345703125,0.208465576171875,0.0777130126953125
1776445008445694700,13.20769482421875,-1.0515899658203125,0.254150390625,0.089324951171875
1776445008470711800,13.2327119140625,-1.016021728515625,0.2334136962890625,0.0061187744140625
1776445008495728600,13.257728759765625,-0.931915283203125,0.2218780517578125,-0.0220184326171875
1776445008520746800,13.282746826171875,-0.8804473876953125,0.18218994140625,0.020782470703125
1776445008545763800,13.307763916015626,-1.07464599609375,0.187530517578125,0.0320892333984375
1776445008570780700,13.33278076171875,-1.013427734375,0.183624267578125,0.055633544921875
1776445008595798000,13.357798095703124,-0.872406005859375,0.141571044921875,0.010833740234375
1776445008620815000,13.382815185546875,-0.754608154296875,0.0160369873046875,0.0515899658203125
1776445008645832000,13.40783203125,-1.0370635986328125,-0.053131103515625,0.1587982177734375
1776445008670849000,13.43284912109375,-1.02325439453125,-0.0465240478515625,0.2917327880859375
1776445008695865900,13.457865966796875,-0.9821624755859375,-0.0141448974609375,0.270294189453125
1776445008720883000,13.482883056640626,-0.9183502197265625,-0.0178680419921875,0.3209991455078125
1776445008745900000,13.507900146484374,-0.980804443359375,-0.0820159912109375,0.221954345703125
1776445008770916900,13.532916748046874,-1.0608978271484375,-0.03228759765625,0.23089599609375
1776445008795934000,13.557933837890625,-0.9832611083984375,-0.0126495361328125,0.1898345947265625
1776445008820951000,13.582950927734375,-0.8899993896484375,-0.0568695068359375,0.05072021484375
1776445008845968100,13.607968017578125,-0.9004364013671875,-0.0439453125,0.0518341064453125
1776445008870985000,13.63298486328125,-1.0380859375,-0.00946044921875,0.045745849609375
1776445008896002000,13.658001953125,-0.9764556884765625,0.0131988525390625,0.0473175048828125
1776445008921019100,13.68301904296875,-0.866455078125,-0.0235595703125,0.0415191650390625
1776445008946036200,13.7080361328125,-0.9851226806640625,-0.040802001953125,0.0709381103515625
1776445008971052800,13.733052734375,-1.132720947265625,0.0392303466796875,0.060821533203125
1776445008996070000,13.75806982421875,-1.0647430419921875,0.0929107666015625,0.0715789794921875
1776445009021087000,13.7830869140625,-0.9434661865234375,0.055389404296875,0.0864105224609375
1776445009046104000,13.80810400390625,-0.856903076171875,-0.0804901123046875,0.06121826171875
1776445009071121000,13.833120849609376,-1.0578765869140625,-0.1745758056640625,0.126220703125
1776445009096138000,13.858137939453124,-1.1768035888671875,-0.1443023681640625,0.2267303466796875
1776445009121155000,13.883155029296875,-0.958526611328125,-0.11541748046875,0.10113525390625
1776445009146172200,13.908172119140625,-0.9250640869140625,0.0877685546875,0.044403076171875
1776445009171189000,13.93318896484375,-0.9293975830078125,0.0683135986328125,0.0087738037109375
1776445009196206000,13.9582060546875,-1.0400238037109375,0.0177764892578125,-0.020904541015625
1776445009221223000,13.983222900390626,-0.9921722412109375,0.000091552734375,-0.021026611328125
1776445009246240000,14.008239990234374,-1.0487213134765625,-0.0001220703125,-0.104522705078125
1776445009271256800,14.0332568359375,-1.0068511962890625,0.0027313232421875,-0.04046630859375
1776445009296274000,14.05827392578125,-0.98974609375,-0.00946044921875,-0.0153350830078125
1776445009321291000,14.083291015625,-1.025634765625,0.019622802734375,-0.0155487060546875
1776445009346308000,14.10830810546875,-1.0215301513671875,0.0193939208984375,-0.00799560546875
1776445009371326000,14.133325927734376,-1.0530548095703125,-0.0541839599609375,-0.0752105712890625
1776445009396343000,14.158343017578124,-1.0417327880859375,-0.0753173828125,-0.152099609375
1776445009421360000,14.183360107421874,-1.0028533935546875,-0.031829833984375,-0.0845489501953125
1776445009446377000,14.208376953125,-0.99615478515625,-0.0388031005859375,-0.0773162841796875
1776445009471394000,14.23339404296875,-0.9667205810546875,-0.0222320556640625,-0.0839385986328125
1776445009496411100,14.2584111328125,-0.94140625,-0.05853271484375,-0.0993499755859375
1776445009521428000,14.283427978515626,-1.0115509033203125,-0.160186767578125,-0.132171630859375
1776445009546444800,14.30844482421875,-0.990509033203125,-0.19598388671875,-0.1263885498046875
1776445009571462000,14.3334619140625,-0.9195404052734375,-0.2497406005859375,-0.0901641845703125
1776445009596482600,14.358482666015625,-0.947418212890625,-0.29595947265625,-0.0573272705078125
1776445009621499400,14.38349951171875,-0.9383087158203125,-0.3194580078125,0.0273895263671875
1776445009646516200,14.40851611328125,-1.0055389404296875,-0.270660400390625,0.1467132568359375
1776445009671533300,14.433533203125,-1.037078857421875,-0.2208404541015625,0.2187042236328125
1776445009696550400,14.45855029296875,-1.041473388671875,-0.241455078125,0.2733917236328125
1776445009721567500,14.4835673828125,-1.06719970703125,-0.3349609375,0.2993927001953125
1776445009746584300,14.508584228515625,-0.9782257080078125,-0.364593505859375,0.1291046142578125
1776445009771601400,14.533601318359375,-0.9141693115234375,-0.3112640380859375,0.056732177734375
1776445009796618500,14.558618408203126,-0.96148681640625,-0.2843780517578125,0.01556396484375
1776445009821635600,14.583635498046876,-0.9573211669921875,-0.2744293212890625,0.024627685546875
1776445009846652400,14.60865234375,-0.967681884765625,-0.2257232666015625,0.0257720947265625
1776445009871669200,14.633669189453125,-0.968536376953125,-0.168487548828125,0.0546112060546875
1776445009896686300,14.658686279296875,-0.9539794921875,-0.106201171875,0.0887908935546875
1776445009921703400,14.683703369140625,-0.99920654296875,-0.0212860107421875,0.1510772705078125
1776445009946720300,14.70872021484375,-0.9419403076171875,0.0510101318359375,0.1529693603515625
1776445009971737300,14.7337373046875,-0.8872222900390625,0.0912322998046875,0.052947998046875
1776445009996754400,14.75875439453125,-0.9198760986328125,0.080810546875,0.038909912109375
1776445010021771500,14.783771484375,-1.0683135986328125,0.0157012939453125,0.028778076171875
1776445010046788400,14.808788330078125,-1.0257415771484375,0.03594970703125,-0.1170654296875
1776445010071805400,14.833805419921875,-0.8905029296875,-0.05975341796875,-0.196441650390625
1776445010096822500,14.858822509765625,-0.927734375,-0.19879150390625,-0.1867218017578125
1776445010121839400,14.88383935546875,-1.0362091064453125,-0.238800048828125,-0.13165283203125
1776445010146856200,14.908856201171876,-1.05914306640625,-0.115234375,0.0003204345703125
1776445010171873300,14.933873291015624,-0.94647216796875,-0.041748046875,0.137603759765625
1776445010196890400,14.958890380859375,-1.192352294921875,0.0361785888671875,0.2560272216796875
1776445010221907500,14.983907470703125,-1.03936767578125,-0.00152587890625,0.1279296875
1776445010246924300,15.00892431640625,-0.93212890625,-0.0511627197265625,-0.1120147705078125
1776445010271941400,15.03394140625,-0.9321136474609375,-0.0486297607421875,-0.1860809326171875
1776445010296958500,15.05895849609375,-0.9934844970703125,-0.0137481689453125,-0.2323760986328125
1776445010321975600,15.0839755859375,-0.997589111328125,0.02978515625,-0.205078125
1776445010346992400,15.108992431640624,-0.993865966796875,0.04608154296875,-0.1131439208984375
1776445010372009500,15.134009521484375,-1.0263519287109375,0.049896240234375,-0.1053466796875
1776445010397027600,15.159027587890625,-1.0187530517578125,0.006072998046875,-0.1858367919921875
1776445010422044400,15.18404443359375,-1.066650390625,0.000030517578125,-0.229888916015625
1776445010447061200,15.209061279296876,-0.92291259765625,0.0573883056640625,-0.2406463623046875
1776445010472078300,15.234078369140626,-0.98016357421875,0.0478515625,-0.3543243408203125
1776445010497095400,15.259095458984374,-0.85113525390625,0.0775909423828125,-0.2724761962890625
1776445010522112300,15.2841123046875,-1.0552825927734375,0.1005706787109375,-0.3243408203125
1776445010547129300,15.30912939453125,-0.9346466064453125,0.0973358154296875,-0.303253173828125
1776445010572146400,15.334146484375,-0.9160919189453125,0.0467529296875,-0.315948486328125
1776445010597160000,15.359159912109375,-0.961212158203125,0.0606231689453125,-0.1386260986328125
1776445010622176800,15.3841767578125,-1.06658935546875,0.1353302001953125,-0.0238189697265625
1776445010647193600,15.409193603515625,-1.00506591796875,0.1511688232421875,0.0111541748046875
1776445010672210700,15.434210693359375,-0.9166107177734375,0.0804901123046875,-0.061737060546875
1776445010697227800,15.459227783203126,-1.03753662109375,0.13946533203125,-0.000946044921875
1776445010722244900,15.484244873046874,-0.857666015625,0.0845489501953125,-0.2374725341796875
1776445010747261700,15.50926171875,-0.73187255859375,0.189453125,-0.2528076171875
1776445010772278800,15.53427880859375,-0.8702239990234375,0.213043212890625,-0.0972137451171875
1776445010797295900,15.5592958984375,-0.884185791015625,0.219146728515625,0.0473785400390625
1776445010822312700,15.584312744140625,-0.9660491943359375,0.1507720947265625,0.013885498046875
1776445010847329800,15.609329833984376,-0.972869873046875,0.08251953125,0.065582275390625
1776445010872347000,15.634346923828126,-0.9840545654296875,0.0872955322265625,0.0601806640625
1776445010897363700,15.65936376953125,-1.1416168212890625,0.0208587646484375,-0.16204833984375
1776445010922380800,15.684380859375,-1.0436859130859375,-0.01214599609375,-0.1890106201171875
1776445010947397600,15.709397705078125,-1.0588836669921875,0.0441741943359375,-0.086029052734375
1776445010972414700,15.734414794921875,-0.9486846923828125,0.1202239990234375,0.00799560546875
1776445010997431800,15.759431884765625,-1.0883941650390625,0.09869384765625,-0.0785369873046875
1776445011022449000,15.784448974609376,-0.977691650390625,0.0860443115234375,-0.1038818359375
1776445011047465700,15.8094658203125,-0.9324951171875,0.1340484619140625,-0.017578125
1776445011072482800,15.83448291015625,-0.8787689208984375,0.0627593994140625,0.05487060546875
1776445011097500000,15.8595,-0.979949951171875,-0.0194244384765625,0.0780029296875
1776445011122517000,15.88451708984375,-1.143768310546875,0.027740478515625,0.133636474609375
1776445011147533800,15.909533935546875,-1.0430908203125,0.114959716796875,0.14044189453125
1776445011172550700,15.934550537109375,-0.964630126953125,0.0887298583984375,0.16033935546875
1776445011197567700,15.959567626953126,-1.0267333984375,0.0047149658203125,0.14862060546875
1776445011222584800,15.984584716796874,-1.088165283203125,-0.03228759765625,0.1212921142578125
1776445011247601700,16.0096015625,-0.981903076171875,0.0009307861328125,0.0927734375
1776445011272618800,16.03461865234375,-0.95654296875,0.0312652587890625,0.1334228515625
1776445011297635800,16.0596357421875,-1.0180816650390625,0.1010894775390625,0.1699676513671875
1776445011322653000,16.08465283203125,-0.9656524658203125,0.0955963134765625,0.143280029296875
1776445011347669800,16.109669677734374,-0.9582977294921875,0.0372161865234375,0.05194091796875
1776445011372686800,16.134686767578124,-0.9480133056640625,0.000213623046875,0.0277099609375
1776445011397704000,16.159703857421874,-0.9287872314453125,0.025421142578125,0.032318115234375
1776445011422720800,16.184720703125,-0.990142822265625,0.1205902099609375,0.1568756103515625
1776445011447737600,16.209737548828127,-0.9960174560546875,0.119049072265625,0.229156494140625
1776445011472754700,16.234754638671873,-1.0406341552734375,0.1012725830078125,0.2296142578125
1776445011497771800,16.259771728515624,-0.989471435546875,0.1033782958984375,0.238311767578125
1776445011522788900,16.284788818359374,-0.9610748291015625,0.153228759765625,0.2650604248046875
1776445011547805700,16.3098056640625,-0.988800048828125,0.239105224609375,0.3839569091796875
1776445011572822800,16.33482275390625,-1.0424957275390625,0.2083282470703125,0.26947021484375
1776445011597844000,16.359843994140626,-0.9268951416015625,0.161102294921875,0.1796875
1776445011622860800,16.38486083984375,-0.9420318603515625,0.180633544921875,0.1795501708984375
1776445011647878000,16.4098779296875,-0.97308349609375,0.1713104248046875,0.3285369873046875
1776445011672895000,16.43489501953125,-0.994140625,0.1112823486328125,0.256500244140625
1776445011697912000,16.459912109375,-0.944549560546875,0.127349853515625,0.27093505859375
1776445011722928600,16.4849287109375,-0.9708709716796875,0.1607513427734375,0.2445831298828125
1776445011747945700,16.50994580078125,-0.9130706787109375,0.1396484375,0.1930999755859375
1776445011772962800,16.534962890625,-0.93475341796875,0.0948944091796875,0.1915130615234375
1776445011797980000,16.55997998046875,-0.9796600341796875,0.068878173828125,0.163116455078125
1776445011822996700,16.584996826171874,-0.9398040771484375,0.0625152587890625,0.13714599609375
1776445011848013800,16.610013916015625,-0.941314697265625,0.052520751953125,0.175811767578125
1776445011873031000,16.635031005859375,-0.9597320556640625,0.04705810546875,0.2404937744140625
1776445011898048800,16.660048828125,-0.9790496826171875,0.0945892333984375,0.2769775390625
1776445011923065900,16.68506591796875,-1.02716064453125,0.0504608154296875,0.1898345947265625
1776445011948083000,16.7100830078125,-0.999267578125,-0.0982513427734375,0.1180419921875
1776445011973100000,16.73510009765625,-0.9804229736328125,0.0397186279296875,0.2679595947265625
1776445011998116900,16.760116943359375,-1.0064697265625,0.090545654296875,0.2696380615234375
1776445012023133700,16.7851337890625,-0.9419403076171875,0.1446685791015625,0.1822357177734375
1776445012048150800,16.81015087890625,-1.008026123046875,0.06231689453125,0.100067138671875
1776445012073168000,16.83516796875,-0.9870147705078125,0.0702667236328125,0.178497314453125
1776445012098184700,16.860184814453124,-1.029266357421875,0.0332489013671875,0.118011474609375
1776445012123201800,16.885201904296874,-0.928955078125,0.053955078125,0.0814666748046875
1776445012148219000,16.910218994140624,-0.912353515625,0.055938720703125,0.13665771484375
1776445012173236000,16.935236083984375,-1.0396728515625,0.018890380859375,0.218231201171875
1776445012198252800,16.960252685546877,-1.0106201171875,-0.031158447265625,0.2464752197265625
1776445012223270000,16.985269775390623,-1.0200653076171875,-0.0153045654296875,0.1829376220703125
1776445012248287000,17.010286865234374,-1.044952392578125,0.01531982421875,0.1430816650390625
1776445012273303800,17.0353037109375,-1.055450439453125,0.08038330078125,0.1136016845703125
1776445012298321000,17.06032080078125,-0.9526824951171875,0.0791015625,0.0481414794921875
1776445012323337700,17.085337646484376,-0.957855224609375,0.037261962890625,0.0109405517578125
1776445012348354800,17.110354736328127,-0.99273681640625,-0.0053558349609375,0.0374298095703125
1776445012373372000,17.135371826171873,-1.007568359375,-0.072113037109375,0.1375885009765625
1776445012398388700,17.160388671875,-1.016998291015625,-0.199798583984375,0.1371307373046875
1776445012423405800,17.18540576171875,-1.0794677734375,-0.145263671875,0.18817138671875
1776445012448423000,17.2104228515625,-0.971954345703125,-0.1415252685546875,0.1577606201171875
1776445012473440000,17.23543994140625,-0.960540771484375,-0.1678314208984375,0.1243133544921875
1776445012498456800,17.260456787109376,-0.936248779296875,-0.122161865234375,0.1145782470703125
1776445012523474000,17.285473876953127,-0.9822998046875,-0.0565185546875,0.0608673095703125
1776445012548490800,17.31049072265625,-0.9013214111328125,-0.054290771484375,-0.0258331298828125
1776445012573507800,17.3355078125,-0.8255462646484375,-0.1217803955078125,-0.002227783203125
1776445012598520800,17.360520751953125,-1.053436279296875,-0.1116180419921875,0.0474090576171875
1776445012623537700,17.38553759765625,-1.01202392578125,-0.098907470703125,0.03570556640625
1776445012648554800,17.4105546875,-0.8663330078125,-0.1004180908203125,0.0062255859375
1776445012673571800,17.43557177734375,-0.8896026611328125,-0.1282958984375,0.0167694091796875
1776445012698589000,17.4605888671875,-1.10595703125,-0.087249755859375,-0.0110626220703125
1776445012723605800,17.485605712890624,-1.107025146484375,-0.0111541748046875,-0.0206298828125
1776445012748622800,17.510622802734375,-0.89984130859375,-0.0557403564453125,-0.002716064453125
1776445012773640000,17.535639892578125,-1.0084381103515625,-0.09228515625,0.0095367431640625
1776445012798657000,17.560656982421875,-1.079742431640625,-0.094696044921875,0.0668182373046875
1776445012823673900,17.585673828125,-1.015106201171875,-0.09423828125,0.033843994140625
1776445012848690700,17.610690673828124,-0.90283203125,-0.08184814453125,0.0160675048828125
1776445012873707800,17.635707763671874,-0.913238525390625,-0.0948486328125,0.0149993896484375
1776445012898724900,17.660724853515624,-1.0206756591796875,-0.09661865234375,-0.0872344970703125
1776445012923741700,17.68574169921875,-1.07989501953125,0.0237274169921875,-0.047882080078125
1776445012948758800,17.7107587890625,-1.0971832275390625,0.1813201904296875,0.103973388671875
1776445012973776000,17.73577587890625,-0.8525848388671875,0.0981597900390625,0.006195068359375
1776445012998793000,17.76079296875,-0.858734130859375,0.0024261474609375,-0.0523681640625
1776445013023809800,17.785809814453124,-0.9865875244140625,-0.07208251953125,-0.0191497802734375
1776445013048827000,17.810826904296874,-0.9390869140625,-0.2002105712890625,0.0298004150390625
1776445013073844000,17.835843994140625,-1.019134521484375,-0.2812042236328125,0.01171875
1776445013098860800,17.86086083984375,-1.0286865234375,-0.19134521484375,0.0446624755859375
1776445013123878000,17.8858779296875,-1.033447265625,-0.153900146484375,0.048797607421875
1776445013148894700,17.910894775390624,-1.0016021728515625,-0.132476806640625,0.1065826416015625
1776445013173911800,17.935911865234374,-0.9826202392578125,-0.127593994140625,0.0334930419921875
1776445013198929000,17.960928955078124,-1.0844268798828125,-0.14208984375,-0.046112060546875
1776445013223946000,17.985946044921874,-1.078125,-0.196075439453125,-0.0182037353515625
1776445013248962800,18.010962890625,-1.06787109375,-0.1862335205078125,-0.0624542236328125
1776445013273980000,18.03597998046875,-1.0048065185546875,-0.127532958984375,-0.0760498046875
1776445013298997000,18.0609970703125,-0.9904632568359375,-0.09478759765625,-0.123809814453125
1776445013324013800,18.086013916015624,-0.9553680419921875,-0.0962371826171875,-0.1505126953125
1776445013349031000,18.111031005859374,-0.987640380859375,-0.0558013916015625,-0.1031494140625
1776445013374047700,18.1360478515625,-0.9688720703125,-0.0461578369140625,-0.0663299560546875
1776445013399064800,18.16106494140625,-1.0024566650390625,-0.0454559326171875,-0.031524658203125
1776445013424082000,18.18608203125,-0.98797607421875,-0.0548553466796875,0.001983642578125
1776445013449098800,18.2110986328125,-0.958526611328125,-0.0897674560546875,0.0432586669921875
1776445013474115800,18.23611572265625,-1.0404815673828125,-0.135101318359375,0.0872039794921875
1776445013499133000,18.2611328125,-1.0324249267578125,-0.13214111328125,0.090911865234375
1776445013524150000,18.28614990234375,-1.0068206787109375,-0.132598876953125,0.027191162109375
1776445013549166800,18.311166748046876,-0.9592437744140625,-0.1466064453125,-0.0263519287109375
1776445013574184000,18.336183837890626,-0.974639892578125,-0.1666717529296875,-0.0560760498046875
1776445013599204900,18.361204833984374,-0.955169677734375,-0.1859130859375,-0.0963134765625
1776445013624221700,18.3862216796875,-0.9719085693359375,-0.1602630615234375,-0.118011474609375
1776445013649238800,18.41123876953125,-0.9511871337890625,-0.14044189453125,-0.108917236328125
1776445013674256000,18.436255859375,-0.96441650390625,-0.1242523193359375,-0.0551300048828125
1776445013699272700,18.461272705078127,-1.0290985107421875,-0.100341796875,0.01507568359375
1776445013724289500,18.48628955078125,-1.0186920166015625,-0.0895843505859375,0.0107879638671875
1776445013749306600,18.511306640625,-1.0174560546875,-0.04766845703125,0.03399658203125
1776445013774323700,18.53632373046875,-1.007965087890625,0.0006103515625,-0.0356903076171875
1776445013799340800,18.5613408203125,-0.921875,-0.035308837890625,-0.126617431640625
1776445013824357600,18.586357666015626,-0.97314453125,-0.074859619140625,-0.1543121337890625
1776445013849374700,18.611374755859377,-1.02947998046875,-0.0914154052734375,-0.1492156982421875
1776445013874391800,18.636391845703123,-1.007232666015625,-0.071044921875,-0.1922149658203125
1776445013899409000,18.661408935546874,-0.951019287109375,-0.040130615234375,-0.1232757568359375
1776445013924425700,18.68642578125,-1.0716400146484375,0.0765228271484375,-0.0534515380859375
1776445013949442600,18.711442626953126,-1.0038604736328125,-0.03692626953125,-0.175537109375
1776445013974459600,18.736459716796876,-1.007720947265625,-0.123809814453125,-0.2637176513671875
1776445013999476700,18.761476806640626,-1.016693115234375,-0.11920166015625,-0.08831787109375
1776445014024493600,18.78649365234375,-1.05670166015625,0.040435791015625,0.1062774658203125
1776445014049510700,18.8115107421875,-1.042938232421875,0.0905914306640625,0.0980987548828125
1776445014074527700,18.83652783203125,-1.0179901123046875,0.0072174072265625,-0.1508941650390625
1776445014099544800,18.861544921875,-0.9826202392578125,-0.0856170654296875,-0.2073211669921875
1776445014124561700,18.886561767578126,-1.0857696533203125,0.1447906494140625,-0.0737762451171875
1776445014149578800,18.911578857421876,-0.9898834228515625,0.233428955078125,-0.1860809326171875
1776445014174595800,18.936595947265626,-0.7986602783203125,0.23980712890625,-0.3030853271484375
1776445014199612700,18.96161279296875,-0.6261138916015625,0.2771453857421875,-0.1884307861328125
1776445014224629800,18.986629638671875,-0.93170166015625,0.2151947021484375,-0.2114715576171875
1776445014249646600,19.011646484375,-1.0034332275390625,0.039306640625,-0.2279510498046875
1776445014274663700,19.03666357421875,-0.9940032958984375,-0.074798583984375,-0.1104888916015625
1776445014299680800,19.0616806640625,-1.3343505859375,-0.0627288818359375,0.074462890625
1776445014324697900,19.08669775390625,-1.097412109375,0.0408477783203125,0.0370025634765625
1776445014349714700,19.111714599609375,-0.93707275390625,-0.028045654296875,-0.2810211181640625
1776445014374731800,19.136731689453125,-0.8886260986328125,-0.1228790283203125,-0.474456787109375
1776445014399748900,19.161748779296875,-0.9240875244140625,-0.0892791748046875,-0.41497802734375
1776445014424766000,19.186765869140626,-0.934539794921875,-0.078338623046875,-0.39654541015625
1776445014449782800,19.21178271484375,-0.9204864501953125,-0.05499267578125,-0.31536865234375
1776445014474799600,19.236799560546874,-0.94622802734375,0.06683349609375,-0.187957763671875
1776445014499816700,19.261816650390625,-0.9540557861328125,0.0627593994140625,-0.2335052490234375
1776445014524833800,19.286833740234375,-0.9354705810546875,0.0420989990234375,-0.2418212890625
1776445014549850600,19.3118505859375,-0.9678802490234375,0.11138916015625,-0.1403656005859375
1776445014574867700,19.33686767578125,-0.9910888671875,0.1064605712890625,-0.0886993408203125
1776445014599882000,19.361882080078125,-0.9504852294921875,0.164947509765625,-0.1315460205078125
1776445014624898600,19.386898681640623,-0.8685150146484375,0.0869903564453125,-0.2976226806640625
1776445014649915600,19.41191552734375,-0.9285125732421875,0.0464324951171875,-0.1390838623046875
1776445014674932700,19.4369326171875,-1.04254150390625,0.0839996337890625,0.032012939453125
1776445014699949800,19.46194970703125,-1.0358734130859375,0.1252593994140625,-0.0276641845703125
1776445014724966700,19.486966552734376,-0.958740234375,0.11016845703125,-0.085235595703125
1776445014749983700,19.511983642578127,-1.000091552734375,0.094390869140625,0.0026397705078125
1776445014775000800,19.537000732421873,-0.99688720703125,0.109893798828125,0.02374267578125
1776445014800018000,19.562017822265624,-0.9317169189453125,0.1711273193359375,-0.081512451171875
1776445014825034800,19.58703466796875,-0.8731842041015625,0.188568115234375,-0.040130615234375
1776445014850051800,19.6120517578125,-1.1220550537109375,0.168975830078125,-0.06683349609375
1776445014875068700,19.637068603515626,-1.03460693359375,0.17578125,-0.0512542724609375
1776445014900085800,19.662085693359376,-1.02362060546875,0.154205322265625,-0.0433349609375
1776445014925102600,19.6871025390625,-0.955413818359375,0.218170166015625,0.0066986083984375
1776445014950119700,19.71211962890625,-1.0276336669921875,0.2308502197265625,-0.024688720703125
1776445014975136800,19.73713671875,-0.883087158203125,0.1336822509765625,-0.164031982421875
1776445015000153900,19.76215380859375,-0.9617919921875,0.351470947265625,0.0210113525390625
1776445015025170700,19.787170654296876,-0.9265899658203125,0.3370208740234375,0.00384521484375
1776445015050187800,19.812187744140626,-0.8360595703125,0.370880126953125,-0.0845794677734375
1776445015075204900,19.837204833984377,-0.9520416259765625,0.2977752685546875,-0.1190032958984375
1776445015100222000,19.862221923828123,-0.99591064453125,0.1601409912109375,-0.09759521484375
1776445015125238800,19.88723876953125,-0.964202880859375,0.0590667724609375,-0.13751220703125
1776445015150255600,19.912255615234375,-1.031707763671875,0.11083984375,0.0284423828125
1776445015175272700,19.937272705078126,-0.9720001220703125,0.0469970703125,0.14691162109375
1776445015200289800,19.962289794921876,-1.0046539306640625,0.0369415283203125,0.20404052734375
1776445015225306600,19.987306640625,-0.9307098388671875,-0.0028228759765625,0.273193359375
1776445015250323700,20.01232373046875,-1.014068603515625,0.06939697265625,0.3932647705078125
1776445015275340800,20.0373408203125,-1.0340118408203125,0.1067047119140625,0.510406494140625
1776445015300358000,20.06235791015625,-1.0649566650390625,0.0491943359375,0.3699798583984375
1776445015325374700,20.087374755859376,-0.9622344970703125,0.0169677734375,0.163330078125
1776445015350391800,20.112391845703126,-0.856597900390625,0.053314208984375,0.0796356201171875
1776445015375409000,20.137408935546876,-0.911224365234375,0.085205078125,0.1193084716796875
1776445015400425700,20.16242578125,-0.9065399169921875,0.1068878173828125,0.15460205078125
1776445015425442800,20.18744287109375,-0.9441680908203125,0.1037139892578125,0.1787567138671875
1776445015450459600,20.212459716796875,-0.9769287109375,0.1217193603515625,0.1974334716796875
1776445015475476700,20.237476806640625,-0.9233245849609375,0.0691986083984375,0.1660919189453125
1776445015500493800,20.262493896484376,-1.090545654296875,0.1114654541015625,0.2545318603515625
1776445015525511000,20.287510986328126,-0.9180450439453125,0.1782989501953125,0.4014892578125
1776445015550527700,20.31252783203125,-0.9368133544921875,0.169281005859375,0.3998565673828125
1776445015575544800,20.337544921875,-1.0059356689453125,0.11773681640625,0.601287841796875
1776445015600566000,20.36256591796875,-1.07147216796875,0.110076904296875,0.406280517578125
1776445015625582800,20.387582763671876,-0.9261627197265625,0.1348724365234375,0.228759765625
1776445015650600000,20.412599853515626,-0.8796539306640625,0.16680908203125,0.15411376953125
1776445015675617000,20.437616943359377,-0.8861541748046875,0.1163787841796875,0.1810455322265625
1776445015700634000,20.462634033203123,-0.9644012451171875,0.0379180908203125,0.2484130859375
1776445015725651000,20.48765087890625,-0.9297943115234375,0.0375518798828125,0.2388916015625
1776445015750668000,20.51266796875,-0.892822265625,0.0576019287109375,0.295501708984375
1776445015775685000,20.53768505859375,-0.917449951171875,0.0953521728515625,0.4266510009765625
1776445015800702200,20.5627021484375,-0.983642578125,0.0890045166015625,0.4172515869140625
1776445015825718800,20.58771875,-1.037200927734375,-0.0947265625,0.1118621826171875
1776445015850735900,20.61273583984375,-0.989532470703125,-0.1309661865234375,0.223602294921875
1776445015875753000,20.6377529296875,-1.044891357421875,-0.0188140869140625,0.38604736328125
1776445015900770000,20.66277001953125,-1.0544891357421875,-0.0445098876953125,0.2401885986328125
1776445015925787000,20.687786865234376,-0.9414215087890625,-0.007568359375,0.1702423095703125
1776445015950804000,20.712803955078126,-1.0302581787109375,0.054168701171875,0.2050933837890625
1776445015975821000,20.737821044921876,-1.000732421875,0.112274169921875,0.152008056640625
1776445016000838100,20.762838134765627,-0.9203033447265625,0.1122589111328125,0.0855865478515625
1776445016025855000,20.78785498046875,-0.9911346435546875,0.144927978515625,0.1051025390625
1776445016050872000,20.8128720703125,-1.024261474609375,0.16461181640625,0.04443359375
1776445016075889000,20.837888916015626,-0.8612823486328125,0.1833953857421875,0.004150390625
1776445016100906000,20.862906005859376,-0.8896026611328125,0.197296142578125,0.0775604248046875
1776445016125922800,20.8879228515625,-1.01934814453125,0.158355712890625,0.2000274658203125
1776445016150940000,20.91293994140625,-1.0825653076171875,0.1682586669921875,0.28875732421875
1776445016175957000,20.93795703125,-1.0395965576171875,0.0725860595703125,0.3052825927734375
1776445016200974000,20.96297412109375,-1.0575408935546875,0.07818603515625,0.282501220703125
1776445016225991000,20.987990966796875,-1.075958251953125,0.1353302001953125,0.1846466064453125
1776445016251008000,21.013008056640626,-0.87939453125,0.0738372802734375,0.0395050048828125
1776445016276025000,21.038025146484376,-0.9054412841796875,0.0294342041015625,0.0393524169921875
1776445016301042200,21.063042236328126,-0.8350982666015625,-0.0866546630859375,0.0984344482421875
1776445016326059000,21.08805908203125,-1.084381103515625,-0.0609283447265625,0.252288818359375
1776445016351075800,21.113075927734375,-1.0962982177734375,-0.078125,0.276031494140625
1776445016376093000,21.138093017578125,-0.96429443359375,-0.068115234375,0.18310546875
1776445016401110000,21.163110107421875,-1.131195068359375,-0.0061492919921875,0.1651763916015625
1776445016426126800,21.188126953125,-0.744903564453125,-0.090789794921875,0.1132354736328125
1776445016451144000,21.21314404296875,-1.0242156982421875,-0.062103271484375,0.0223388671875
1776445016476161000,21.2381611328125,-0.9463043212890625,-0.0255126953125,-0.0205230712890625
1776445016501178000,21.26317822265625,-0.807525634765625,-0.0438079833984375,-0.0185699462890625
1776445016526195000,21.28819482421875,-0.8692169189453125,-0.1678466796875,0.084014892578125
1776445016551212000,21.3132119140625,-0.9264373779296875,-0.283233642578125,0.148101806640625
1776445016576229000,21.33822900390625,-1.0830078125,-0.2617034912109375,0.16058349609375
1776445016601239600,21.363239501953124,-0.9668731689453125,-0.267059326171875,0.200775146484375
1776445016626256400,21.38825634765625,-0.9365386962890625,-0.2503509521484375,0.18878173828125
1776445016651273200,21.413273193359377,-1.0113677978515625,-0.197967529296875,0.1432647705078125
1776445016676290300,21.438290283203123,-1.0205230712890625,-0.185333251953125,0.1236724853515625
1776445016701307400,21.463307373046874,-0.974029541015625,-0.19891357421875,0.0838470458984375
1776445016726324200,21.48832421875,-0.9102935791015625,-0.1685943603515625,0.0421295166015625
1776445016751341300,21.51334130859375,-1.0889434814453125,-0.1028900146484375,0.0647125244140625
1776445016776358400,21.5383583984375,-1.0276641845703125,-0.0937347412109375,0.0589752197265625
1776445016801375500,21.56337548828125,-1.353118896484375,0.0248565673828125,0.0993499755859375
1776445016826392300,21.588392333984373,-0.77325439453125,-0.1043853759765625,-0.0098876953125
1776445016851409400,21.613409423828124,-0.7738800048828125,-0.198333740234375,-0.2097625732421875
1776445016876426500,21.638426513671874,-0.968353271484375,-0.1569366455078125,-0.07464599609375
1776445016901443300,21.663443359375,-1.065216064453125,-0.159088134765625,0.0055999755859375
1776445016926460200,21.688460205078126,-1.0611724853515625,-0.2049560546875,0.0469970703125
1776445016951477200,21.713477294921876,-1.136505126953125,-0.2674407958984375,-0.0229339599609375
1776445016976494300,21.738494384765627,-1.0185394287109375,-0.23089599609375,-0.029937744140625
1776445017001511400,21.763511474609373,-0.9162139892578125,-0.1851348876953125,-0.0953826904296875
1776445017026528300,21.7885283203125,-0.9915924072265625,-0.1218719482421875,-0.1032867431640625
1776445017051545300,21.81354541015625,-0.979278564453125,-0.0550689697265625,-0.0681304931640625
1776445017076562400,21.8385625,-0.97271728515625,0.002197265625,-0.0254364013671875
1776445017101579500,21.86357958984375,-1.0282440185546875,0.025787353515625,-0.0150299072265625
1776445017126596400,21.888596435546877,-0.9215087890625,-0.0165252685546875,-0.0699310302734375
1776445017151613400,21.913613525390623,-0.9442138671875,-0.025634765625,-0.0730743408203125
1776445017176630300,21.93863037109375,-0.9255218505859375,-0.010040283203125,-0.024566650390625
1776445017201647400,21.9636474609375,-0.946319580078125,-0.0210113525390625,0.0614776611328125
1776445017226664200,21.988664306640626,-0.9739227294921875,-0.03167724609375,0.0823211669921875
1776445017251681300,22.013681396484376,-0.9419097900390625,-0.03533935546875,0.10321044921875
1776445017276698400,22.038698486328126,-0.999755859375,-0.072174072265625,0.0893096923828125
1776445017301715500,22.063715576171877,-1.012542724609375,-0.1541748046875,0.0352020263671875
1776445017326732300,22.088732177734375,-0.9612884521484375,-0.204437255859375,-0.0731658935546875
1776445017351749400,22.113749267578125,-0.86114501953125,-0.2561798095703125,-0.191925048828125
1776445017376766500,22.138766357421876,-0.932647705078125,-0.251617431640625,-0.2782440185546875
1776445017401783600,22.163783447265626,-0.980072021484375,-0.2201690673828125,-0.2476959228515625
1776445017426800000,22.188800048828124,-0.8628997802734375,-0.202850341796875,-0.2053680419921875
1776445017451817200,22.213817138671875,-0.988616943359375,-0.1286163330078125,-0.2356414794921875
1776445017476834300,22.238834228515625,-1.049224853515625,-0.0983734130859375,-0.2210540771484375
1776445017501851400,22.263851318359375,-1.006011962890625,-0.0955047607421875,-0.1959228515625
1776445017526868200,22.2888681640625,-1.009033203125,-0.1273956298828125,-0.165130615234375
1776445017551885300,22.31388525390625,-1.058013916015625,-0.1385040283203125,-0.1556549072265625
1776445017576902400,22.33890234375,-1.04400634765625,-0.1644744873046875,-0.1875457763671875
1776445017601920300,22.363920166015625,-0.96807861328125,-0.17962646484375,-0.2499542236328125
1776445017626937300,22.388937255859375,-0.9180145263671875,-0.1661376953125,-0.245025634765625
1776445017651954200,22.4139541015625,-1.0088958740234375,-0.146697998046875,-0.247833251953125
1776445017676971300,22.43897119140625,-1.0099945068359375,-0.1445770263671875,-0.277008056640625
1776445017701988000,22.463988037109374,-0.93994140625,-0.147735595703125,-0.23065185546875
1776445017727005200,22.489005126953124,-1.0309600830078125,-0.0519256591796875,-0.1281280517578125
1776445017752022300,22.514022216796874,-1.0428619384765625,-0.0181427001953125,-0.1409759521484375
1776445017777039400,22.539039306640625,-0.946319580078125,-0.115386962890625,-0.183624267578125
1776445017802056200,22.56405615234375,-0.9622650146484375,-0.1193389892578125,-0.2002716064453125
1776445017827073300,22.5890732421875,-1.0514984130859375,-0.0236663818359375,-0.133819580078125
1776445017852090400,22.61409033203125,-1.05426025390625,-0.0498504638671875,-0.1072540283203125
1776445017877107500,22.639107421875,-1.011444091796875,-0.05633544921875,-0.0672454833984375
1776445017902124300,22.664124267578124,-1.148712158203125,0.064239501953125,0.0876312255859375
1776445017927141000,22.68914111328125,-1.0118255615234375,0.1372528076171875,0.067108154296875
1776445017952158200,22.714158203125,-0.7707061767578125,0.1513214111328125,-0.01422119140625
1776445017977175300,22.73917529296875,-0.842437744140625,0.1320343017578125,-0.11407470703125
1776445018002192400,22.7641923828125,-0.9866790771484375,0.15576171875,-0.069122314453125
1776445018027209200,22.789209228515624,-1.0886383056640625,0.1512908935546875,-0.042510986328125
1776445018052226300,22.814226318359374,-0.951629638671875,0.139617919921875,-0.1454010009765625
1776445018077242400,22.839242431640624,-0.9229736328125,0.0924530029296875,-0.214324951171875
1776445018102259200,22.86425927734375,-0.9473724365234375,0.0643463134765625,-0.1680145263671875
1776445018127276300,22.8892763671875,-1.021636962890625,0.1199798583984375,-0.144012451171875
1776445018152293000,22.914293212890627,-0.9067535400390625,0.14129638671875,-0.215087890625
1776445018177310200,22.939310302734373,-0.8421173095703125,0.13104248046875,-0.224334716796875
1776445018202327300,22.964327392578124,-0.900726318359375,0.1014251708984375,-0.2383270263671875
1776445018227344400,22.989344482421874,-0.9700164794921875,0.0889892578125,-0.231048583984375
1776445018252361200,23.014361328125,-0.990875244140625,0.0970001220703125,-0.221832275390625
1776445018277378300,23.03937841796875,-1.0385894775390625,0.0736236572265625,-0.265045166015625
1776445018302395400,23.0643955078125,-0.8847808837890625,0.0401153564453125,-0.332611083984375
1776445018327412500,23.08941259765625,-0.849334716796875,0.0545196533203125,-0.5111083984375
1776445018352429300,23.11442919921875,-0.758148193359375,0.022003173828125,-0.5971221923828125
1776445018377446100,23.139446044921876,-0.8129119873046875,0.0108184814453125,-0.55438232421875
1776445018402463200,23.164463134765626,-0.9430999755859375,0.0996246337890625,-0.486236572265625
1776445018427480300,23.189480224609376,-0.8341827392578125,0.11102294921875,-0.5414581298828125
1776445018452497200,23.2144970703125,-0.7360382080078125,0.15643310546875,-0.6382904052734375
1776445018477514200,23.23951416015625,-0.64080810546875,0.0740203857421875,-0.7001190185546875
1776445018502531300,23.26453125,-0.713714599609375,0.027801513671875,-0.76519775390625
1776445018527548400,23.28954833984375,-0.76544189453125,0.070037841796875,-0.6928558349609375
1776445018552565200,23.314565185546876,-0.7429962158203125,0.1295928955078125,-0.713287353515625
1776445018577582300,23.339582275390626,-0.6388397216796875,0.147369384765625,-0.7197418212890625
1776445018602599400,23.364599365234376,-0.5915069580078125,0.1920166015625,-0.68121337890625
1776445018627616500,23.389616455078126,-0.5310211181640625,0.1810150146484375,-0.7576141357421875
1776445018652633300,23.41463330078125,-0.4604339599609375,0.12725830078125,-0.8581085205078125
1776445018677650400,23.439650390625,-0.495574951171875,0.1273956298828125,-0.8821563720703125
1776445018702667500,23.46466748046875,-0.502960205078125,0.1407470703125,-0.9185333251953125
1776445018727684600,23.4896845703125,-0.41217041015625,0.0983428955078125,-0.99053955078125
1776445018752701200,23.514701171875,-0.4099884033203125,0.0840911865234375,-0.9860382080078125
1776445018777718300,23.53971826171875,-0.448455810546875,0.079864501953125,-0.9284515380859375
1776445018802735400,23.5647353515625,-0.38653564453125,0.1305694580078125,-0.899078369140625
1776445018827752400,23.58975244140625,-0.344940185546875,0.097442626953125,-0.9662017822265625
1776445018852769300,23.614769287109375,-0.368316650390625,0.08251953125,-0.9399871826171875
1776445018877786400,23.639786376953126,-0.422027587890625,0.1720123291015625,-0.889892578125
1776445018902803500,23.664803466796876,-0.3824615478515625,0.197723388671875,-0.913787841796875
1776445018927820500,23.689820556640626,-0.3818206787109375,0.1539306640625,-0.9385833740234375
1776445018952837400,23.71483740234375,-0.3789825439453125,0.1815643310546875,-0.9185333251953125
1776445018977854500,23.7398544921875,-0.33709716796875,0.1933135986328125,-0.9561004638671875
1776445019002871600,23.76487158203125,-0.3317108154296875,0.1853485107421875,-0.942108154296875
1776445019027888400,23.789888427734375,-0.350555419921875,0.2063446044921875,-0.9217987060546875
1776445019052905200,23.8149052734375,-0.342498779296875,0.2226104736328125,-0.9222412109375
1776445019077922300,23.83992236328125,-0.341888427734375,0.21246337890625,-0.885009765625
1776445019102939400,23.864939453125,-0.3712615966796875,0.19061279296875,-0.9043121337890625
1776445019127956500,23.88995654296875,-0.353729248046875,0.1622467041015625,-0.9222564697265625
1776445019152973300,23.914973388671875,-0.3399505615234375,0.1857452392578125,-0.8966217041015625
1776445019177990400,23.939990478515625,-0.3253936767578125,0.2085113525390625,-0.8538818359375
1776445019203007500,23.965007568359376,-0.3434295654296875,0.1872100830078125,-0.9238128662109375
1776445019228024600,23.990024658203126,-0.308441162109375,0.185150146484375,-0.9644012451171875
1776445019253041400,24.01504150390625,-0.2379150390625,0.149200439453125,-0.9891204833984375
1776445019278058200,24.040058349609374,-0.2876129150390625,0.0815887451171875,-0.9118804931640625
1776445019303075300,24.065075439453125,-0.36517333984375,0.111480712890625,-0.8677978515625
1776445019328092400,24.090092529296875,-0.2787628173828125,0.0886688232421875,-0.966033935546875
1776445019353109200,24.115109130859373,-0.2501678466796875,0.0303192138671875,-0.943023681640625
1776445019378126300,24.140126220703124,-0.3065185546875,0.0318756103515625,-0.9404296875
1776445019403143400,24.165143310546874,-0.247802734375,0.1394805908203125,-0.9774627685546875
1776445019428160500,24.190160400390624,-0.076934814453125,0.126861572265625,-1.1092071533203125
1776445019453177300,24.21517724609375,-0.090057373046875,0.12841796875,-1.1807403564453125
1776445019478194400,24.2401943359375,-0.225738525390625,0.1608123779296875,-0.9967193603515625
1776445019503211500,24.26521142578125,-0.259857177734375,0.1717529296875,-0.9157257080078125
1776445019528228400,24.290228271484374,-0.0962371826171875,0.186279296875,-0.9385223388671875
1776445019553245200,24.3152451171875,-0.0888824462890625,0.2366180419921875,-0.9988861083984375
1776445019578262300,24.34026220703125,-0.0508270263671875,0.2247161865234375,-1.00982666015625
1776445019603278600,24.365278564453124,-0.0411834716796875,0.079254150390625,-1.0249481201171875
1776445019628295700,24.390295654296875,-0.075042724609375,-0.0829010009765625,-0.9933013916015625
1776445019653312800,24.415312744140625,-0.165069580078125,-0.0937347412109375,-1.0086669921875
1776445019678329600,24.44032958984375,-0.1729278564453125,-0.15679931640625,-1.06951904296875
1776445019703346700,24.4653466796875,-0.2176666259765625,-0.112457275390625,-1.0480804443359375
1776445019728363800,24.49036376953125,-0.120086669921875,-0.15301513671875,-1.0177001953125
1776445019753380900,24.515380859375,-0.3144683837890625,-0.0115509033203125,-0.9000244140625
1776445019778397000,24.54039697265625,-0.369842529296875,0.056304931640625,-0.877105712890625
1776445019803413500,24.56541357421875,-0.346527099609375,0.11834716796875,-0.89324951171875
1776445019828430600,24.5904306640625,-0.315765380859375,0.1257171630859375,-0.9248504638671875
1776445019853447700,24.61544775390625,-0.319976806640625,0.174224853515625,-0.9332427978515625
1776445019878464800,24.64046484375,-0.3397674560546875,0.3067779541015625,-0.9055023193359375
1776445019903481600,24.665481689453124,-0.2201385498046875,0.2937469482421875,-0.849700927734375
1776445019928498700,24.690498779296874,-0.1591033935546875,0.3309326171875,-0.9051055908203125
1776445019953515800,24.715515869140624,-0.0962982177734375,0.283935546875,-0.9745635986328125
1776445019978532900,24.740532958984375,-0.041961669921875,0.153350830078125,-0.966278076171875
1776445020003549700,24.7655498046875,-0.2518157958984375,0.2200469970703125,-0.9223480224609375
1776445020028566800,24.79056689453125,-0.418182373046875,0.2795257568359375,-1.03778076171875
1776445020053583600,24.81558349609375,-0.0031585693359375,0.2959442138671875,-1.05938720703125
1776445020078600700,24.8406005859375,0.0323638916015625,0.208282470703125,-1.0376739501953125
1776445020103617800,24.86561767578125,-0.2051239013671875,0.13555908203125,-1.013763427734375
1776445020128634600,24.890634521484376,-0.10467529296875,0.0750885009765625,-0.9267578125
1776445020153651700,24.915651611328126,-0.601287841796875,0.1515350341796875,-0.937347412109375
1776445020178668800,24.940668701171877,-0.31011962890625,0.093292236328125,-0.849609375
1776445020203686000,24.965685791015623,-0.2066650390625,0.0446319580078125,-0.963226318359375
1776445020228702700,24.99070263671875,-0.2794952392578125,0.14453125,-1.112396240234375
1776445020253719800,25.0157197265625,-0.202117919921875,0.1806640625,-1.0667724609375
1776445020278737000,25.04073681640625,-0.3820648193359375,0.3273773193359375,-0.836181640625
1776445020303753700,25.065753662109376,-0.3301849365234375,0.1649169921875,-0.7624053955078125
1776445020328770600,25.0907705078125,-0.2315826416015625,0.29315185546875,-0.88507080078125
1776445020353787600,25.11578759765625,0.0580291748046875,0.3697357177734375,-1.04486083984375
1776445020378804700,25.1408046875,0.101043701171875,0.2694549560546875,-1.061859130859375
1776445020403821800,25.16582177734375,-0.100494384765625,0.378997802734375,-0.85986328125
1776445020428838700,25.190838623046876,-0.207122802734375,0.2975006103515625,-0.8172607421875
1776445020453855700,25.215855712890626,-0.2877960205078125,0.2414093017578125,-0.83563232421875
1776445020478872800,25.240872802734376,-0.154876708984375,0.27972412109375,-0.80364990234375
1776445020503890000,25.265889892578127,-0.0784454345703125,0.3005828857421875,-0.9574127197265625
1776445020528906800,25.29090673828125,-0.0616607666015625,0.276824951171875,-1.0100860595703125
1776445020553922600,25.315922607421875,-0.150177001953125,0.21087646484375,-0.9625701904296875
1776445020578939600,25.340939697265625,-0.294525146484375,0.2696075439453125,-0.8345489501953125
1776445020603957200,25.365957275390624,-0.2191162109375,0.30572509765625,-0.8435516357421875
1776445020628974000,25.39097412109375,-0.15167236328125,0.2943267822265625,-0.9666900634765625
1776445020653991200,25.4159912109375,-0.3704681396484375,0.2480621337890625,-0.9459686279296875
1776445020679008300,25.44100830078125,-0.3586273193359375,0.3308258056640625,-0.85052490234375
1776445020704025300,25.466025390625,-0.299224853515625,0.376312255859375,-0.851287841796875
1776445020729042200,25.491042236328123,-0.3726043701171875,0.2940826416015625,-0.8632049560546875
1776445020754059000,25.51605908203125,-0.477020263671875,0.2281951904296875,-0.9430389404296875
1776445020779076000,25.541076171875,-0.25390625,0.3212127685546875,-0.9335784912109375
1776445020804093200,25.56609326171875,-0.102691650390625,0.352447509765625,-0.9676971435546875
1776445020829110300,25.5911103515625,-0.215545654296875,0.2140045166015625,-1.0314178466796875
1776445020854127000,25.616127197265627,-0.30096435546875,0.28070068359375,-1.039398193359375
1776445020879144200,25.641144287109373,-0.2190093994140625,0.21917724609375,-1.0489044189453125
1776445020904161300,25.666161376953124,-0.155609130859375,0.2961578369140625,-0.9308624267578125
1776445020929178000,25.69117822265625,-0.196075439453125,0.3002777099609375,-0.8607025146484375
1776445020954195200,25.7161953125,-0.1887054443359375,0.29595947265625,-0.900390625
1776445020979212000,25.7412119140625,-0.0703582763671875,0.214111328125,-0.9559783935546875
1776445021004229000,25.76622900390625,-0.160369873046875,0.2076568603515625,-0.9687957763671875
1776445021029246200,25.79124609375,-0.16339111328125,0.1823272705078125,-0.8805389404296875
1776445021054263000,25.816262939453125,-0.2652435302734375,0.190887451171875,-0.9633026123046875
1776445021079280000,25.841280029296875,-0.251312255859375,0.1534576416015625,-0.9371795654296875
1776445021104297200,25.866297119140626,-0.1021728515625,0.2102813720703125,-0.918853759765625
1776445021129314300,25.891314208984376,-0.159149169921875,0.25567626953125,-0.8848876953125
1776445021154331100,25.9163310546875,-0.23321533203125,0.1612701416015625,-0.990875244140625
1776445021179348200,25.94134814453125,-0.1900787353515625,0.2436981201171875,-1.0289459228515625
1776445021204365300,25.966365234375,-0.112396240234375,0.04107666015625,-1.0587310791015625
1776445021229382100,25.991382080078125,-0.1973419189453125,0.175323486328125,-0.955078125
1776445021254399000,26.01639892578125,-0.215423583984375,0.225860595703125,-0.9508209228515625
1776445021279416000,26.041416015625,-0.0954437255859375,0.1244354248046875,-1.140472412109375
1776445021304433200,26.06643310546875,-0.1786346435546875,0.1457977294921875,-1.0674591064453125
1776445021329449200,26.09144921875,-0.2975616455078125,0.21240234375,-1.053375244140625
1776445021354466300,26.11646630859375,-0.2743682861328125,0.1768035888671875,-0.949127197265625
1776445021379483100,26.141483154296875,-0.334014892578125,0.2080841064453125,-0.877960205078125
1776445021404500200,26.166500244140625,-0.2369842529296875,0.1927337646484375,-0.9774017333984375
1776445021429517300,26.191517333984375,-0.3619537353515625,0.1486053466796875,-0.9585723876953125
1776445021454534100,26.2165341796875,-0.348419189453125,0.148956298828125,-0.9525909423828125
1776445021479551000,26.241551025390624,-0.217681884765625,0.14892578125,-0.8791046142578125
1776445021504568000,26.266568115234374,-0.280975341796875,0.1726531982421875,-0.9280853271484375
1776445021529585200,26.291585205078125,-0.2204437255859375,0.047149658203125,-1.032318115234375
1776445021554602200,26.316602294921875,-0.0923919677734375,0.2122802734375,-0.844696044921875
1776445021579619000,26.341619140625,-0.1542510986328125,0.4281158447265625,-0.9105377197265625
1776445021604635600,26.3666357421875,-0.04632568359375,0.1947021484375,-0.96893310546875
1776445021629652700,26.39165283203125,-0.0945281982421875,0.1824493408203125,-0.9806060791015625
1776445021654669800,26.416669921875,-0.356231689453125,0.213958740234375,-1.044952392578125
1776445021679687000,26.44168701171875,-0.388336181640625,0.186492919921875,-0.9668121337890625
1776445021704703700,26.466703857421876,-0.345733642578125,0.0802154541015625,-0.9766693115234375
1776445021729720800,26.491720947265627,-0.5946044921875,0.04058837890625,-1.0047149658203125
1776445021754737700,26.516737548828125,-0.629913330078125,0.052703857421875,-0.99530029296875
1776445021779754800,26.541754638671875,-0.38189697265625,0.176361083984375,-0.9213409423828125
1776445021804771600,26.566771484375,-0.305206298828125,0.1646575927734375,-0.891632080078125
1776445021829788700,26.59178857421875,-0.16571044921875,0.2368927001953125,-0.865386962890625
1776445021854805800,26.6168056640625,-0.392425537109375,0.19500732421875,-1.038421630859375
1776445021879822800,26.64182275390625,-0.1488800048828125,0.258392333984375,-0.9573974609375
1776445021904839700,26.666839599609375,-0.3872222900390625,0.2177734375,-0.8794708251953125
1776445021929856800,26.691856689453125,-0.4462738037109375,0.19451904296875,-0.896636962890625
1776445021954873900,26.716873779296876,-0.357452392578125,0.2651519775390625,-0.8433380126953125
1776445021979891000,26.741890869140626,-0.2591094970703125,0.498016357421875,-0.6876678466796875
1776445022004907800,26.76690771484375,-0.2284088134765625,0.4136810302734375,-0.7517242431640625
1776445022029923600,26.791923583984374,-0.3091888427734375,0.295440673828125,-0.92138671875
1776445022054940700,26.816940673828125,-0.2133941650390625,0.2542724609375,-0.992889404296875
1776445022079957800,26.841957763671875,-0.164825439453125,0.101837158203125,-1.0271148681640625
1776445022104974800,26.866974853515625,-0.1413421630859375,0.2656402587890625,-0.84552001953125
1776445022129991700,26.89199169921875,-0.316680908203125,0.1735992431640625,-0.8422393798828125
1776445022155008800,26.9170087890625,-0.2522125244140625,0.316253662109375,-1.06719970703125
1776445022180025900,26.94202587890625,0.1179046630859375,0.1695709228515625,-0.98846435546875
1776445022205043000,26.96704296875,-0.05938720703125,0.2963714599609375,-1.1015167236328125
1776445022230059500,26.9920595703125,-0.09039306640625,0.357330322265625,-1.0181732177734375
1776445022255076600,27.01707666015625,-0.224639892578125,0.35400390625,-0.899505615234375
1776445022280093700,27.04209375,-0.08685302734375,0.3251953125,-0.8613128662109375
1776445022305110800,27.06711083984375,-0.1117401123046875,0.49365234375,-0.855712890625
1776445022330127600,27.092127685546874,-0.0107269287109375,0.551116943359375,-0.75225830078125
1776445022355144700,27.117144775390624,0.1803436279296875,0.6002044677734375,-0.729888916015625
1776445022380161800,27.142161865234375,-0.0343017578125,0.74945068359375,-0.7537841796875
1776445022405179000,27.167178955078125,-0.107696533203125,0.66937255859375,-0.7147979736328125
1776445022430195700,27.19219580078125,-0.1901397705078125,0.479583740234375,-0.831024169921875
1776445022455212800,27.217212890625,0.005096435546875,0.425689697265625,-0.9365081787109375
1776445022480229600,27.242229736328124,-0.1214447021484375,0.467315673828125,-0.9761199951171875
1776445022505246700,27.267246826171874,-0.1027069091796875,0.4418487548828125,-0.9110260009765625
1776445022530263600,27.292263671875,-0.110260009765625,0.3919219970703125,-0.8730010986328125
1776445022555280600,27.31728076171875,-0.1704254150390625,0.454132080078125,-0.938262939453125
1776445022580297700,27.342297607421877,-0.276123046875,0.455322265625,-0.8614501953125
1776445022605315300,27.3673154296875,-0.19049072265625,0.466583251953125,-0.7504730224609375
1776445022630332000,27.392331787109374,-0.240753173828125,0.5990142822265625,-0.8056182861328125
1776445022655348000,27.417347900390624,-0.2339630126953125,0.4448699951171875,-0.779144287109375
1776445022680365000,27.442364990234374,-0.347564697265625,0.43359375,-0.7767181396484375
1776445022705382100,27.467382080078124,-0.616363525390625,0.352447509765625,-0.9203338623046875
1776445022730399200,27.492399169921875,-0.45953369140625,0.3661651611328125,-0.8682403564453125
1776445022755416000,27.517416015625,-0.3515625,0.4395751953125,-0.766876220703125
1776445022780433200,27.54243310546875,-0.328369140625,0.4593353271484375,-0.835784912109375
1776445022805450200,27.5674501953125,-0.262054443359375,0.404388427734375,-0.8629608154296875
1776445022830467300,27.59246728515625,-0.3527069091796875,0.4821624755859375,-0.8874053955078125
1776445022855484000,27.61748388671875,-0.04656982421875,0.46240234375,-0.9643707275390625
1776445022880501000,27.6425009765625,-0.33184814453125,0.4427032470703125,-0.85302734375
1776445022905518000,27.66751806640625,-0.5838165283203125,0.3260955810546875,-0.758453369140625
1776445022930535200,27.69253515625,-0.687225341796875,0.1558074951171875,-0.900390625
1776445022955552000,27.717552001953123,-0.7664031982421875,0.232818603515625,-0.8431854248046875
1776445022980569000,27.742569091796874,-0.6226806640625,0.360198974609375,-0.7908172607421875
1776445023005586200,27.767586181640624,-0.286376953125,0.4152679443359375,-0.893280029296875
1776445023030603300,27.792603271484374,-0.2272796630859375,0.4844512939453125,-0.8686676025390625
1776445023055620000,27.8176201171875,-0.2685089111328125,0.5478515625,-0.7962799072265625
1776445023080637200,27.84263720703125,-0.2936553955078125,0.4338836669921875,-0.726654052734375
1776445023105654000,27.867654052734373,-0.47589111328125,0.3306884765625,-0.6936492919921875
1776445023130671000,27.892671142578124,-0.6051788330078125,0.341033935546875,-0.6700439453125
1776445023155688000,27.91768798828125,-0.602325439453125,0.358612060546875,-0.7060546875
1776445023180705000,27.942705078125,-0.2888641357421875,0.3307342529296875,-0.8374176025390625
1776445023205722000,27.96772216796875,-0.4021759033203125,0.3091583251953125,-0.814300537109375
1776445023230739200,27.9927392578125,-0.530029296875,0.3072052001953125,-0.7380523681640625
1776445023255756000,28.017756103515627,-0.59442138671875,0.3890380859375,-0.720947265625
1776445023280773000,28.042773193359373,-0.3661041259765625,0.3820648193359375,-0.70648193359375
1776445023305790200,28.067790283203124,-0.4265899658203125,0.3101959228515625,-0.8279571533203125
1776445023330807300,28.092807373046874,-0.564605712890625,0.234161376953125,-0.8411865234375
1776445023355823000,28.117822998046876,-0.457733154296875,0.1959075927734375,-0.8453369140625
1776445023380840000,28.14283984375,-0.4019012451171875,0.1950225830078125,-0.9318084716796875
1776445023405857000,28.16785693359375,-0.3877716064453125,0.1392364501953125,-0.9392547607421875
1776445023430874000,28.1928740234375,-0.5485687255859375,0.1937408447265625,-0.903717041015625
1776445023455891200,28.21789111328125,-0.3822479248046875,0.1844482421875,-0.864227294921875
1776445023480908000,28.242907958984375,-0.343505859375,0.150177001953125,-0.935577392578125
1776445023505925000,28.267925048828126,-0.615386962890625,0.1495513916015625,-0.81365966796875
1776445023530942200,28.292942138671876,-0.6562652587890625,0.1938323974609375,-0.7974700927734375
1776445023555959300,28.317959228515626,-0.5269775390625,0.168548583984375,-0.8515625
1776445023580976000,28.34297607421875,-0.6554107666015625,0.089996337890625,-0.81231689453125
1776445023605992400,28.367992431640626,-0.8109130859375,0.131866455078125,-0.76385498046875
1776445023631009500,28.393009521484377,-0.5388031005859375,0.1705322265625,-0.797119140625
1776445023656026600,28.418026611328123,-0.5016937255859375,0.1993865966796875,-0.839080810546875
1776445023681043700,28.443043701171874,-0.6143951416015625,0.097564697265625,-0.8062744140625
1776445023706060500,28.468060546875,-0.864898681640625,0.1787567138671875,-0.691253662109375
1776445023731077600,28.49307763671875,-0.460540771484375,0.2672271728515625,-0.8421478271484375
1776445023756094700,28.5180947265625,-0.43548583984375,0.287353515625,-0.740234375
1776445023781111800,28.54311181640625,-0.6379241943359375,0.214202880859375,-0.665283203125
1776445023806128600,28.568128662109373,-0.6654052734375,0.180389404296875,-0.671051025390625
1776445023831145700,28.593145751953124,-0.5409088134765625,0.2336883544921875,-0.86956787109375
1776445023856162600,28.61816259765625,-0.56903076171875,0.1860198974609375,-0.7823333740234375
1776445023881178600,28.6431787109375,-0.650970458984375,0.1213531494140625,-0.736419677734375
1776445023906195700,28.66819580078125,-0.678955078125,0.098480224609375,-0.5647430419921875
1776445023931212500,28.693212646484376,-0.7067718505859375,0.0337066650390625,-0.6285247802734375
1776445023956229600,28.718229736328126,-0.7772064208984375,0.105224609375,-0.6443328857421875
1776445023981246700,28.743246826171877,-0.787841796875,0.0200653076171875,-0.6136627197265625
1776445024006263800,28.768263916015623,-0.9097747802734375,-0.0360565185546875,-0.4930267333984375
1776445024031280600,28.79328076171875,-1.158935546875,-0.2253875732421875,-0.472747802734375
1776445024056297500,28.81829736328125,-1.0338134765625,-0.2428436279296875,-0.4503631591796875
1776445024081314600,28.843314453125,-0.8744659423828125,-0.151580810546875,-0.5025482177734375
1776445024106331600,28.86833154296875,-0.787872314453125,-0.0299530029296875,-0.6859588623046875
1776445024131348700,28.8933486328125,-0.5664825439453125,-0.026580810546875,-0.7927398681640625
1776445024156365600,28.918365478515625,-0.5800018310546875,0.113006591796875,-0.5786895751953125
1776445024181382700,28.943382568359375,-0.71148681640625,0.17388916015625,-0.5951690673828125
1776445024206399700,28.968399658203126,-0.82562255859375,0.1258392333984375,-0.6616973876953125
1776445024231416600,28.99341650390625,-0.7979583740234375,0.059722900390625,-0.6921539306640625
1776445024256433700,29.01843359375,-0.7183990478515625,0.022064208984375,-0.69677734375
1776445024281449500,29.043449462890624,-0.717041015625,-0.0527191162109375,-0.6502685546875
1776445024306466600,29.068466552734375,-0.8604888916015625,-0.1434783935546875,-0.61138916015625
1776445024331483600,29.093483642578125,-0.8723907470703125,-0.1265106201171875,-0.622589111328125
1776445024356500700,29.118500732421875,-0.7739715576171875,-0.100067138671875,-0.65570068359375
1776445024381517600,29.143517578125,-0.72552490234375,-0.0979766845703125,-0.6396331787109375
1776445024406534700,29.16853466796875,-0.7309417724609375,-0.01885986328125,-0.7056427001953125
1776445024431551700,29.1935517578125,-0.7115936279296875,0.110595703125,-0.988800048828125
1776445024456568800,29.21856884765625,-0.1336517333984375,-0.1501617431640625,-0.964599609375
1776445024481585700,29.243585693359375,-0.5355072021484375,-0.252593994140625,-0.9105682373046875
1776445024506602800,29.268602783203125,-0.800689697265625,-0.15020751953125,-0.6343994140625
1776445024531619600,29.29361962890625,-0.8510894775390625,-0.0443878173828125,-0.4239654541015625
1776445024556636700,29.31863671875,-0.98187255859375,0.0135650634765625,-0.36712646484375
1776445024581653500,29.343653564453124,-0.8790130615234375,-0.0111083984375,-0.481597900390625
1776445024606674200,29.368674072265627,-0.8072967529296875,-0.0372467041015625,-0.67578125
1776445024631691300,29.393691162109373,-0.719879150390625,-0.0493011474609375,-0.7511444091796875
1776445024656708400,29.418708251953124,-0.667755126953125,-0.045318603515625,-0.7709503173828125
1776445024681725200,29.44372509765625,-0.61981201171875,-0.082855224609375,-0.784393310546875
1776445024706742300,29.4687421875,-0.637969970703125,-0.0938568115234375,-0.71875
1776445024731759400,29.49375927734375,-0.7541656494140625,-0.14727783203125,-0.7408599853515625
1776445024756776400,29.5187763671875,-0.6759490966796875,-0.2199859619140625,-0.780303955078125
1776445024781792300,29.543792236328127,-0.6824951171875,-0.1930999755859375,-0.7760467529296875
1776445024806809000,29.56880908203125,-0.60516357421875,-0.2114105224609375,-0.7713623046875
1776445024831826200,29.593826171875,-0.6086273193359375,-0.1828765869140625,-0.784637451171875
1776445024856843300,29.61884326171875,-0.605926513671875,-0.2086334228515625,-0.7984771728515625
1776445024881860400,29.6438603515625,-0.6840667724609375,-0.1725006103515625,-0.775421142578125
1776445024906877200,29.668877197265626,-0.7546539306640625,-0.03912353515625,-0.6822662353515625
1776445024931894300,29.693894287109377,-0.6856536865234375,-0.049407958984375,-0.7180023193359375
1776445024956911400,29.718911376953123,-0.5970611572265625,-0.0771636962890625,-0.73974609375
1776445024981928400,29.743928466796874,-0.6380767822265625,-0.134796142578125,-0.78155517578125
1776445025006945300,29.7689453125,-0.6156158447265625,-0.1745452880859375,-0.8303680419921875
1776445025031962400,29.79396240234375,-0.52459716796875,-0.1727752685546875,-0.8132781982421875
1776445025056979200,29.818979248046876,-0.5540924072265625,-0.202789306640625,-0.7099151611328125
1776445025081996300,29.843996337890626,-0.68017578125,-0.1710205078125,-0.7229766845703125
1776445025107013000,29.86901318359375,-0.484161376953125,-0.240936279296875,-0.7192535400390625
1776445025132030200,29.8940302734375,-0.589935302734375,-0.2837677001953125,-0.7047576904296875
1776445025157047300,29.91904736328125,-0.7034454345703125,-0.2946319580078125,-0.700714111328125
1776445025182064400,29.944064453125,-0.5782470703125,-0.2720794677734375,-0.75714111328125
1776445025207081200,29.969081298828126,-0.43017578125,-0.384674072265625,-0.8134613037109375
1776445025232098300,29.994098388671876,-0.553466796875,-0.4129180908203125,-0.76239013671875
1776445025257115400,30.019115478515626,-0.6243438720703125,-0.4094696044921875,-0.6994476318359375
1776445025282131200,30.044131103515625,-0.4854736328125,-0.491668701171875,-0.7434234619140625
1776445025307148300,30.069148193359375,-0.552276611328125,-0.477447509765625,-0.7458648681640625
1776445025332165000,30.0941650390625,-0.4477691650390625,-0.45989990234375,-0.769927978515625
1776445025357182200,30.11918212890625,-0.2945709228515625,-0.5554962158203125,-0.911865234375
1776445025382199300,30.14419921875,-0.2828521728515625,-0.5511627197265625,-0.79144287109375
1776445025407216400,30.16921630859375,-0.4109344482421875,-0.5412750244140625,-0.7424163818359375
1776445025432233200,30.194233154296874,-0.3224334716796875,-0.606536865234375,-0.8284149169921875
1776445025457250300,30.219250244140625,-0.177154541015625,-0.6551666259765625,-0.8772430419921875
1776445025482267400,30.244267333984375,-0.23760986328125,-0.607208251953125,-0.843505859375
1776445025507284200,30.2692841796875,-0.1542816162109375,-0.59124755859375,-0.8549957275390625
1776445025532301300,30.29430126953125,-0.105316162109375,-0.531402587890625,-0.8782958984375
1776445025557318100,30.319318115234374,-0.0948333740234375,-0.401123046875,-0.94549560546875
1776445025582335200,30.344335205078124,0.018798828125,-0.365386962890625,-0.9559173583984375
1776445025607348500,30.369348388671874,-0.032806396484375,-0.351104736328125,-0.929412841796875
1776445025632365600,30.394365478515624,-0.0945281982421875,-0.307769775390625,-0.911102294921875
1776445025657382100,30.419382080078126,-0.039947509765625,-0.2664947509765625,-0.893585205078125
1776445025682399200,30.444399169921876,-0.047210693359375,-0.20281982421875,-0.9167022705078125
1776445025707416300,30.469416259765627,0.03924560546875,-0.1719207763671875,-0.95318603515625
1776445025732432400,30.494432373046877,0.1043243408203125,-0.140472412109375,-0.9774017333984375
1776445025757449500,30.519449462890623,0.0617828369140625,-0.1754608154296875,-0.9539794921875
1776445025782466300,30.54446630859375,-0.0041351318359375,-0.1620941162109375,-0.9170989990234375
1776445025807483400,30.5694833984375,0.055999755859375,-0.145782470703125,-0.9360198974609375
1776445025832500500,30.59450048828125,0.0397186279296875,-0.089202880859375,-0.9085693359375
1776445025857517300,30.619517333984376,0.0268402099609375,-0.1060333251953125,-0.9004669189453125
1776445025882534100,30.6445341796875,0.048431396484375,-0.0944366455078125,-0.955047607421875
1776445025907551200,30.66955126953125,0.073760986328125,-0.049896240234375,-0.9272308349609375
1776445025932568300,30.694568359375,0.15191650390625,0.0264434814453125,-0.91595458984375
1776445025957585400,30.71958544921875,0.15582275390625,0.0553131103515625,-0.9979095458984375
1776445025982602200,30.744602294921876,0.03656005859375,-0.0244903564453125,-0.996490478515625
1776445026007619300,30.769619384765626,0.1250457763671875,-0.027191162109375,-0.9803009033203125
1776445026032636400,30.794636474609376,0.0018310546875,0.0681304931640625,-0.9150390625
1776445026057653500,30.819653564453127,0.1248321533203125,0.131072998046875,-0.9128570556640625
1776445026082670300,30.84467041015625,0.3830413818359375,0.317138671875,-1.016204833984375
1776445026107687400,30.8696875,0.3276214599609375,0.2803497314453125,-0.95953369140625
1776445026132704300,30.894704345703126,0.1656036376953125,0.1848602294921875,-0.9456939697265625
1776445026157721300,30.919721435546876,0.2224578857421875,0.0820465087890625,-0.972625732421875
1776445026182738400,30.944738525390626,0.1822662353515625,0.118896484375,-0.9951019287109375
1776445026207754500,30.96975439453125,0.278350830078125,0.096832275390625,-0.87054443359375
1776445026232771300,30.994771240234375,0.2955322265625,0.1591644287109375,-0.88153076171875
1776445026257788400,31.019788330078125,0.3987274169921875,0.096771240234375,-0.897979736328125
1776445026282805500,31.044805419921875,0.274505615234375,0.0884246826171875,-1.0209808349609375
1776445026307822600,31.069822509765626,0.3107757568359375,0.0487213134765625,-1.001373291015625
1776445026332839200,31.094839111328124,0.4344635009765625,0.0425567626953125,-1.003082275390625
1776445026357856300,31.119856201171874,0.5271453857421875,0.04046630859375,-1.078033447265625
1776445026382873300,31.144873291015625,0.3901519775390625,0.0009307861328125,-1.06964111328125
1776445026407890400,31.169890380859375,0.197906494140625,0.014801025390625,-1.0311279296875
1776445026432907300,31.1949072265625,0.2180633544921875,0.1259918212890625,-0.8920745849609375
1776445026457924400,31.21992431640625,0.2432403564453125,0.215179443359375,-0.8756103515625
1776445026482941400,31.24494140625,0.1256256103515625,0.2998809814453125,-0.9235382080078125
1776445026507958500,31.26995849609375,0.116180419921875,0.2711944580078125,-0.9190673828125
1776445026532975400,31.294975341796874,0.1234130859375,0.2454681396484375,-0.9271087646484375
1776445026557992400,31.319992431640625,0.1990203857421875,0.2254638671875,-0.967132568359375
1776445026583009300,31.34500927734375,0.3782196044921875,0.256317138671875,-1.0682830810546875
1776445026608026600,31.370026611328125,0.2331695556640625,0.096893310546875,-1.05078125
1776445026633042700,31.395042724609375,0.187408447265625,0.10833740234375,-1.0402679443359375
1776445026658059800,31.420059814453126,0.1836395263671875,0.051116943359375,-1.005706787109375
1776445026683076600,31.44507666015625,0.261260986328125,0.2325897216796875,-1.0805206298828125
1776445026708093700,31.47009375,0.1458892822265625,0.2222442626953125,-0.9894561767578125
1776445026733110800,31.49511083984375,-0.020843505859375,0.2737884521484375,-0.917205810546875
1776445026758127600,31.520127685546875,-0.1519927978515625,0.32220458984375,-0.8809051513671875
1776445026783144700,31.545144775390625,0.0418853759765625,0.4844970703125,-0.8399658203125
1776445026808161800,31.570161865234375,-0.137908935546875,0.5414276123046875,-0.7891845703125
1776445026833179000,31.595178955078126,-0.342559814453125,0.4820404052734375,-0.70892333984375
1776445026858195700,31.62019580078125,-0.4256744384765625,0.4876861572265625,-0.7123260498046875
1776445026883212800,31.645212890625,-0.4292755126953125,0.4770965576171875,-0.7931671142578125
1776445026908230000,31.67022998046875,-0.293853759765625,0.370025634765625,-0.8504486083984375
1776445026933247000,31.6952470703125,-0.297454833984375,0.3247222900390625,-1.022552490234375
1776445026958263600,31.720263671875,-0.2169952392578125,0.4223480224609375,-0.9355621337890625
1776445026983280600,31.74528076171875,-0.419036865234375,0.4876708984375,-0.7307281494140625
1776445027008297700,31.770297607421874,-0.38507080078125,0.3885955810546875,-0.7373809814453125
1776445027033314800,31.795314697265624,-0.3868865966796875,0.4205322265625,-0.8856353759765625
1776445027058331000,31.820330810546874,-0.298675537109375,0.44818115234375,-0.8540191650390625
1776445027083347700,31.84534765625,-0.492279052734375,0.353668212890625,-0.777618408203125
1776445027108364800,31.87036474609375,-0.5247344970703125,0.236572265625,-0.8778533935546875
1776445027133382000,31.8953818359375,-0.6039581298828125,0.220703125,-0.8791961669921875
1776445027158398700,31.920398681640624,-0.4235076904296875,0.33917236328125,-0.86663818359375
1776445027183415600,31.94541552734375,-0.379669189453125,0.3408203125,-0.865234375
1776445027208432600,31.9704326171875,-0.3443603515625,0.3947906494140625,-0.844635009765625
1776445027233449700,31.99544970703125,-0.3578033447265625,0.4718780517578125,-0.7926025390625
1776445027258466800,32.020466796875,-0.359039306640625,0.5083160400390625,-0.832366943359375
1776445027283483600,32.04548364257813,-0.2632598876953125,0.468505859375,-0.751800537109375
1776445027308500700,32.07050073242188,-0.458984375,0.48883056640625,-0.7298736572265625
1776445027333517800,32.09551782226563,-0.4355010986328125,0.501312255859375,-0.8129119873046875
1776445027358535000,32.12053491210938,-0.307373046875,0.4495697021484375,-0.9380950927734375
1776445027383551700,32.1455517578125,-0.3900299072265625,0.5072021484375,-0.8856048583984375
