time,seconds_elapsed,z,y,x
1776444995368042800,0.130042724609375,-0.13639642939269542,-0.8079139540303498,-0.3668728990394622
1776444995393059600,0.1550595703125,0.17683365372121332,-0.49280379279088227,-0.2490423461679369
1776444995418076400,0.180076416015625,0.41331718176305293,-0.6851915374640375,-0.5987167115166783
1776444995443093500,0.205093505859375,0.34655659865438937,-0.8315474892046302,-0.7546766501657665
1776444995468110600,0.230110595703125,0.17594459592700004,-0.7534902899254113,-0.7016800962544977
1776444995493127700,0.255127685546875,0.19935119047760963,-0.6005988720014691,-0.29313036635527384
1776444995518144500,0.28014453125,0.2514712538152933,-0.5421964404586702,-0.18978410151340067
1776444995543161600,0.30516162109375,0.726017103523016,-0.15136848267298192,0.48229149539843197
1776444995568179000,0.330178955078125,0.6502005227774381,0.3367314067432657,0.5293200808160007
1776444995593194800,0.35519482421875,0.5900619881570339,0.2836582439318299,1.1228939495515078
1776444995618211800,0.3802119140625,-0.19155249942541122,-0.019610672866366804,1.2405923274107276
1776444995643228700,0.405228759765625,-1.045675173857808,-0.20997381637673823,1.852000470457226
1776444995668245800,0.430245849609375,-0.47105508498251436,0.26104086353015155,2.031949771980941
1776444995693262800,0.455262939453125,-1.559411462703347,0.15102945997696368,1.4081889278396964
1776444995718280000,0.480280029296875,-0.17800328202247617,0.36819983679428697,0.8169781349737196
1776444995743296800,0.505296875,0.04209492840766906,0.020742672570981086,0.15742372759133577
1776444995768313900,0.53031396484375,-0.1266682315826416,-0.5002609038637951,-0.2540785137042403
1776444995793330700,0.55533056640625,-0.5257897147327661,-0.29295111906453963,-0.6475592144884169
1776444995818347800,0.58034765625,0.020252514433860776,0.08047470874972641,-0.4987961285408586
1776444995843364600,0.605364501953125,-0.7681839281231164,0.8905718520380556,0.31926048585195094
1776444995868381700,0.630381591796875,-0.7610410706311463,-0.14771481900364158,-0.3849410186389461
1776444995893398800,0.655398681640625,-0.17709551952779293,-0.39096177676580846,-0.38631270885095
1776444995918416000,0.680415771484375,0.5803782140105962,0.5549230894323438,0.33712369399648157
1776444995943432700,0.7054326171875,0.3175666510134935,0.7683480326436459,0.3582944557864219
1776444995968449800,0.73044970703125,0.1960720226764679,0.0719361591156572,-0.15645491909179834
1776444995993467000,0.755466796875,0.36832887000143527,-0.6131150930948555,-0.9883105609301477
1776444996018484000,0.78048388671875,0.5963204640299081,-0.40767581487521526,-0.7188385171305388
1776444996043500500,0.80550048828125,0.6197562846750021,0.446861504772678,-0.014273750551510601
1776444996068517600,0.830517578125,0.2325181315422058,0.5438689767807722,0.31438948228210206
1776444996093534700,0.85553466796875,0.20563012461662292,-0.14331621871851383,-0.29472159933578224
1776444996118551800,0.8805517578125,0.1596943028718233,-0.13923947079889476,-0.43437257354501635
1776444996143568600,0.905568603515625,-0.2816816831618547,0.23168146152235566,0.3775246049026027
1776444996168585700,0.930585693359375,-0.2919388732820749,0.4265353405807167,0.3557689924294129
1776444996193602800,0.955602783203125,0.27282676105499265,0.23801461006663738,0.13130118861291556
1776444996218620000,0.980619873046875,0.4711515310943126,-0.018603066726401447,0.0898381649006158
1776444996243636700,1.00563671875,0.24224866743981838,0.07012647934518754,-0.5373306245205923
1776444996268653800,1.03065380859375,0.4431248755276203,0.45008141666725276,-0.7055711123436689
1776444996293671000,1.0556708984375,0.8270756775528192,-0.3462592962082475,-0.60841988448333
1776444996318687700,1.080687744140625,-0.37184944534301756,0.1922586018681526,0.05000917213093489
1776444996343704600,1.10570458984375,-0.03604278876185417,0.18797654063478111,0.5630801654681563
1776444996368721700,1.1307216796875,-0.07297872697114945,-0.5063099017044529,0.10895714525990187
1776444996393738800,1.15573876953125,-0.47248833265602586,-0.12073526133708655,1.2455410358592867
1776444996418755800,1.180755859375,-0.8130015594929456,-0.3199747350685298,0.6947755775630474
1776444996443772700,1.205772705078125,0.28564006539881226,-0.5809954325934872,0.22356968593299387
1776444996468789800,1.230789794921875,-0.09804945534169673,-0.2366246900781989,0.45352761159837246
1776444996493806800,1.255806884765625,-0.13493687823414802,-0.13677247789716349,0.13906331051439047
1776444996518824000,1.280823974609375,0.20467267776131629,-0.33673005503639575,-0.0077896309629082675
1776444996543840800,1.3058408203125,0.2280512152612209,-0.11932280072327703,-0.1860300827421248
1776444996568857900,1.33085791015625,0.7173702712088823,-0.28945560509897766,-0.05875351000279188
1776444996593875000,1.355875,0.12470423803329467,-0.05177479356396943,0.09450929851680993
1776444996618892000,1.38089208984375,0.5829904423356056,0.049506793833058324,0.04876403090804815
1776444996643908900,1.405908935546875,0.5864186632186174,-0.21656072048638014,-0.08253843634650111
1776444996668925700,1.43092578125,0.010222118806838989,-0.03765868125958368,0.3181862442165613
1776444996693942800,1.45594287109375,-0.11919745731055736,-0.18188140209745615,0.5373107873089611
1776444996718959900,1.4809599609375,0.33812136326432224,-0.3236808961100876,0.6809599643088877
1776444996743976700,1.505976806640625,0.21588906830251214,0.23166345094162968,0.09731237323880194
1776444996768993800,1.530993896484375,-0.2459381696075201,0.12014039158332161,-0.09167728996127843
1776444996794011000,1.556010986328125,-0.1633183385878801,0.4281884050173685,0.12360416783690452
1776444996819028000,1.581028076171875,0.4493617240905761,0.25428744374718515,0.07490092720538377
1776444996844044800,1.606044921875,0.05907938095629215,0.02428538667913526,0.4229213148020208
1776444996869062000,1.631061767578125,-0.6134089614748954,0.36275516152232884,0.4664112046994269
1776444996894079000,1.656078857421875,-0.2754910118281841,0.6610165158241987,0.40326925047934054
1776444996919095800,1.681095703125,0.41827451190948484,0.5759301850931718,0.18003244976252317
1776444996944113000,1.70611279296875,-0.1281628540545702,0.25825035602878776,0.29858313360214234
1776444996969129700,1.731129638671875,-0.5223234999269247,0.33187344531808044,0.1617551809243858
1776444996994146800,1.756146728515625,0.06409048711657524,-0.29647918359283354,0.4699120524272322
1776444997019164000,1.781163818359375,0.06206570329070091,-0.554047694837302,0.4139022881746292
1776444997044181000,1.806180908203125,0.3039262481957674,-0.3810034599943086,0.2810598980017006
1776444997069197800,1.83119775390625,0.31452012292444703,-0.6536538781017065,0.47922509356513615
1776444997094215000,1.85621484375,-0.5802379287570715,-1.1852374468702822,0.6104771458067
1776444997119232000,1.88123193359375,-1.3855232147842644,-0.31512429936267433,0.9974150008186697
1776444997144249000,1.9062490234375,-0.41250118920505047,0.7520672713849693,0.3010848872900009
1776444997169265700,1.931265625,1.2405763991892338,0.3911257351558655,-0.8100218130297958
1776444997194282800,1.95628271484375,0.5250824432462453,0.55589423601944,-0.9094315969392657
1776444997219299800,1.9812998046875,-0.6377858623623848,0.6632477089423686,-0.3802823426455259
1776444997244317000,2.00631689453125,-0.15810674141943454,0.7395891903448849,-0.1146340949177742
1776444997269333800,2.031333740234375,0.10867606329619883,0.7171914805758745,-0.33513547932133075
1776444997294350800,2.056350830078125,0.07043313414156437,0.28080964956767857,-0.35574089884608984
1776444997319368000,2.081367919921875,-0.1749392182767391,-0.06490617828047834,0.14178294473662972
1776444997344385000,2.106385009765625,-0.20157471174597738,0.12489554108800366,0.3566239652909338
1776444997369401900,2.13140185546875,0.25802199063301084,-0.12834109669830648,-0.5244849888097495
1776444997394419000,2.1564189453125,0.09425357019007205,-0.869137580473721,-1.4046677679762243
1776444997419436000,2.18143603515625,0.1400660578161478,-0.06918894276674836,-0.33503216507732864
1776444997444452900,2.206452880859375,0.04623042077720165,0.12943957772580905,0.18912169208191335
1776444997469469700,2.2314697265625,-0.21415128472447395,0.5776088588951155,-0.02853694317638874
1776444997494486800,2.25648681640625,0.3995966994464397,1.1461335900373757,0.450862337911874
1776444997519504000,2.28150390625,-0.45053427500128745,1.2795444277480243,0.7428347481373697
1776444997544521000,2.30652099609375,-0.07681319056749343,0.763050364626944,0.33613581547029314
1776444997569538000,2.3315380859375,0.38789690930247306,0.3156991766411811,-0.3854297154713422
1776444997594555100,2.35655517578125,0.25992110225260256,-0.2193350440379232,-0.5341915593098848
1776444997619572000,2.381572021484375,-0.04619534946382046,-0.18003654141575098,-0.11082082023993134
1776444997644589000,2.406589111328125,0.07362462365925311,-0.3312150179419666,-0.18471191281564533
1776444997669606000,2.43160595703125,0.12350596815943717,-0.15219832109324632,-0.11151643782127647
1776444997694623000,2.456623046875,0.3523907116353512,-0.008031623025238514,-0.3141971745803952
1776444997719640000,2.48164013671875,0.04980886378586292,-0.8743687591254711,-0.7482425985302775
1776444997744657200,2.5066572265625,-0.7427870365381241,-1.5022197951897978,-0.43562893028166144
1776444997769674000,2.531674072265625,-0.6660965955674648,-1.3092501224428414,0.3215560859758407
1776444997794691000,2.556691162109375,-1.34815706846416,0.4958690621130168,1.1777249523483215
1776444997819708200,2.581708251953125,0.8029828543037175,-1.2898518867507576,0.816733585628122
1776444997844725200,2.606725341796875,0.21038111853599548,-0.5327087003409863,0.2748077057391405
1776444997869741800,2.631741943359375,0.3332651554048061,0.1760091125305742,0.07381583538241684
1776444997894759000,2.656759033203125,0.5994044015198946,0.5688853446155786,0.08179408425260334
1776444997919776000,2.68177587890625,0.3620955285698175,0.10905260499101131,0.4910494599368423
1776444997944793000,2.70679296875,-0.5200742596954107,-0.6145848003212362,0.6323019510585814
1776444997969810000,2.731809814453125,-0.17697978419363497,-0.9123232997927814,0.21060776689872143
1776444997994827000,2.756826904296875,0.27555004853904247,-1.107810873644799,-0.4210231530304998
1776444998019844000,2.781843994140625,0.5624971048831939,-0.9368266035389154,-0.39094785783831026
1776444998044861200,2.806861083984375,0.16203998921513557,-0.7041964629895985,-0.6426226348690688
1776444998069878000,2.8318779296875,0.24690613785684107,-0.30260636123623696,-0.4576007793214172
1776444998094895000,2.85689501953125,-0.13211597559452057,0.3333202465929091,0.07825480421055107
1776444998119912000,2.881911865234375,-0.17948738310039042,0.38833975769914686,0.4713396740775555
1776444998144929000,2.906928955078125,-0.1008130748361349,0.4557972735634073,0.5510195061225444
1776444998169945900,2.93194580078125,0.06642389850020408,0.27311354210712013,0.1512252382773906
1776444998194963000,2.956962890625,0.4005862950056791,0.08260163777582347,0.426456430125609
1776444998219980000,2.98197998046875,0.16986089209914207,-0.34506603130307045,0.45387540212273597
1776444998244997000,3.0069970703125,0.030305706414580344,0.09127228935696184,1.3224413201883434
1776444998270014000,3.032013916015625,-0.446648373478651,1.1906971735808998,0.7705434968613087
1776444998295031000,3.057031005859375,0.5674526814639568,0.074529047985957,0.08056253316365182
1776444998320048000,3.082048095703125,0.020921791997551918,-0.6033904389487579,-0.38313261751011013
1776444998345065200,3.107065185546875,-0.5858323877632617,-0.7152326746582984,-0.7461653538648039
1776444998370082000,3.13208203125,0.6923328605860471,-1.2902943698212503,-0.6285336115010083
1776444998395099000,3.157098876953125,-0.37232115450799463,-0.725720458664,0.1627592434003949
1776444998420116000,3.182115966796875,-1.1409481502234935,0.4031568030808121,1.144934589511156
1776444998445133000,3.207133056640625,-0.6986363446444273,0.20525709005314854,0.6347841963283717
1776444998470150000,3.23214990234375,0.41761224860846996,-0.33857440426144747,-0.34364005362056194
1776444998495167000,3.2571669921875,0.6008814883351326,-0.1676603498475626,-0.38169023668207225
1776444998520184000,3.28218408203125,0.433108508425951,-0.2746587805214338,-0.01480287072584033
1776444998545201200,3.307201171875,-0.363381476727128,-1.152083292222023,0.3807872234277427
1776444998570217200,3.33221728515625,-0.3793132053524256,-0.8027456845469773,0.40728886138424275
1776444998595234000,3.357234130859375,-0.24570026919841764,-0.5451750909432769,0.4828538785215467
1776444998620251100,3.382251220703125,-0.017973463585972786,-0.7366685536578297,0.5145123147193342
1776444998645268200,3.407268310546875,-0.2362871286869049,-0.1138371906527318,0.17333624005950987
1776444998670285300,3.432285400390625,0.32409634504318235,0.04567638535732403,-0.9489642736434936
1776444998695302100,3.45730224609375,1.231376024645567,0.0071643752040341496,-1.8655800829984246
1776444998720319000,3.482319091796875,0.6461942097455263,-0.0638543220068328,-1.6532812942728399
1776444998745336000,3.507336181640625,-0.39038054281175133,-0.37562231494523585,-0.40880043499097224
1776444998770353200,3.532353271484375,-1.3058563883513212,-0.04813192528327927,0.7208571634765714
1776444998795370000,3.557369873046875,-1.295187110298872,-0.5661721036015078,0.26204766595251855
1776444998820387000,3.582386962890625,-1.1105991891890763,-0.878108237914741,-0.10619816540796309
1776444998845404200,3.607404052734375,-0.02960778727829456,-0.23559691793303936,-0.7857103785939514
1776444998870421200,3.632421142578125,0.38367958386838436,0.25980492852702736,-0.41321218701861795
1776444998895438000,3.65743798828125,0.22820611356198786,0.5299528257615864,0.5657578237121924
1776444998920455200,3.682455078125,0.6162421390742063,0.4439995394703001,0.24845608897889032
1776444998945472300,3.70747216796875,0.6937637701719999,0.5165441128078848,-0.2562787454285659
1776444998970489300,3.7324892578125,0.49406128203868865,0.6028787265669554,0.5292022265899926
1776444998995506200,3.757506103515625,0.044077042135596274,0.3068906509593129,0.6847118641883134
1776444999020523000,3.78252294921875,0.47158290824890137,-0.22381606190949677,0.28139621728397907
1776444999045541000,3.807541015625,0.3215057440280914,0.2120258900683373,1.417795106705278
1776444999070558000,3.832557861328125,0.6876718830376863,-0.21556725246962158,0.42542244743537155
1776444999095575000,3.857574951171875,0.5444985068559647,-0.5112411475615576,-0.5733675680635497
1776444999120592100,3.882592041015625,0.5001321263849735,-0.5663383635465056,-0.5188165512518957
1776444999145609200,3.907609130859375,-0.4378291072070598,-0.61677851097323,0.7815812428999692
1776444999170626000,3.9326259765625,-1.3175661153674125,-1.1802375927563755,-0.17575722012873737
1776444999195643100,3.95764306640625,0.07627893756031989,-1.195619578544423,-0.48086960936915124
1776444999220660200,3.98266015625,0.3666927932322025,-0.26272052371278404,-0.9903528073474764
1776444999245677300,4.00767724609375,0.4791138882756233,-0.1433211962877307,-0.8676591784842311
1776444999270694100,4.032694091796875,0.4441612328380346,-0.2827312652800232,-0.24905557097569106
1776444999295711000,4.0577109375,-0.8004851922690868,0.5631207166742533,0.9125317549116909
1776444999320728000,4.08272802734375,-0.8379898702770471,0.7426015969686209,0.8527980747651308
1776444999345745200,4.1077451171875,-0.04905541507005691,0.18642790468698367,0.07735679592490195
1776444999370762000,4.132761962890625,-0.570727173089981,0.21205153596624732,0.4970050438730046
1776444999395779000,4.157779052734375,-1.1852163310170174,-0.22251160998111588,0.5401712913066149
1776444999420796200,4.182796142578125,-0.06751286278069019,-0.4505038067977875,0.7901957803796976
1776444999445813200,4.207813232421875,0.09184943165779114,-1.63455189775303,-0.5346016379481181
1776444999470830000,4.232830078125,-0.08828560169637202,-2.081107770642638,-0.4058598514944315
1776444999495847200,4.25784716796875,-0.2973433626741171,-1.7962110709570347,0.4996750302672386
1776444999520864300,4.2828642578125,0.01023380924463272,-1.5459344337537884,0.9887582316324114
1776444999545881000,4.307881103515625,0.6207984872043132,-0.5738051192305982,1.098503750791028
1776444999570902300,4.33290234375,1.2151473589003086,-0.33074586606025697,1.2518240616515277
1776444999595919000,4.357919189453125,0.8887655332684516,-0.4291688308894634,0.8009372468855231
1776444999620936200,4.382936279296875,0.39515491760671134,-0.7725536676399409,-0.5468659666396677
1776444999645953300,4.407953369140625,0.4355412885308265,-0.9047592212140559,-1.0491324747048318
1776444999670970000,4.43297021484375,0.31051556345820425,-0.37122576048672196,-0.4629102108411491
1776444999695987200,4.4579873046875,0.848023773035407,-0.5436534343339503,-0.4020484765127301
1776444999721004300,4.48300439453125,0.4034183035612106,-0.531820373199135,-0.371588967775926
1776444999746021400,4.508021484375,0.07516191622912884,-0.6964252444662153,-0.17472294517755507
1776444999771038200,4.5330380859375,-0.7399468446761369,-0.42445436958819627,0.2800761476613581
1776444999796055300,4.55805517578125,-1.0487725553512572,0.018162556417286396,0.6922795229636133
1776444999821072400,4.583072265625,-0.0705927086174488,0.6759102797038853,1.3275719610750674
1776444999846089200,4.608089111328125,-0.3312397870570421,1.2475950457796454,1.2309846872404218
1776444999871106000,4.63310595703125,0.17128011124730108,1.1156037194781006,0.9232344968423247
1776444999896123100,4.658123046875,0.12949497944116592,1.0257073215842247,1.2154580322846769
1776444999921141200,4.683141357421875,0.12251228094696998,0.9532970421507954,1.278706661749631
1776444999946158000,4.708157958984375,0.39759880362749095,0.9005991789251565,0.0410967111505568
1776444999971175200,4.733175048828125,0.40131285571455955,0.7933297675564884,-0.4125307075604796
1776444999996192300,4.758192138671875,0.02963701337277889,0.5101207286968827,-0.2525035194724798
1776445000021209300,4.783209228515625,0.009262333863973618,0.1884180007919669,0.362857452853024
1776445000046226200,4.80822607421875,-0.41492403243780135,0.2684768952824175,0.22449717604145406
1776445000071243300,4.8332431640625,-0.03640694589912891,0.2477231533281505,-0.032814474365115164
1776445000096260400,4.85826025390625,0.029736966615915298,0.429388757250458,0.38578576236739753
1776445000121277400,4.88327734375,-0.16827157708108423,0.47542219415083525,0.37364641176238655
1776445000146294000,4.9082939453125,-0.12278817527890204,-1.9338636378906666,-1.4037044759020207
1776445000171311000,4.93331103515625,0.2232026061862707,-1.075156266016513,-0.45320466325432057
1776445000196328200,4.958328125,-0.30821897695362566,-0.22060981321409343,0.06207330207526683
1776445000221345300,4.98334521484375,0.290972658598423,0.5585570620205254,0.36336364880949257
1776445000246362000,5.008362060546875,0.432903341242671,0.5357050326127558,0.2708006620548665
1776445000271379200,5.033379150390625,0.7248901453197002,0.2966737197842449,-0.2021025350123644
1776445000296396300,5.058396240234375,0.6923416284143924,0.21024119860865176,-0.5485916213884949
1776445000321413400,5.083413330078125,1.1196329749941825,0.11098039471581578,-0.47528044759258625
1776445000346430200,5.10843017578125,0.030182372295856474,0.10088476096601225,0.6466159422889352
1776445000371447300,5.133447265625,-1.1577011321038007,0.06983439193028025,0.9410866721361875
1776445000396464400,5.15846435546875,-1.079998883742094,0.5255647468704729,0.2164005249559879
1776445000421481200,5.183481201171875,0.7771189297288655,0.19658625580891967,-0.19945202050358055
1776445000446498000,5.208498046875,-0.3678045538663864,0.6875476721361279,0.6773875126495957
1776445000471515100,5.23351513671875,-1.3109078265219927,0.455614172081463,1.2690526982195676
1776445000496532200,5.2585322265625,-0.3662701839059591,0.131692270289734,0.24182532746121285
1776445000521549300,5.28354931640625,0.8888362604171037,-0.12279781989008187,0.08035641613230109
1776445000546566100,5.308566162109375,0.06391103889644145,0.4525348011687398,-0.5827817680209875
1776445000571579100,5.3335791015625,0.2795043391227722,0.8550118783570826,-1.2477727404341101
1776445000596596000,5.358595947265625,1.299532446026802,0.5942457035824656,-0.35424992963597174
1776445000621614300,5.3836142578125,0.35617139921784396,-0.48876872858852144,0.11199965476095676
1776445000646631000,5.408630859375,-1.3841986881822348,-0.4919990157466381,1.2149372232809663
1776445000671648000,5.43364794921875,-0.6919166810005903,-0.06786620626300573,0.4457192759349942
1776445000696665000,5.4586650390625,0.45722237446308134,0.32179099071025846,0.7279619539804756
1776445000721682200,5.48368212890625,-0.27007307843267914,0.06744374306723475,0.835030143688619
1776445000746699000,5.508698974609375,-0.684328417828679,0.697996147044748,0.8619263339206575
1776445000771716000,5.533716064453125,0.1604524277627468,0.46352103621587154,0.5106250249572098
1776445000796733200,5.558733154296875,1.1374252367943525,-0.3457178097426891,-0.3248664526328444
1776445000821750300,5.583750244140625,0.1623608917325735,-0.06879588832855224,-0.24379838109984991
1776445000846767000,5.60876708984375,-0.49204643508493895,0.0714763595841825,0.7516727921746671
1776445000871784200,5.6337841796875,-0.3645668871194124,-0.2731213600873947,0.6469615408562124
1776445000896801000,5.658801025390625,0.7058271329313516,-0.3029845834314823,-0.14313962004259229
1776445000921818000,5.683818115234375,-0.22766250820457934,0.18476736932992935,-0.3796501822218299
1776445000946835000,5.7088349609375,0.24139585000276564,0.676893737783283,-0.37373642813339825
1776445000971852000,5.73385205078125,0.6418979738563299,0.6470982459131628,-0.35667817969620225
1776445000996869000,5.758869140625,0.32627193551659583,0.24958149454593656,0.3127919108923524
1776445001021886200,5.78388623046875,-0.517039422044158,0.06574534165151417,0.5092774097405374
1776445001046903000,5.808903076171875,0.3728197516798973,0.1160626664161682,0.2424980390910059
1776445001071920000,5.833920166015625,0.3998059582829475,0.1617547425329685,-0.09434833580143749
1776445001096937200,5.858937255859375,-1.041516300612688,0.5652068387659266,0.318304682964459
1776445001121954300,5.883954345703125,-0.6470423510074615,0.6423482018418609,0.4974507052812725
1776445001146971100,5.90897119140625,-0.31238954063653945,0.6762320590041577,0.1370005327656865
1776445001171988000,5.933988037109375,-0.45172669965624807,0.33245204892363395,0.6635122050974518
1776445001197005000,5.959005126953125,0.2379378185033798,-0.2372296337014064,0.5294732255510985
1776445001222022100,5.984022216796875,0.5864560726195573,-0.5349579040398821,0.25661395046599206
1776445001247039000,6.0090390625,-0.29413024584650993,-0.41275436024852097,-0.17997313905702902
1776445001272056000,6.03405615234375,0.4525894539654255,-0.36552849869318305,-1.4336260053046046
1776445001297074200,6.05907421875,1.378677878934145,0.005459726710617542,-1.4047887640073895
1776445001322091000,6.084091064453125,0.4820809213876724,0.1640331357937306,-0.8198653808478266
1776445001347108000,6.109108154296875,-0.7589876452326774,-0.43022754616215825,1.2770225080549715
1776445001372125200,6.134125244140625,-0.9117594553649425,-0.4780552460681647,1.3414461726486682
1776445001397142300,6.159142333984375,-0.407654918217659,-0.5928352522626519,1.2205594470769165
1776445001422159000,6.1841591796875,-0.851093682000041,-0.055492279717139895,1.0125278142765164
1776445001447176200,6.20917626953125,0.06061375091671943,0.17899492340832948,-0.5679964329518378
1776445001472193000,6.234193115234375,0.7752303395032882,0.9749652686014771,-0.6877746127597987
1776445001497210000,6.259210205078125,1.37863111718297,1.1819365056287496,-0.4968345096116885
1776445001522227000,6.28422705078125,0.8824223017215729,0.6301826208170503,-0.6902196678243577
1776445001547244000,6.309244140625,0.21355331883132456,-0.058330718013457954,-1.012926604335755
1776445001572265200,6.33426513671875,0.34024785389900203,-0.06913012525159865,-1.0725313974056392
1776445001597282000,6.359281982421875,1.1347674157619476,-0.22441653028698635,-0.3267444849317893
1776445001622299100,6.384299072265625,0.2692179229080677,0.17337343026474117,0.31325572901181875
1776445001647316200,6.409316162109375,0.0820820708811283,0.06600603841431439,0.5018520455127582
1776445001672333300,6.434333251953125,0.3741670746356249,0.08664236453399062,0.45591143799498673
1776445001697350100,6.45935009765625,-0.7211842765390872,-0.4390866329874843,0.6417800465650856
1776445001722367000,6.484366943359375,-0.7847334963858127,-0.655686333777383,0.5711959596455097
1776445001747384000,6.509384033203125,-0.6162918234348297,-1.0257703768830746,-0.4276494027698412
1776445001772401200,6.534401123046875,0.1762994007140398,-0.8920689587280154,-0.8062171600498259
1776445001797418200,6.559418212890625,0.11452771193385124,-0.6537813769388944,0.18421068529523907
1776445001822435000,6.58443505859375,-0.11643149972856044,-0.6367793887335806,0.15496102727223188
1776445001847452200,6.6094521484375,0.08483458445966244,-0.6881980258036404,-0.17213179617319255
1776445001872470000,6.634469970703125,-0.20068039325475692,-0.6119848469559103,-0.3416997332077473
1776445001897487000,6.659487060546875,0.156447868296504,-0.6663881989251822,-0.4807627149285748
1776445001922504200,6.684504150390625,0.33584815763533116,-1.0169245148655026,-0.2268442323579453
1776445001947521300,6.709521240234375,-1.6549889749735593,-0.2739035234410316,0.6031075668867677
1776445001972538000,6.7345380859375,-0.7439128256976604,0.19305117701794952,0.741862395973876
1776445001997555200,6.75955517578125,-0.37820319828391075,-0.46732930592503397,0.932776743626222
1776445002022572000,6.784572021484375,-0.6294587635219097,-0.6038314972471446,0.7823916094347834
1776445002047589000,6.809589111328125,0.7310135966360568,0.27625224199164655,-0.518566412415728
1776445002072606200,6.834606201171875,1.1560159554958342,2.139678033033013,-0.4934952456537634
1776445002097623000,6.859623046875,0.7455927416086197,-0.6430708900932223,-0.4485445259561762
1776445002122640100,6.88464013671875,-0.7763526215314864,-0.6875180076502263,-0.49952232392355794
1776445002147657200,6.9096572265625,-0.19505320102274418,-1.2891352629140018,-0.014105748457286972
1776445002172674300,6.93467431640625,0.055469373765587804,-0.9119782126821577,1.1537917035751044
1776445002197691100,6.959691162109375,-0.9459270979046821,-0.5314232636403292,1.4049519917450843
1776445002222708200,6.984708251953125,0.12795125713050365,0.11388736820369959,1.7131738913081584
1776445002247725300,7.009725341796875,0.3274585149526596,-0.5654765590853988,2.219965329451859
1776445002272742100,7.0347421875,-0.4417530026525259,-0.2586232444617897,1.050993300140649
1776445002297759000,7.059759033203125,-0.5842699607521296,-0.5471659724995493,-0.9473216210030019
1776445002322776000,7.084776123046875,0.3715466630041599,-0.5513431120537221,-0.9494318180900067
1776445002347793200,7.109793212890625,0.8917857578724622,-0.3548876430176198,-0.12684826432466506
1776445002372811000,7.13481103515625,0.11832768873870372,-0.23623101458549497,-0.10226473494917154
1776445002397828000,7.159828125,0.2618769124954939,0.5069099499568342,-0.15476028053574264
1776445002422845200,7.18484521484375,-0.14300561839938164,0.14878434793129564,-0.821627860475704
1776445002447862300,7.2098623046875,1.143470362177491,-0.14585472422018647,-0.11157251539006828
1776445002472879000,7.234879150390625,-0.674714201787114,0.2607667592965066,0.6498386306624859
1776445002497896200,7.259896240234375,-1.0549474445939064,-0.5738812532067299,-0.6706812930092215
1776445002522913300,7.284913330078125,-0.29739947677552697,-1.1234722608961165,-1.0324695822607726
1776445002547930400,7.309930419921875,-1.324534785336256,-0.6887779445834458,0.28643720712587234
1776445002572943600,7.334943603515625,-0.6171463944375515,-0.7554992185950279,-0.4318618693657219
1776445002597960700,7.359960693359375,1.0891045657396317,-0.6239664497159421,-1.6924024675667284
1776445002622977800,7.384977783203125,0.3904021701216697,-0.6852199598409235,-0.7404248374514282
1776445002647995000,7.409994873046875,-0.5840232925146818,-0.6494350913628936,0.691199180381
1776445002673011700,7.43501171875,-0.4922825819283724,-0.8716172684602439,0.7831888242270797
1776445002698028800,7.46002880859375,0.26274492750167844,-0.023808161088824272,0.3888997662020847
1776445002723046000,7.4850458984375,1.4191636185795067,-0.050348085229098796,0.6912158392548561
1776445002748063000,7.51006298828125,-0.010105798950791358,0.11642273190021514,1.341810329785943
1776445002773079600,7.53507958984375,0.16832418405115604,-0.05835691190063953,0.7555132471203804
1776445002798096600,7.5600966796875,0.8694406550735234,0.3974108798399567,-0.3114402040224522
1776445002823113700,7.58511376953125,1.009279918396473,0.48413157030716536,-0.09347732512056826
1776445002848131600,7.610131591796875,0.09323767114579677,0.18912877940982578,0.29219715889208014
1776445002873148700,7.635148681640625,-0.31285949623584747,0.04159881545379757,0.2054362825449556
1776445002898165800,7.660165771484375,-0.07262216861844062,-0.2036696381986141,0.17997472822591662
1776445002923182800,7.685182861328125,-0.25685820755064487,0.14907017913535237,0.950490387232229
1776445002948199700,7.71019970703125,-0.38025545463860033,0.40661315407976506,1.006799134431407
1776445002973216800,7.735216796875,-0.08898644344210624,0.28337548146769403,0.33614695791881527
1776445002998233900,7.76023388671875,0.36762335208058355,0.4546228594891727,-0.17642872618213296
1776445003023251000,7.7852509765625,0.403389661988616,0.33439196747764943,0.3527696644829586
1776445003048267800,7.810267822265625,-0.5697580357968807,-0.10489917510598898,0.9313996100541204
1776445003073284600,7.83528466796875,-1.0476087722688914,-0.7057930845312774,0.5135837286323308
1776445003098301700,7.8603017578125,-0.6140840842574834,-0.8837570574566721,-0.9710407155688852
1776445003123318800,7.88531884765625,0.17573007639348506,-0.6041469929371028,-1.3834529843814671
1776445003148335600,7.910335693359375,0.7780477350115775,-0.1322539227604866,0.14076901845373213
1776445003173352700,7.935352783203125,0.8965069411754608,-0.5325796671338379,1.0188878508277237
1776445003198369800,7.960369873046875,-0.6461661526948214,0.35466515937335785,1.2285096754290163
1776445003223387000,7.985386962890625,-0.018392565780878067,0.27925547892823815,-0.05539952339977026
1776445003248403700,8.01040380859375,0.9944336469203233,-0.5206429994940758,-0.9188779821332543
1776445003273420800,8.0354208984375,-0.16052783108651636,-0.39077063810788093,-0.28015966122634706
1776445003298438000,8.06043798828125,-0.8726952729552984,-0.5857527831884101,0.22738851356878875
1776445003323455700,8.085455810546875,-0.7849275576531887,-0.4800291034244001,-0.003196604084223509
1776445003348472800,8.110472900390626,0.15946809290051459,-0.905568491770327,-0.2031201876223087
1776445003373489700,8.13548974609375,0.011425064855813979,-1.0635651238787918,-0.6821129337362944
1776445003398506800,8.1605068359375,0.6947860989570618,-1.214961407874152,-0.8955660070635377
1776445003423523600,8.185523681640625,0.6597533640205859,-0.5840250826129689,-0.1862638184327632
1776445003448540700,8.210540771484375,-0.09455284539759158,-0.21888488911762832,0.43803215549848973
1776445003473557800,8.235557861328125,-0.16225918492376804,0.09853804257623851,0.8583203453179449
1776445003498574800,8.260574951171876,-0.13482465003132818,-0.3324074425969273,1.2190861596539615
1776445003523591700,8.285591796875,-1.1379898849397898,-0.537747425160557,0.7169093756988644
1776445003548608800,8.31060888671875,-0.5420569589227437,-0.4836922290418297,0.17723463573753834
1776445003573625000,8.335625,0.1356266140639782,-0.4961808680085465,-0.4177395282499492
1776445003598642200,8.36064208984375,-0.06034136371612549,-0.7754308305114507,-0.31087694411650296
1776445003623659000,8.385658935546875,-0.20189619878530501,-0.32098690778575834,-0.31700097995474935
1776445003648676000,8.410676025390625,-0.03267068198025226,0.7707507829364388,-0.5356823093242943
1776445003673693200,8.435693115234375,0.6250806945681572,1.024461486241594,-0.26869521420821546
1776445003698710300,8.460710205078126,0.3700783440172672,1.00846933266595,-0.04333499159663915
1776445003723727000,8.48572705078125,0.5843576390355825,0.9408895421288906,0.26214228543341156
1776445003748744000,8.510743896484374,0.0892103153258562,0.9208193985246121,0.9325815863803029
1776445003773762300,8.53576220703125,-0.5832143142193555,0.8046150586154311,0.47491146814972157
1776445003798779100,8.560779052734375,-0.7907242612332105,0.2845157558103092,0.5876593109294772
1776445003823796000,8.5857958984375,-0.6245259832948445,0.13342599874716252,0.9300454920314252
1776445003848813000,8.61081298828125,-0.06947977893948555,0.3209845331655815,0.3255425983287394
1776445003873830100,8.635830078125,0.4948819507718086,0.5278658268870785,-0.03801993405371904
1776445003898847000,8.660846923828124,1.2586883944630622,0.5302795734979212,-0.33878961791470646
1776445003923864000,8.685864013671875,0.8812766388177872,0.6428351816412061,-0.2957267212577164
1776445003948881200,8.710881103515625,0.4560229355454445,0.6539573910929263,-0.2780751831024885
1776445003973898200,8.735898193359375,0.7781441811233758,0.36933063092250373,0.5103581907145679
1776445003998915000,8.7609150390625,0.11347381896674633,0.14295845478940755,0.9003491496868431
1776445004023932200,8.78593212890625,-0.14107494259774683,0.30921449079699814,0.2771213895089924
1776445004048949000,8.810948974609374,-0.012050503277778625,0.18742084298077968,0.04564867536649107
1776445004073966000,8.835966064453125,-0.424011009734869,0.5073060731349512,1.104530244538933
1776445004098983200,8.860983154296875,-1.0808949557989835,-0.4116670399358496,0.17138313323035836
1776445004124000000,8.886,-1.4743039065212011,-4.031268024948239,-2.55723095266968
1776445004149017000,8.91101708984375,0.2527121937870979,-1.010953550697118,-0.7413344996422528
1776445004174034200,8.9360341796875,0.16873744102716445,0.6514712733656167,0.646706689312309
1776445004199051300,8.96105126953125,-0.13719780890345573,0.0050943091980181635,0.4846225686945021
1776445004224069000,8.986069091796875,0.12277882292866706,0.18370609677396713,0.4699000697284937
1776445004249086200,9.011086181640625,-0.2067243495941162,0.11873574894978664,1.1326445783890784
1776445004274103000,9.03610302734375,-0.16464169614613056,-0.40536333668176083,0.628484657792747
1776445004299120000,9.0611201171875,0.17482874363958834,0.17580905991382895,0.14562040400765836
1776445004324137200,9.08613720703125,-0.16387071177363394,0.5757033540673554,0.34802813251167536
1776445004349154000,9.111154052734374,-0.1945423288911581,0.11516582717429846,-0.051733840499073265
1776445004374171100,9.136171142578124,0.353392582154274,0.06725175045935902,0.2094935220465064
1776445004399188000,9.16118798828125,0.6972147874087095,0.03921840029039886,-0.5998472864491865
1776445004424205000,9.186205078125,0.2849211034744978,0.473487207500264,-0.5531862557023763
1776445004449222100,9.21122216796875,0.15093465783298016,0.5480968966741114,-0.009647752984985708
1776445004474239200,9.2362392578125,-0.12629822922647,0.2984428666149266,-0.3501165561582893
1776445004499256000,9.261256103515626,0.5794365492463112,-0.5950763457203283,0.023898469720780847
1776445004524273200,9.286273193359374,-1.0784691899567842,-0.1551184828562662,0.6723125474728644
1776445004549290200,9.311290283203125,-0.8047440187573432,0.0546679942548275,1.4031405584089458
1776445004574307800,9.336307861328125,0.11568740336298942,-0.24996870376523583,0.7620794737681746
1776445004599325000,9.361324951171875,1.1263298422843218,-0.44547052533831444,0.2997393178999424
1776445004624342000,9.386342041015626,-0.28631285009384155,-0.2638459475461393,0.40189313982054586
1776445004649359000,9.411359130859376,-0.736405226546526,-0.0715840760086663,0.22263854256272314
1776445004674376000,9.4363759765625,0.49233343533277507,0.2891862318393774,-0.5724214828524739
1776445004699394000,9.46139404296875,1.7747744613051413,0.5124921340033411,-1.0717616551421583
1776445004724411100,9.4864111328125,0.5573404527723789,0.6260894332192838,-0.35991117026805874
1776445004749428000,9.511427978515625,-1.1344710631638764,0.44763921114690597,0.03056903352588415
1776445004774445000,9.536445068359376,0.01605097109079361,0.6583547492690384,0.2956026564866304
1776445004799462100,9.561462158203126,-0.41313422641158104,0.6417515511229633,1.3291576228313147
1776445004824479000,9.58647900390625,-1.4430086045473813,0.5634267869487405,1.002545057183504
1776445004849496000,9.61149609375,-0.01991466078162193,0.9329343453407287,0.10203647915124893
1776445004874513000,9.636512939453125,1.1083166312098502,0.949913683322817,-0.18559008388966322
1776445004899530000,9.661530029296875,0.7208908465504645,0.12839242502674458,-0.08979008797518909
1776445004924547000,9.686547119140625,-0.11150047306716442,-0.25927432878166434,0.681140289311856
1776445004949564000,9.71156396484375,0.25356910287737844,-0.039998248389363285,0.16325908268131314
1776445004974581000,9.7365810546875,0.8857260194420814,0.34087387684285636,-0.295105520619452
1776445004999598000,9.76159814453125,0.3318599647819996,0.5260027729615568,0.19300094466805456
1776445005024615200,9.786615234375,-1.1149766736209392,0.27267098597139117,0.9687690443098544
1776445005049632000,9.811632080078125,-0.9368810371398926,0.19393354934304952,0.45368499411717056
1776445005074649000,9.836649169921875,0.3210620919138193,0.7092131221078336,-0.08544292561635375
1776445005099666200,9.861666259765625,0.5405705197572708,0.8427426177620887,-0.6012010026130825
1776445005124683300,9.886683349609376,-0.46125148384869097,0.817719235664606,-0.31360885329842564
1776445005149699800,9.911699951171874,-1.5410101290941238,0.17069062092155218,0.9375262031756341
1776445005174717000,9.936717041015624,0.45050797151625155,-0.910828019733727,0.2632050558267161
1776445005199735000,9.961735107421875,0.9321797275811433,-1.6243461455591022,-0.14648465615417808
1776445005224751900,9.986751953125,-1.0899696581363678,-0.8564096163257956,0.6087822149896994
1776445005249769000,10.01176904296875,-0.0002028290957212448,-0.3306440131209791,0.9408933415211737
1776445005274786000,10.0367861328125,-0.10304653297662734,-0.5017530055850744,0.27015808983501044
1776445005299803100,10.06180322265625,-0.4262029668211937,-0.2067067408721894,0.32237003270722925
1776445005324820000,10.086820068359375,0.4113695548266172,-0.04927366093061864,-0.40678240969944746
1776445005349837000,10.111837158203125,1.109329607644677,0.05911591357439756,-0.9469061720699071
1776445005374854100,10.136854248046875,0.15347148283421994,-0.11579948543533682,-0.7266589085578918
1776445005399871200,10.161871337890625,-0.23238544507324693,0.34920893979407847,-0.06323960590828209
1776445005424888000,10.18688818359375,0.3844312790185213,0.26693251538462937,-0.08256901414785534
1776445005449905000,10.21190478515625,-0.12373626978397369,-0.014108458720892668,-0.4996419682478532
1776445005474922000,10.236921875,-0.8437152621865271,-0.10362126412466167,-0.634821021207422
1776445005499939000,10.26193896484375,0.15796353355646134,-0.012679302700608968,0.06092866208478808
1776445005524956000,10.286955810546875,0.3975917893648147,0.17330314150750636,0.5690733414683491
1776445005549973000,10.311972900390625,-0.3428331942170858,-0.3769602124854922,0.42373328877203165
1776445005574994000,10.336993896484374,-0.8599275613188743,-0.7049900975853204,-0.22441198197603224
1776445005600010800,10.3620107421875,0.22266952222287653,-0.3710151864759624,0.03838021873347461
1776445005625027800,10.38702783203125,0.2894949872612953,0.041615620458126064,0.10556143840700387
1776445005650045000,10.412044921875,0.6473229215145111,0.013072174475714564,0.1800602876175195
1776445005675062000,10.43706201171875,0.09680851536989211,-0.02901289012506604,0.4357813808970153
1776445005700078800,10.462078857421876,0.5171662632942199,-0.04846088324300944,0.2209159565538168
1776445005725095700,10.487095703125,0.9692851771384478,0.066155968279019,0.3663968059603125
1776445005750114000,10.512114013671875,0.29479426271319387,0.18462697447855025,0.4423586403954774
1776445005775130600,10.537130615234375,0.3587327741384506,-0.057898281412944196,0.26612514452449976
1776445005800147700,10.562147705078125,-0.005245499438047409,-0.41574510302972045,-0.021748379014804958
1776445005825164800,10.587164794921875,0.0075672203838825225,-0.5765062679480761,-0.13009192242100834
1776445005850182000,10.612181884765626,0.3765367263764143,-0.259333109764196,-0.2587582690183073
1776445005875198700,10.63719873046875,0.27462650395333765,-0.4453555571891367,-0.042608869279175995
1776445005900215800,10.6622158203125,-0.9657453125745058,-1.2715316555537282,0.0010788082126528024
1776445005925233000,10.68723291015625,-0.6140659640789031,-1.1178931455895305,-0.04680339835956692
1776445005950250000,10.71225,-0.11405074207186698,-0.47346353436373173,-0.0917041049029678
1776445005975266800,10.737266845703125,0.5055681799590588,-0.1637987425159663,0.522058126989007
1776445006000284000,10.762283935546876,-0.5308657028228044,0.09798771521709859,1.292068686017394
1776445006025300700,10.78730078125,-0.9120780197948217,0.2603022105246782,1.0767107289168982
1776445006050317800,10.81231787109375,0.2373100419938564,0.4649026998326182,0.6480936136260629
1776445006075335000,10.8373349609375,0.45452012976706024,0.40835590609386563,0.3789732328083366
1776445006100351700,10.862351806640625,0.12171499308943748,-0.04948963263570331,-0.7108899692788719
1776445006125368800,10.887368896484375,0.5623053817033767,-0.17452950496468692,-0.8794161056429147
1776445006150386000,10.912385986328125,0.19561434203684328,-0.03999062220533378,-0.6017510377112776
1776445006175402800,10.93740283203125,0.24672025989592075,0.35147608100846406,-0.1797781462078914
1776445006200419800,10.962419921875,0.6413672279804945,-0.5103525646913797,-1.0399928904376923
1776445006225437000,10.98743701171875,0.649238399747014,-0.9620902971982955,-0.924905060403049
1776445006250454000,11.0124541015625,0.08016483908295631,-1.544400063793361,-0.1901487701073289
1776445006275470800,11.037470947265625,0.34315351221263407,-1.1907672431424259,0.4369816600648686
1776445006300487700,11.06248779296875,-0.8354659047573805,0.6508000961057842,2.790805899788439
1776445006325506000,11.087506103515626,-1.6429589299619196,1.6103946309655903,3.121919430117309
1776445006350523000,11.11252294921875,-0.40404900268018246,-0.27360848601721227,1.1394652181893588
1776445006375539700,11.137539794921874,-0.646301177251339,-0.6936497153382748,-0.33604667588211595
1776445006400556800,11.162556884765625,0.0225040927529335,-0.44900618865117425,-0.4405368317957967
1776445006425574000,11.187573974609375,0.15160393539667127,-0.6280857216030359,-0.8885370582748204
1776445006450591000,11.212591064453125,0.30868659446537494,-0.26477513642134143,0.1926036524461582
1776445006475607800,11.23760791015625,0.13553425960540771,-0.25214296079808846,0.589494344336912
1776445006500625000,11.262625,-0.8788643169790505,0.15059598219683393,0.25239494453147054
1776445006525642000,11.28764208984375,-0.6660182696342468,-0.2719675504097715,-0.44954917295407504
1776445006550658800,11.312658935546875,-0.1937269208550453,-1.1280237136553972,-1.3397319160766898
1776445006575675000,11.3376748046875,-0.14650982712805272,-0.12888322248468176,-0.6605867461048066
1776445006600691700,11.362691650390625,0.21371815400421618,-0.5568893114713952,-1.3435815772421658
1776445006625708800,11.387708740234375,0.5202408484339713,-0.03199048116374761,-1.0598723337754608
1776445006650726000,11.412725830078125,-0.03520809150338173,-0.18982952982401474,-1.1011443284276872
1776445006675743000,11.437742919921876,0.17376257571280002,-0.7404270294085145,-1.2788301419988273
1776445006700759800,11.462759765625,0.17291209636330604,-0.2764783788977191,-0.30194387873951345
1776445006725776600,11.487776611328124,0.5555301884800196,0.17372545857280491,0.5965529576115309
1776445006750793700,11.512793701171875,0.44984979986846446,0.38279721154328433,0.7236868339445441
1776445006775810800,11.537810791015625,0.2970855885207653,0.3586347205914557,0.7420731891803443
1776445006800827600,11.56282763671875,0.22432138108313082,0.3281444879228249,1.0888283791467548
1776445006825844700,11.5878447265625,0.2840326302021742,0.19619853513296692,1.1282445898644626
1776445006850861800,11.61286181640625,0.14811609328091144,-0.004289239892829209,0.7363250009171665
1776445006875879700,11.637879638671874,0.19697510899603365,0.07667107868306339,0.43513212320804595
1776445006900896800,11.662896728515625,0.5094359613031149,-0.35358821432422843,-0.6746010968014597
1776445006925913900,11.687913818359375,0.4004033396542072,-0.3358368690563366,-0.11864742221236228
1776445006950931000,11.712930908203125,-0.308404854914546,-0.42872978188507255,0.07769474090868607
1776445006975947800,11.73794775390625,-0.2154477542757988,-0.42832587725929916,0.21169179927576331
1776445007000964900,11.76296484375,-0.19076690200567245,-0.3660729808334261,0.5934739885576069
1776445007025981700,11.787981689453124,0.08585340611338615,-0.6285730667285621,0.18768311064615845
1776445007050998800,11.812998779296874,0.04937982471883297,-0.49751726771146054,0.3960611822640523
1776445007076015600,11.838015625,-0.7374439219444989,-0.6417771239556371,0.604891491161473
1776445007101032700,11.86303271484375,-2.0698054553836585,-1.3022010807141662,-0.7751988483864813
1776445007126049800,11.8880498046875,-0.39081601161956786,-0.9829052678205072,-0.565662729307264
1776445007151067000,11.91306689453125,1.3277268593758345,0.10960351687204092,0.275496857047081
1776445007176083700,11.938083740234376,0.3075777564406395,0.5642808464948088,-0.09009279724881053
1776445007201100800,11.963100830078124,1.2975041550695896,0.7815108080122619,-0.26371335240872573
1776445007226118000,11.988117919921875,1.0261872140556574,0.1980535518825054,-0.6070561949146911
1776445007251135000,12.013135009765625,-0.32084055811762807,-0.08260945575609803,0.1819608970744535
1776445007276151600,12.038151611328125,-0.6972972049951552,-0.04218085312545299,0.9411248121894895
1776445007301168600,12.063168701171875,-0.7630033106148243,-0.4771950490422547,0.0317122852768749
1776445007326185700,12.088185791015626,-1.4250655360996722,0.0845548176702112,-0.4282239877874031
1776445007351202800,12.113202880859374,0.5107102190226316,0.6858396261092276,-0.7724738073367625
1776445007376219600,12.1382197265625,1.9287416187018156,0.5389112813081592,-0.6238061445876956
1776445007401236700,12.16323681640625,0.806182527127862,-0.512851834161207,-0.2628628365266137
1776445007426253800,12.18825390625,0.23310265343189238,-1.0083967058211565,-0.45943720096834
1776445007451271000,12.21327099609375,-0.0034673838496208187,-0.692077059194073,-0.07332600603885948
1776445007476287700,12.238287841796875,-0.10533201356530189,-0.6542386922523379,0.32223157408460973
1776445007501305900,12.263305908203124,-0.9914794732898473,-0.8796876160606741,1.3959332573786376
1776445007526322000,12.288322021484374,-0.8096838132470846,-1.0967300921820105,1.5163199244737624
1776445007551339800,12.31333984375,0.19071838668882846,-1.415503927028179,0.6334022404506802
1776445007576353800,12.338353759765624,0.04267769673168659,-1.3705533169284463,-0.13019304470792412
1776445007601371000,12.363370849609375,0.58695466979146,-0.7839731795378029,0.5106917335178702
1776445007626387700,12.3883876953125,0.7172054360359906,-0.6510090626813471,0.5357714489124715
1776445007651404500,12.413404541015625,0.3655594052881002,-0.6668578622635454,-0.1607554292973131
1776445007676421600,12.438421630859375,0.22144553338587283,0.16868198451288044,-0.8287889842767268
1776445007701438700,12.463438720703126,1.4170593397766351,1.6927321379125118,-0.6640356444496661
1776445007726455800,12.488455810546874,1.9553309349417685,1.8029048695072531,-0.14452815179154277
1776445007751472600,12.51347265625,0.38870296498835083,1.5082605366587638,-0.24126038705483077
1776445007776489700,12.53848974609375,0.16097323676645756,1.2601919308938085,-0.0839021259151399
1776445007801506800,12.5635068359375,-0.8338988015711307,0.9768282129291445,-0.1462058757454157
1776445007826524000,12.58852392578125,-1.0042518611013889,0.6125082497755066,0.21741876208782196
1776445007851540700,12.613540771484375,-1.5402332995027304,0.027142593608004972,1.6871318336874246
1776445007876557800,12.638557861328126,-2.293409043586254,-0.10668541920194402,0.9364566742479801
1776445007901575000,12.663574951171874,0.14047931479215622,-1.1804950746487826,0.05342939237058163
1776445007926591700,12.688591796875,-0.5536030198097228,-0.639860842005536,-0.4468786751031875
1776445007951608600,12.713608642578125,0.2797457466632128,-0.1755823750184849,-0.06599719752073288
1776445007976625700,12.738625732421875,0.9949702380150556,0.019950353149510918,0.12458382652401924
1776445008001642800,12.763642822265625,0.5167845705002546,0.2749980041468516,0.5962064822614193
1776445008026659800,12.788659912109376,-0.7664362076729535,0.30747305395714936,0.8465817575335502
1776445008051676700,12.8136767578125,0.06984510512053967,0.28190741820912807,1.0350910898707806
1776445008076693800,12.83869384765625,-0.09793372000753879,0.3743998239455744,1.4579745568804443
1776445008101710800,12.8637109375,-1.157559093284607,-0.8955209988780319,-1.3760216653369366
1776445008126728000,12.88872802734375,0.9433341588020324,-1.3346112120620905,0.034832390058785676
1776445008151744800,12.913744873046875,0.2401379588961601,-0.7059026093203574,-0.5587643480956554
1776445008176761600,12.93876171875,-0.09992109443247317,-0.3815176565941423,-0.5843636303849518
1776445008201778700,12.96377880859375,-0.6147200440734625,-0.11595094967000186,0.021154431709647176
1776445008226796500,12.988796630859374,-0.3086743195056915,-0.21441855735853313,-0.10780366437584162
1776445008251813600,13.013813720703125,-0.22269582570791244,0.17120207757502792,1.0993344294615088
1776445008276830700,13.038830810546875,-0.2580389417678118,0.22033289596885441,1.5427927747271954
1776445008301847800,13.063847900390625,-0.29865912144780155,0.17917729423791168,0.2972349338635802
1776445008326864600,13.08886474609375,0.43053953472077844,-0.3884685717105865,-0.2976594428859651
1776445008351881700,13.1138818359375,0.5227952090919018,0.21021803692877292,-0.6235422329545021
1776445008376898800,13.13889892578125,0.7403034030288458,0.401001451677829,-0.045486032150685786
1776445008401916000,13.163916015625,0.43032910684049125,0.11120938116610049,-0.2363121900629252
1776445008426932700,13.1889326171875,-0.2312450428664684,0.2371134965084493,-0.23189715009965
1776445008451949800,13.21394970703125,-0.728846189469099,0.6937605553016066,-0.0688063366573304
1776445008476966700,13.238966552734375,-0.2811433385014534,0.5483440763682127,-0.5666277749471366
1776445008501983700,13.263983642578125,0.7778168488651513,0.40052535859867927,-0.6483141245089471
1776445008527000600,13.28900048828125,0.9861579860061407,0.20121844565421343,-0.12124894648026674
1776445008552017700,13.314017578125,-0.8413748365402222,0.3626670448474586,-0.0025361308814957737
1776445008577035000,13.339034912109375,-0.17796996427476405,0.45477395839765666,0.20095515507552772
1776445008602052000,13.364052001953125,1.6160545564234257,-0.0018872750513255596,-0.391927516525425
1776445008627069000,13.38906884765625,2.3117823201447725,-0.6699534171260892,-0.28941563841477036
1776445008652086000,13.4140859375,-0.9190694861173629,-0.8327849220450967,0.5923049447782337
1776445008677103000,13.43910302734375,-0.43709611675739285,-0.5444871086791158,1.1179911991365252
1776445008702120200,13.4641201171875,0.18905074573755262,0.15344660412129013,0.8518285721458494
1776445008727137000,13.489136962890624,0.6327578050673007,0.3171940548414364,1.3171252397321165
1776445008752153900,13.51415380859375,0.057636196410655975,0.016602613624185324,0.5605284351587295
1776445008777171000,13.5391708984375,-0.689932813706994,0.5124586701251566,0.8068107420288025
1776445008802188000,13.56418798828125,0.23516133952736853,0.39431634789071973,0.23737558151073754
1776445008827204900,13.589204833984375,1.0711468842446803,0.10991093885339796,-0.4015793246310204
1776445008852222000,13.614221923828126,0.6303244404405355,0.253913094009459,-0.22327033766023813
1776445008877239000,13.639239013671874,-0.4166238220930099,0.5175621307440101,-0.2192910587657243
1776445008902256000,13.664256103515624,0.46345980754792687,0.6388792105570436,-0.15125987119935452
1776445008927273000,13.68927294921875,1.303827512872219,0.32267679710146036,-0.2196118151526898
1776445008952290000,13.7142900390625,-0.7014250985801219,0.3987384751819074,-0.07311871996372937
1776445008977307100,13.73930712890625,-1.3349609022825955,0.9501797138478606,-0.17350626286417245
1776445009002324000,13.764323974609376,-0.343463308814168,1.3138546936288475,0.11133819517754018
1776445009027342000,13.789342041015624,0.5372364068984985,0.7392164845749736,0.14711020417399703
1776445009052359000,13.81435888671875,1.0075625930845737,-1.0923426708780228,-0.30320027200877664
1776445009077376000,13.8393759765625,-0.7819815673291682,-1.2982368532583117,0.4422715466339141
1776445009102392800,13.864392822265625,-1.498048939245939,-0.89170597063452,1.3589242539331317
1776445009127410000,13.889409912109375,0.4817623569577932,-0.8080098156202584,0.6192123139914125
1776445009152427000,13.914427001953126,0.6375882939636707,0.7635944083757699,0.12443839017134159
1776445009177444000,13.939444091796876,0.6494698704153299,0.597406213440001,0.12102070894865319
1776445009202461000,13.9644609375,-0.39244098247289655,0.03203972484966507,-0.1570469119018875
1776445009227478000,13.98947802734375,0.06728840637505054,0.029117227282375095,-0.07219798838961869
1776445009252495000,14.0144951171875,-0.5200923798739909,-0.07090112154607195,-0.9041825173046439
1776445009277512200,14.03951220703125,-0.042217093482613564,0.15857510784985496,-0.08672337561463937
1776445009302529000,14.064529052734375,0.013515899655222891,0.22511857760911805,0.1570209554767236
1776445009327545900,14.0895458984375,-0.2814268316179514,0.6079409783925861,0.11711093336008488
1776445009352563000,14.11456298828125,-0.36140579273998735,0.6486503707259893,0.09863916486315429
1776445009377580000,14.139580078125,-0.5432604894936084,0.005804375429823995,-0.5851670922549441
1776445009402596900,14.164596923828125,-0.1858972501426935,-0.020335589607432484,-1.0502207083329558
1776445009427614000,14.189614013671875,-0.08420797699391841,0.27129246415980157,-0.6243938082825392
1776445009452631000,14.214631103515625,0.0345253699362278,0.28268764533400537,-0.5304466006278992
1776445009477648100,14.239648193359375,0.32600071735978126,0.47398631612882014,-0.488371071040444
1776445009502665000,14.2646650390625,0.44056876130402084,0.10584032841362058,-0.6789496473997831
1776445009527682000,14.28968212890625,-0.20821897206604478,-0.5777169589120894,-1.0235277855880558
1776445009552699100,14.31469921875,0.3732382693529129,-0.8069442322153597,-0.8706442587096244
1776445009577719600,14.339719482421875,0.6829565449535846,-1.082238771623373,-0.8212559584233909
1776445009602736400,14.364736328125,0.4985767136365175,-1.3003478540629148,-0.5265061924390495
1776445009627753500,14.38975341796875,0.40909985632896423,-1.229049919785559,0.10795430662659927
1776445009652770600,14.4147705078125,-0.47978199679553507,-0.3515187511064112,1.3577933502070605
1776445009677787400,14.439787353515625,-0.6326730493932962,0.04174743014425039,1.7141501889944075
1776445009702804200,14.46480419921875,-0.6248837106913327,-0.4567186627246439,2.272204781385511
1776445009727821300,14.4898212890625,-0.9711872113674879,-1.272157093975693,2.299825924891233
1776445009752838400,14.51483837890625,0.44713060403764243,-1.5916260714791715,0.6753004772424698
1776445009777855500,14.53985546875,0.6548433801472187,-1.3221446753293276,0.24367269062725827
1776445009802872300,14.564872314453124,0.25919921771883964,-1.3167613748557865,-0.037735819882713253
1776445009827889400,14.589889404296875,0.3116068658262491,-1.3954188781157135,0.013873590519092977
1776445009852906500,14.614906494140625,0.27937457526326176,-0.9865860021598637,0.14688472485505044
1776445009877923600,14.639923583984375,0.2764735931247473,-0.7969359022896736,0.38437297296002504
1776445009902940400,14.6649404296875,0.3985270243883133,-0.22537476259358227,0.9706984780024737
1776445009927957200,14.689957275390626,-0.016363105779886245,0.2535620520820841,1.4205210245378315
1776445009952975600,14.7149755859375,0.6164817930489778,1.1424619157873093,1.1141500866036862
1776445009977992200,14.7399921875,1.1456219872534275,1.0961788880400358,0.5727926177198067
1776445010003009300,14.76500927734375,0.8034317671149969,1.0185016279891133,0.6270593011647463
1776445010028026400,14.7900263671875,-0.8421697863101959,0.44663562359493225,0.29130660326052454
1776445010053043500,14.81504345703125,0.02779576942026615,0.8591542388588189,-1.3594818878158925
1776445010078060300,14.840060302734376,1.0598954223901034,-0.24529998130183667,-1.4049541837021708
1776445010103077400,14.865077392578126,0.37971710997819896,-1.7236292343489825,-1.190364945951849
1776445010128094500,14.890094482421874,-0.20400866089463232,-1.8960047396175561,-0.7442362124331295
1776445010153111600,14.915111572265625,-0.8128507528454065,-0.3061595967384055,0.5465139017989858
1776445010178128400,14.94012841796875,0.41355391312837597,0.004129026096127927,1.8843392901346085
1776445010203145500,14.9651455078125,-1.6801058805733917,0.42882476669214664,2.8420369053319097
1776445010228162300,14.990162353515625,-0.3526099073439836,0.007448790769139305,1.888972356762737
1776445010253179400,15.015179443359376,0.7822440176576375,-0.7425511819556355,-0.47160059003606436
1776445010278196200,15.0401962890625,0.48756549027860163,-0.6985124260038137,-0.6130304835513234
1776445010303213300,15.06521337890625,-0.08524082717299461,-0.4381621020210907,-0.7846626231066882
1776445010328230400,15.09023046875,-0.1411988612383604,-0.1612247273094952,-0.4830678865984082
1776445010353247500,15.11524755859375,-0.07614566656947136,0.023467932816408573,0.7825019379414617
1776445010378264300,15.140264404296875,-0.4321306033045053,0.045234797335974866,0.7702434910014271
1776445010403281400,15.165281494140626,-1.0698200195550918,-0.7957520993325858,-0.2041976075954735
1776445010428298500,15.190298583984376,-0.7619786437422037,-0.5577888541270047,-0.13898337714597583
1776445010453315600,15.215315673828124,0.7242746437698602,-0.3537210103910416,-0.4470220290966332
1776445010478332400,15.24033251953125,0.010884966629743576,-0.4464988820053637,-1.3239014558687805
1776445010503349200,15.265349365234375,0.7622726582527161,-0.12539609275497496,-0.6685074561014771
1776445010528366300,15.290366455078125,-0.7587468222141266,-0.0658292205426842,-1.3112478721313179
1776445010553383400,15.315383544921875,0.32224516421854493,-0.22703926173970101,-1.4199175056867301
1776445010578396700,15.340396728515625,0.6590232961803675,-0.7347686383206397,-1.4695274858996272
1776445010603413800,15.365413818359375,-0.19115619358420372,-0.35126404569298025,0.4252781070612371
1776445010628430800,15.390430908203125,-0.7816606648117304,0.03755012458488345,0.9246384453561156
1776445010653448000,15.415447998046876,-0.7525450449645519,0.1112073353394866,1.2966820250317455
1776445010678464800,15.44046484375,0.7179834346711635,-0.6650511781677604,0.7313819915570319
1776445010703481600,15.465481689453124,-0.6316659181773662,-0.40243616065606475,0.86139485739246
1776445010728498700,15.490498779296875,1.3198416590839623,-0.9317503962531686,-0.749036744582653
1776445010753515800,15.515515869140625,2.5432494813293216,0.28700346270650623,-0.23162673566043376
1776445010778532900,15.540532958984375,0.9521651155114174,0.30082375213578344,0.43316549931019543
1776445010803549700,15.5655498046875,0.7309341016590595,0.4325286627113819,1.4647931508541105
1776445010828566800,15.59056689453125,0.16353987238407133,-0.11731865782663226,0.8696389541245997
1776445010853584000,15.615583984375,0.08776187008321285,-0.6033607379302383,1.2715525522112845
1776445010878601000,15.64060107421875,0.08032032190561295,-0.337538010418415,1.0772397942923009
1776445010903617800,15.66561767578125,-0.941893312343955,-1.0993928085852414,-1.101583742758259
1776445010928635000,15.690634765625,-0.5472212098181247,-1.1647575534213335,-1.2357614001229404
1776445010953651700,15.715651611328125,-0.0004389759391546249,-0.5349265955861657,0.007816847763396799
1776445010978668800,15.740668701171876,0.2841734999775886,0.11704575916938482,0.3793264301601797
1776445011003685600,15.765685546875,-0.713165220734477,-0.3571354219444096,-0.6854048148885369
1776445011028702700,15.79070263671875,0.2555167298138141,-0.2054734727501869,-0.9455121604282408
1776445011053719800,15.8157197265625,0.5603536631137133,0.26758433035686613,-0.1826397827167064
1776445011078737000,15.84073681640625,1.1331781007438897,-0.38161103396601975,0.1454607564665377
1776445011103753700,15.865753662109375,-0.2962520603060722,-0.9665907504227012,0.22089206422157584
1776445011128770800,15.890770751953125,-1.5246020151287316,-0.4398648508183658,0.47830227963179345
1776445011153788000,15.915787841796876,-0.23387188423871993,0.297657689320296,0.42228323609419166
1776445011178805000,15.940804931640624,0.21646131523251533,0.024771745423972605,0.6016482349239289
1776445011203822800,15.96582275390625,-0.46186055565774436,-0.9083107762157917,0.5734521410744637
1776445011228840000,15.99083984375,-1.0070739327847957,-1.1535678316913545,0.055038654198125
1776445011253856800,16.015856689453123,0.19183014732301235,-0.718376964033395,-0.09755794549770652
1776445011278873600,16.04087353515625,0.3232359288215637,-0.590023555842787,0.34860074476785957
1776445011303890700,16.065890625,-0.2590127552360296,0.078842212177068,0.6542984596155583
1776445011328907800,16.09090771484375,0.2684147898316383,-0.07523848859667777,0.43036264378391204
1776445011353924900,16.1159248046875,0.30724867061674593,-0.8068911137886345,-0.5901402410250157
1776445011378941700,16.140941650390626,0.4039455423057079,-1.026325015091151,-0.8196257999382912
1776445011403958800,16.165958740234377,0.5249421579927206,-0.6037219724580645,-0.9723016023501754
1776445011428975900,16.190975830078123,-0.1311731417864561,0.23059447000324726,-0.05805208373516798
1776445011453993000,16.215992919921874,-0.31443536725044247,0.03691942546591163,0.3177072285279631
1776445011479009800,16.241009765625,-0.6927735900908708,-0.03547631398551166,0.032511838156729936
1776445011504027000,16.26602685546875,-0.20726620138585566,-0.05139598684683442,0.019467647666484116
1776445011529043700,16.291043701171876,-0.0008452186524868011,0.36199879019707437,0.1525964535653591
1776445011554060800,16.316060791015627,-0.0737561410844326,1.1831960772357881,1.0668632155761122
1776445011579081700,16.341081787109374,-0.8255185112386941,0.6627534226194024,0.11075959157198667
1776445011604098800,16.366098876953124,0.7483090148299932,0.18509280189201235,-0.7326787533693015
1776445011629116000,16.391115966796875,0.10604980644583702,0.5737351957995445,-0.5924976908713578
1776445011654132700,16.4161328125,-0.31164602879285813,0.10578859822638333,1.0475915288731454
1776445011679149800,16.44114990234375,-0.2346089663416147,0.050911272069811817,0.3049545683301985
1776445011704167000,16.4661669921875,0.10971768130362033,0.42927046463303264,0.5436629328146576
1776445011729184000,16.49118408203125,0.08151508464813231,0.6472184382267296,0.38407778940573334
1776445011754200800,16.516200927734374,0.6003180092334747,0.350087330063805,-0.10841375909820199
1776445011779218000,16.541218017578124,0.36497137626707554,0.06515972378328443,-0.053876843877136704
1776445011804234800,16.56623486328125,0.09742226335406302,-0.14870346471481025,-0.3509787990108132
1776445011829251800,16.591251953125,0.38836744942367074,-0.16799882455430923,-0.574824671536684
1776445011854268700,16.6162685546875,0.3498345974117517,-0.20378325464092195,-0.05813888523578643
1776445011879285800,16.64128564453125,0.14558102184534072,-0.22085428949445485,0.36336335654854773
1776445011904302800,16.666302734375,-0.10466273600161075,0.40502983041107654,0.8332555352315306
1776445011929320000,16.69131982421875,-0.5064660055816174,-0.1710972289610654,-0.25924787916615605
1776445011954336800,16.716336669921876,-0.2630804430663585,-1.2932362684920429,-0.6094524789340794
1776445011979353900,16.741353759765627,-0.05313771594762802,-0.095924024152942,0.6841109756857157
1776445012004371000,16.766370849609373,-0.02363864974081516,0.49627303980402643,0.6750013481654227
1776445012029388000,16.791387939453124,0.38763971967101096,0.9237015298321842,-0.05336874822452664
1776445012054404900,16.81640478515625,-0.2934685670673847,0.09346143343169241,-0.6832678028598428
1776445012079421700,16.841421630859376,-0.02344049682021141,0.3226454521151259,0.08026508458703756
1776445012104438800,16.866438720703126,-0.29867314997315403,0.014760529421456158,-0.7180858721323311
1776445012129455900,16.891455810546876,0.6172761582970618,0.31177060502059756,-0.7871504943996668
1776445012154472700,16.91647265625,0.532379029995203,0.2924782408557832,-0.11714300899878144
1776445012179489800,16.94148974609375,-0.6017290450751781,0.1049256612541154,0.44127340244203805
1776445012204507000,16.9665068359375,-0.11462474256753921,-0.32954759618639945,0.6666160893969237
1776445012229524000,16.99152392578125,-0.3252133663743734,-0.16234653441365807,0.1554008434616029
1776445012254540800,17.016540771484376,-0.9384054702281951,0.3761136421261355,-0.12371668830066919
1776445012279558000,17.041557861328126,-0.570012887340784,0.8462596859723329,0.044412776895985
1776445012304575000,17.066574951171877,0.5520224726200104,0.82185450883843,-0.34943069278597827
1776445012329591800,17.091591796875,0.35527006646394726,0.5263955716714263,-0.6599914105601609
1776445012354609000,17.11660888671875,-0.06981821711361408,0.17714776117168365,-0.1419436151910573
1776445012379625700,17.141625732421875,-0.10771160217821597,-0.23287198648117483,0.584645443001017
1776445012404642800,17.166642822265626,-0.3565940085440874,-1.268183368039131,0.5413275486696512
1776445012429660000,17.191659912109376,-0.8598492353856563,-0.48811128759309647,1.2300110199026764
1776445012454677000,17.216677001953126,0.2880366051465273,-0.5569556912384926,0.8254425964582711
1776445012479693800,17.24169384765625,0.3022784809887409,-0.6756487061582506,0.6968044530421496
1776445012504711000,17.2667109375,0.4140110092461109,0.11216792399995028,0.7195835633441805
1776445012529728000,17.29172802734375,0.14350246200561523,0.48689526286683976,0.3149971658516675
1776445012554744800,17.316744873046876,1.2293290289878844,0.3983461879286915,-0.6948092606369406
1776445012579757800,17.3417578125,1.550178354933858,0.05749605728760361,-0.14719072206430137
1776445012604775000,17.36677490234375,-0.6371054788827896,0.3453584749110043,0.37075858136638995
1776445012629792000,17.3917919921875,-0.12839257115721703,0.35950215107575056,0.1835640944873914
1776445012654808800,17.416808837890624,1.5144430246859788,0.2794454485423863,0.059740333649632514
1776445012679825700,17.44182568359375,0.8339011396586895,0.13182605273723602,0.09913672085544094
1776445012704842800,17.4668427734375,-1.7029788066387175,0.7045186806812882,-0.11538487675245851
1776445012729859800,17.49185986328125,-1.0144956072181464,1.079942696575448,-0.17359896438261493
1776445012754877000,17.516876953125,0.9519827446818351,0.40269006235189736,-0.04531426948008593
1776445012779893800,17.541893798828124,-0.17764847723543642,0.12437310638278722,0.0650800598429283
1776445012804910800,17.566910888671874,-0.7197884382665157,-0.08682144742794334,0.6635325902983545
1776445012829928000,17.591927978515624,-0.11515198131203651,-0.15296996305286883,0.2925885510961525
1776445012854945000,17.616945068359374,1.0372568896025418,-0.14786584484688936,0.1856892699478194
1776445012879961900,17.6419619140625,0.7797638912796974,-0.3375951474331319,0.28460376288732514
1776445012904978700,17.666978759765627,-0.07146364623308181,-0.24846483854092657,-0.6115462363429367
1776445012929995800,17.691995849609373,-0.8848936602711677,0.45122517987489696,-0.3360637366147712
1776445012955012900,17.717012939453124,-0.36011516840755936,1.6866193541206418,1.2554888677693903
1776445012980029700,17.74202978515625,1.4624883810430764,0.9682190822768956,-0.013639005445083603
1776445013005046800,17.767046875,0.8464011402696371,0.21989165500737726,-0.5145191828515381
1776445013030063900,17.79206396484375,0.09874211378097533,-0.1576785791352391,-0.35372780545800925
1776445013055081000,17.8170810546875,0.44080899980068206,-1.151850360248983,0.2067645172077231
1776445013080097800,17.842097900390623,-0.36007366735339164,-1.509678440632671,-0.035406280956603586
1776445013105115000,17.867114990234374,-0.24797464387118814,-0.3293289849996567,0.3619812910730019
1776445013130132000,17.892132080078124,-0.4651140044957399,-0.02137479646205902,0.6225070446878671
1776445013155148800,17.917148681640626,0.05217150126397609,0.4226692397370934,1.441079828441888
1776445013180166000,17.942165771484376,-0.05406184505522251,0.43585576130747794,0.6527125786636024
1776445013205182700,17.9671826171875,-1.035014663633704,0.2007956901974976,0.03282375365011394
1776445013230199800,17.99219970703125,-0.9029559711843729,-0.36272476638406514,0.2753633668605238
1776445013255217000,18.017216796875,-0.5631009159952401,-0.2868091091781855,-0.1889100951578468
1776445013280234000,18.04223388671875,-0.14726853654086589,0.01638232193700969,-0.14925839518383144
1776445013305250800,18.067250732421876,0.15988485700786112,0.031905250565707685,-0.6634656625419855
1776445013330268000,18.092267822265626,0.36390754642784595,0.035787060435116286,-0.7885810386594384
1776445013355285000,18.117284912109376,0.05931552779972553,0.38171054881773886,-0.31471593775749207
1776445013380302000,18.142302001953126,0.265793209156394,0.39511772740148005,-0.053581952583789824
1776445013405319000,18.16731884765625,-0.1103378590285778,0.3818145206488669,0.2166238488504663
1776445013430335700,18.192335693359375,0.0847878227084875,0.3099507691822946,0.48633350079823284
1776445013455352800,18.217352783203125,0.4019903165847063,-0.1976829650044441,1.0495635595984756
1776445013480370000,18.242369873046876,-0.4542179319500923,-0.4061933942977339,1.222662629901245
1776445013505386800,18.26738671875,-0.4048737630665302,-0.3317271321825683,1.2503572039693593
1776445013530403800,18.29240380859375,-0.0924351225912571,-0.40712161505855615,0.757306633343175
1776445013555421000,18.3174208984375,0.4434060305565595,-0.6318842371031641,0.24710155083108692
1776445013580441600,18.342441650390626,0.1516898601144552,-0.8302339223880321,0.07692812218405305
1776445013605458700,18.367458740234376,-0.002297171026468277,-0.8400497254163026,-0.3111829413257539
1776445013630475800,18.392475830078126,0.22287468940615654,-0.7663657727852463,-0.4201138561658561
1776445013655492900,18.417492919921877,0.46000528317987915,-0.560358777680248,-0.23707411434613168
1776445013680509700,18.442509765625,0.2787953140705824,-0.38076179672554133,0.23368783290870487
1776445013705526800,18.46752685546875,-0.3390945922106504,-0.10493081235326826,0.8805034624882042
1776445013730543900,18.4925439453125,-0.2506517541259527,-0.04024659712724388,0.8828630312263965
1776445013755560700,18.517560791015626,-0.18271335940957067,0.3663997285697609,1.1911154720582067
1776445013780577500,18.54257763671875,-0.0872667800426483,0.6396091322667896,0.5558779790043831
1776445013805594600,18.5675947265625,0.6832166571944952,0.15380794824697078,-0.3311410759229213
1776445013830611700,18.59261181640625,0.13862404231429099,-0.1748656415838748,-0.4911763742521405
1776445013855628800,18.61762890625,-0.5039700971126556,-0.40890305511523034,-0.46875104582384225
1776445013880645600,18.642645751953125,-0.09568798690736294,-0.36482648790366945,-0.7088966035045683
1776445013905662700,18.667662841796876,0.22805764500200748,0.08718920302810147,0.3080969580091536
1776445013930679800,18.6926796875,-0.785561179381609,0.8183866135321557,0.5727373438686132
1776445013955697000,18.71769677734375,0.23956454292237758,-0.6718782477088272,-0.9443984270326793
1776445013980713700,18.742713623046875,-0.13455226283073424,-1.3053741577923297,-1.3445955765902995
1776445014005730600,18.76773046875,-0.4455950650334358,-0.969573638691008,0.9129303257752209
1776445014030747600,18.79274755859375,-0.6918599823772907,0.10578742918260395,2.3484883951209485
1776445014055764700,18.8177646484375,-0.39844519132375716,0.0116088239248842,1.900777653107792
1776445014080781800,18.84278173828125,-0.29551439368128773,-0.7670859768185764,-0.019758155045658348
1776445014105798700,18.867798583984374,-0.45304304295182224,-1.7030854818835854,-0.0419027668364346
1776445014130815700,18.892815673828125,-1.067066921454668,0.2157780091434717,1.1675146701097487
1776445014155832800,18.917832763671875,-0.5769476550400257,0.7136204171560704,-0.4450282249309122
1776445014180849700,18.942849609375,1.7245745523750782,0.7758817891493439,-0.6693066436551511
1776445014205866800,18.96786669921875,2.1674527596652506,1.3347797004967927,0.03815715056732297
1776445014230883800,18.9928837890625,0.43277883808016776,0.7484840791359544,-0.21976357164829968
1776445014255900700,19.017900634765624,-0.19093933596312998,-1.2379355292916296,-0.724221890669316
1776445014280917800,19.042917724609374,-0.14143266999423504,-1.3986680891700087,0.5125953021168709
1776445014305935600,19.067935546875,-3.231240513318777,-0.6004479557560757,2.445336657979339
1776445014330951700,19.09295166015625,-1.015051487535238,0.19407060145987196,2.264444230386615
1776445014355968800,19.11796875,0.5714841289371252,-0.5026360720299184,-0.9371234675936401
1776445014380985900,19.14298583984375,0.8000584912896156,-1.2956342695444822,-2.1736317405611274
1776445014406002700,19.168002685546874,0.18451251778602598,-1.2484098692938685,-2.031595843976736
1776445014431020800,19.193020751953124,0.29312253010869027,-0.9313638811536132,-1.5551030979849396
1776445014456036900,19.218036865234374,0.3894768719702959,-0.7182356558665632,-0.5135838747628033
1776445014481054000,19.243053955078125,0.2825818468719721,0.13198179128821938,0.26001228766739365
1776445014506070800,19.26807080078125,0.05130933147668838,-0.17029278071038423,-0.38354675126895305
1776445014531089000,19.2930888671875,0.40382513079643245,-0.3325560572873801,-0.28949118786901235
1776445014556104700,19.318104736328124,-0.016609774017333982,0.20045907865427434,0.7070161965854466
1776445014581118700,19.34311865234375,-0.19826164167523383,0.05411963965706527,1.0530031786583363
1776445014606135800,19.3681357421875,0.4777805938452482,0.36712862736620006,0.09208703980594873
1776445014631153000,19.39315283203125,1.0645908867299556,-0.46364071707278487,-1.172479745171219
1776445014656170000,19.418169921875,0.04946341134905815,-0.8210393199980258,0.5789416053362191
1776445014681186600,19.4431865234375,-0.5894856495738029,-0.5902854216493666,1.4982934155263006
1776445014706203600,19.46820361328125,-0.320046192869544,-0.4204351970747113,0.31172749653123316
1776445014731221800,19.4932216796875,0.26037761384844776,-0.6267534500859677,-0.0007153086625039577
1776445014756237800,19.51823779296875,-0.2802472664445638,-0.8797507444247603,0.84498053288199
1776445014781254700,19.543254638671876,-0.13254735274910925,-0.7379334590271115,0.6898359292037785
1776445014806271700,19.568271728515626,0.6913526173770427,-0.23803046522289514,-0.49286498492620884
1776445014831288800,19.593288818359376,0.9874147080689668,-0.14155571185201404,-0.1050417984470725
1776445014856306000,19.618305908203126,-0.9701526076227426,-0.4091192916817963,-0.333170499391295
1776445014881322800,19.64332275390625,-0.6318985578894615,-0.3551252511657774,-0.3324934403799474
1776445014906339800,19.66833984375,-0.3282891205579042,-0.7022403604857623,-0.15729684980865566
1776445014931356700,19.693356689453125,0.20428455522656438,-0.11315072449222206,0.3792339661037549
1776445014956373800,19.718373779296876,-0.45828503525853154,-0.14318009818345306,-0.05198551370520144
1776445014981390600,19.743390625,0.9784311911463737,-1.143368070846796,-1.1486296446368098
1776445015006407700,19.76840771484375,-0.5995908640027046,1.0822744274586438,0.44627058967482297
1776445015031424800,19.7934248046875,0.46517654833793637,0.7496674437016249,0.2779595390998758
1776445015056441900,19.81844189453125,1.1850205161839722,1.2175158415973186,-0.6911978652067482
1776445015081458700,19.843458740234375,0.17771277464330196,0.6316388840399683,-1.0777550503380595
1776445015106475800,19.868475830078125,-0.1176788694411516,-0.9113789316147566,-1.0505527898315339
1776445015131492900,19.893492919921876,0.15517711770832537,-1.329002140008658,-1.431054547381401
1776445015156510000,19.918510009765626,-0.6183288822203874,-0.6107732061438262,-0.39235582494009286
1776445015181526800,19.94352685546875,0.10802315234541893,-1.0110099570594728,0.54545829179883
1776445015206543600,19.968543701171875,-0.11790507941246033,-0.9487477813486009,0.6438286496579647
1776445015231560700,19.993560791015625,0.4105675907939672,-1.0487269626438618,0.8233196860201656
1776445015256577800,20.018577880859375,-0.4514350232332945,-0.01179075636304915,2.1557915479660035
1776445015281595000,20.043594970703126,-0.7320441087275743,-0.07060571422949433,2.5256910282850265
1776445015306611700,20.06861181640625,-0.9006541239827871,-0.8700723771058022,0.7643485877439379
1776445015331628800,20.09362890625,0.10107260255515575,-1.2326081967890261,-0.6667025986365973
1776445015356646000,20.11864599609375,0.9525871403157711,-0.8342948151513934,-1.4005530261337755
1776445015381662700,20.143662841796875,0.5052034382998943,-0.5645845786817372,-1.0205287499025464
1776445015406679800,20.1686796875,0.5461696549385786,-0.22698928511813282,-0.7267880878955125
1776445015431697000,20.19369677734375,0.13721826716959476,-0.13632847872301934,-0.6944196037322282
1776445015456713700,20.218713623046874,-0.28026304853558537,-0.01101487661972642,-0.9357771675512194
1776445015481730800,20.243730712890624,0.24476795678436755,-0.3325731545526534,-1.2691262018471956
1776445015506747600,20.26874755859375,-1.7029525031536816,0.3792784993652254,-0.18288871597647666
1776445015531764700,20.2937646484375,0.31292671625316143,1.004125019851327,0.8748094886302947
1776445015556781800,20.31878173828125,-0.19899697021245955,0.9614147360242903,1.1532795162692666
1776445015581803000,20.343802978515626,-0.5216401938378811,0.47823871287629005,2.9444866414591666
1776445015606819800,20.36881982421875,-1.0207236879527568,0.2715902049973607,0.7158548982098698
1776445015631837000,20.3938369140625,0.4079419184654951,0.5142481108251958,-0.37025749997645613
1776445015656854000,20.41885400390625,0.8080062354236841,0.6269793677963316,-1.0738134731054305
1776445015681870800,20.443870849609375,0.6834954741358756,0.23235716882683335,-0.7418851192623377
1776445015706888000,20.468887939453126,0.10137187776267528,-0.48562202806062993,-0.04694149165600538
1776445015731905000,20.493905029296876,0.3262485546410084,-0.36272754286304115,-0.19984774182289838
1776445015756922000,20.518922119140626,0.7923568308711052,0.04145706889554858,0.7103016479969024
1776445015781939000,20.54393896484375,0.3945715647608041,0.48580560446660964,1.6448527808845042
1776445015806956000,20.5689560546875,-0.4062164098471403,0.29379993617990985,1.1643040375001728
1776445015831973000,20.59397314453125,-0.5628092395722866,-1.1115041752047836,-1.106805788255483
1776445015856990200,20.618990234375,-0.377633873963356,-1.0772222586356104,0.5345381077252328
1776445015882006800,20.6440068359375,-0.7118021156877279,-0.2786662991297431,1.6527205916501582
1776445015907024000,20.66902392578125,-0.30041444068253037,-0.6681360655058175,0.08988923750072716
1776445015932041000,20.694041015625,0.41539398803710936,-0.27035737526677545,0.09593304770961403
1776445015957058000,20.71905810546875,-0.2567769590079784,0.3428718822596594,0.7417426420517266
1776445015982075000,20.744074951171875,-0.07641746924817562,0.5083364756286144,0.21459449844732878
1776445016007092000,20.769092041015625,0.6808388221472501,0.37182723351120944,-0.2911247073549777
1776445016032109000,20.794109130859376,-0.05516776047050952,0.41902839901670813,0.04554945277571678
1776445016057126100,20.819126220703126,0.05229541990458965,0.3885650178223848,-0.7762257072161882
1776445016082143000,20.84414306640625,1.2250485751897096,0.5045042039893567,-1.0071648259386419
1776445016107160000,20.86916015625,0.5850391915589571,0.5194109734810889,-0.37302068107947706
1776445016132177000,20.894177001953125,-0.49815936500728125,0.42931839542798694,0.21539222469627856
1776445016157194000,20.919194091796875,-0.8229045293480157,0.4580374902382493,0.9630082888260483
1776445016182210800,20.9442109375,-0.5763473510593176,0.0974767700202763,1.0440803058817982
1776445016207228000,20.969227783203124,-0.5352589693456888,0.2965927269699052,1.0157238338388501
1776445016232245000,20.994244873046874,-0.7392185304015875,1.032965695214644,0.34229134242534637
1776445016257262000,21.019261962890624,0.9571651157557963,0.5451726432578637,-0.9881834274191409
1776445016282279000,21.04427880859375,0.8861690870344638,0.26883557252697643,-0.8137631184499711
1776445016307296000,21.0692958984375,1.2263099734276532,-0.452095423370786,0.07268032854646445
1776445016332313000,21.09431298828125,-1.0290735831469298,-0.019933073221147058,1.0897630296483636
1776445016357330200,21.119330078125,-0.7366559864372014,-0.09102803227230906,1.0361556503623723
1776445016382346800,21.1443466796875,0.275858676096797,0.16809731649272142,0.4315153940156102
1776445016407363800,21.16936376953125,-1.424508486738801,0.9549581072308122,0.2127995778545737
1776445016432381000,21.194380859375,2.4851544352352617,-0.08905110617615282,0.18640337303392587
1776445016457398000,21.21939794921875,-0.9982324546813964,0.6315006446130573,-0.7917446172568947
1776445016482414800,21.244414794921877,0.5892044945448637,0.8636144331380724,-0.9207294552188366
1776445016507432000,21.269431884765623,1.6741864273965357,0.7587865697026253,-0.643398660742864
1776445016532449000,21.294448974609374,1.0724065289169549,-0.08335150629505515,0.013515461263805628
1776445016557466000,21.319466064453124,0.0482236404210329,-0.9259110225751995,0.5565518596779555
1776445016582477300,21.344477294921877,-1.055386420533061,-0.5857748123571276,0.4546991395957768
1776445016607494400,21.369494384765623,0.13455693900585175,-0.6769212103120982,0.6912232188437134
1776445016632511500,21.394511474609374,0.3069055562674999,-0.38323081718757745,0.799134362182021
1776445016657528300,21.4195283203125,-0.6143576405018568,0.175993111243844,0.26514270935840906
1776445016682545400,21.44454541015625,-0.40110125879049296,0.12343626392409204,0.43707573155649004
1776445016707562500,21.4695625,0.21981354826986788,-0.0482674795627594,-0.004040032638423145
1776445016732579600,21.49457958984375,0.6362386329203844,0.11773834454342723,0.060199507560022174
1776445016757596200,21.51959619140625,-1.5226380215793847,0.8668164440497755,0.49091213382538407
1776445016782613200,21.54461328125,-0.4320277274519205,0.6766499921552837,0.2604612370112911
1776445016807630300,21.56963037109375,-2.7983587993860244,1.4235251747898756,0.49406734645329414
1776445016832647400,21.5946474609375,2.272034247124195,0.25861601100340487,0.21804942467417568
1776445016857664300,21.619664306640626,1.6840607556790113,-0.7738520368874072,-1.8876772023856638
1776445016882681300,21.644681396484376,-0.015880290699005126,-0.021494185058027505,-0.7013472841035574
1776445016907698400,21.669698486328127,-0.6993114674270152,0.04234524990692735,0.18185252306284383
1776445016932715500,21.694715576171873,-0.7579436891376972,-0.45782063261717554,0.34859340171162034
1776445016957732400,21.719732421875,-1.2564175269216298,-0.7880877752497791,-0.013800817543826997
1776445016982749400,21.74474951171875,-0.1551239262163639,-1.0210334845542908,0.09197028155848383
1776445017007766300,21.769766357421876,0.48065585702061653,-0.523934149993956,-0.5216510805580765
1776445017032783400,21.794783447265626,-0.0035521395236253737,-0.33741314192973076,-0.24703429428115486
1776445017057800200,21.81980029296875,0.2249795527309179,0.2189144074730575,0.23469028794951735
1776445017082817300,21.8448173828125,0.1923456956297159,0.5304415956592187,0.5635285668227821
1776445017107834400,21.86983447265625,-0.250531927138567,0.6080933559427038,0.40716348143890496
1776445017132851500,21.8948515625,0.7820569706529379,0.08747697046091779,0.07303345283307135
1776445017157868300,21.919868408203126,0.4301660252332687,0.054801027783658356,-0.08064926159903407
1776445017182885400,21.944885498046876,0.7292506786167621,0.17521949652284383,0.3399212522931397
1776445017207902500,21.96990234375,0.3855687586158514,0.1450273700179532,1.090980004222691
1776445017232919600,21.99491943359375,0.23535364722907542,0.14480682260245084,1.1736058265917002
1776445017257935400,22.019935302734375,0.5004845930844545,0.31254210084974765,1.4744732717387377
1776445017282952200,22.0449521484375,-0.08032149094939231,0.10244169895127415,1.4479406541220843
1776445017307969300,22.06996923828125,-0.2604851658761501,-0.6026389264617115,1.02029574486427
1776445017332986400,22.094986328125,0.2643260592132807,-0.8043371184568852,0.5130839624166489
1776445017358003500,22.12000341796875,1.1058487797915935,-1.3152119534566997,-0.41084012412503357
1776445017383020300,22.145020263671874,0.3136819185346365,-1.064856844189763,-0.8711876448713243
1776445017408037400,22.170037353515625,-0.3313999460548162,-0.6883724325224757,-0.6566305558249353
1776445017433054500,22.195054443359375,0.9680302086412906,-0.735517337796092,0.11767536230981349
1776445017458071600,22.220071533203125,-0.354832259568572,-0.00792655521556735,-0.2855323672406375
1776445017483088100,22.245088134765624,-0.6608464199542999,0.22864070558696983,-0.18370894631817936
1776445017508105200,22.270105224609374,-0.12504501429498194,0.24711254714913664,0.07215498949810863
1776445017533122300,22.295122314453124,-0.38463761524558066,-0.0035946634911000726,0.28286475546658035
1776445017558139400,22.320139404296874,-0.8176414942532777,-0.12060688571706414,0.3486278519704938
1776445017583157200,22.3451572265625,-0.6858861686646938,-0.4565018781688064,0.0915609701052308
1776445017608174300,22.37017431640625,0.3608960896521807,-0.7407969586994498,-0.5120369375817477
1776445017633191400,22.39519140625,0.5008727156192064,-0.7135599191404879,-0.4121627510309219
1776445017658208300,22.420208251953124,-0.5527274060189724,-0.6765598296537995,-0.627710750810802
1776445017683225300,22.445225341796874,-0.2569616679251194,-0.9318705155014991,-0.7892777156867087
1776445017708242200,22.4702421875,0.4573942238986492,-1.1433815148502589,-0.19300021401569245
1776445017733259300,22.49525927734375,-0.522809822139144,-0.2933426208664663,0.45950361726805566
1776445017758276400,22.5202763671875,-0.2658890707463026,-0.35049642232134937,0.16633271797299384
1776445017783293200,22.545293212890623,0.4181073386490345,-1.1733764748152344,-0.21760741652771828
1776445017808310300,22.570310302734374,0.10377543177306651,-1.0872424251295625,-0.410475674726814
1776445017833327400,22.595327392578124,-0.6125993986576795,-0.532600527258776,-0.12248700037524103
1776445017858344200,22.62034423828125,-0.632100802463293,-1.107523581136018,-0.2057056740708649
1776445017883361300,22.645361328125,-0.15388766241967677,-1.394707514975965,-0.02419884090684354
1776445017908378400,22.67037841796875,-1.3069623037666083,-0.27886589508876203,1.460981337480992
1776445017933395500,22.6953955078125,-0.14747428824603556,-0.08029299550727009,1.2324367857448757
1776445017958412300,22.720412353515623,2.1088766520559785,-0.06595248159617186,0.4910790513575077
1776445017983429000,22.74542919921875,1.3350491650879381,-0.10746259585320948,-0.002965571807324886
1776445018008446200,22.7704462890625,-0.2636982827037573,0.16239508626312016,0.7994305686496198
1776445018033463300,22.79546337890625,-1.0605407345563174,0.268174843595922,1.0017873706839977
1776445018058480400,22.82048046875,0.48188978272974486,0.03757847389653325,0.1098464222498238
1776445018083497200,22.845497314453127,0.544958525583148,-0.13517967401407657,-0.1876449705928564
1776445018108514300,22.870514404296873,-0.19393910230100153,-0.11692819720432161,0.3981272114157676
1776445018133531400,22.895531494140624,-0.453660882589221,0.2569010237790644,0.6274483004823327
1776445018158548500,22.920548583984374,0.9357990871220827,0.477922267338261,0.08819427015110849
1776445018183565300,22.9455654296875,1.1853992863684892,0.3814479523587972,0.3911249314382672
1776445018208582100,22.97058203125,0.44139761334359645,0.08783785792887211,0.5511436439588666
1776445018233599200,22.99559912109375,-0.25232874742746353,0.17608466198481618,0.8406374621763825
1776445018258616300,23.0206162109375,-0.5545400083988905,0.26243900335766374,1.2304583252787589
1776445018283633200,23.045633056640625,-1.1644792479366064,0.13678141012229025,1.2140811909735203
1776445018308650200,23.070650146484375,-0.40408699660301206,-0.26626893690936265,0.42789194282144305
1776445018333667300,23.095667236328126,0.2537444594442844,-0.044907757338695224,-0.22396716081798076
1776445018358684400,23.120684326171876,0.9318716845452785,-0.4468734874714166,-0.7784399491995573
1776445018383701200,23.145701171875,0.12242343361973762,-0.5364017096400261,-0.0013677812218666075
1776445018408718300,23.17071826171875,-1.1224831037282943,0.24350743532925842,0.855122206863761
1776445018433735400,23.1957353515625,-0.48092707517743105,0.31018545472100373,0.6785299606829881
1776445018458752500,23.22075244140625,0.5407382775396108,0.5979156242668628,-0.06548340277969837
1776445018483769000,23.24576904296875,0.9348737889707088,-0.1594574253760278,-0.33638299516439435
1776445018508786200,23.2707861328125,-0.019766776743531226,-0.6318565453786402,-0.5892600241243839
1776445018533803300,23.29580322265625,-0.7420745043545961,-0.2466045245617628,0.23426760555803774
1776445018558819300,23.3208193359375,-0.5917109244078398,0.2650846955608576,0.22554887705147264
1776445018583836400,23.34583642578125,-0.10771394026577472,0.23452947136461733,0.523984711137414
1776445018608853200,23.370853271484375,0.1608019718527794,0.6034026773758232,1.1078969444930553
1776445018633870300,23.395870361328125,0.25282383746802806,0.42178091259524225,0.5861006833106279
1776445018658887400,23.420887451171875,0.6029091947704553,-0.14851049942597747,-0.26262217790484427
1776445018683904500,23.445904541015626,-0.088084233905375,-0.017948767536133527,-0.21459785944819448
1776445018708921300,23.47092138671875,-0.15450579431802033,-0.06012172961607575,-0.6163987909406423
1776445018733938400,23.4959384765625,0.2474018124192953,-0.3180699243605137,-0.9700386258542537
1776445018758955500,23.52095556640625,0.0011938859596848487,-0.6176702721811831,-0.780221571919322
1776445018783972600,23.54597265625,-0.38005087197721005,-0.5616694218873978,-0.22853344582021234
1776445018808989200,23.5709892578125,0.3305558964461088,-0.07543342664688825,-0.07526479208171367
1776445018834006300,23.59600634765625,0.4856313073456287,-0.4534321883998811,-0.6010977614343166
1776445018859023400,23.6210234375,0.03680062139183283,-0.4523683585606515,-0.10985913560092449
1776445018884040400,23.64604052734375,-0.3452642207562923,0.270205764901638,0.21993746691048144
1776445018909057300,23.671057373046875,0.05797960302084684,0.3606216566249728,-0.0930798502355814
1776445018934074400,23.696074462890625,-0.07016279276758432,0.05913198792636394,-0.24179274036586285
1776445018959091500,23.721091552734375,-0.0930406872689724,0.49588031415939327,-0.20329788227677345
1776445018984108500,23.746108642578125,0.25114187573045493,0.3577827799372375,-0.4213163638234138
1776445019009125400,23.77112548828125,0.15741963593810795,0.20441256552040576,-0.28974399358630176
1776445019034142500,23.796142578125,0.10611761098504066,0.30150574305057526,-0.026661796954274175
1776445019059159600,23.82115966796875,0.3634305765658617,0.23875761045366525,0.1291600483983755
1776445019084176400,23.84617626953125,0.08140724035948514,0.26579978502765295,0.3113303869724274
1776445019109193200,23.871193115234377,-0.34933132406473155,0.0311735752902925,-0.061572951337695116
1776445019134210300,23.896210205078123,-0.10400018043965101,-0.18971140160337088,-0.018204934254288672
1776445019159227400,23.921227294921874,0.11700403891950845,0.07087941660434008,0.4599374786406755
1776445019184244500,23.946244384765624,0.07693477112054824,0.38714974419698117,0.7017723045825958
1776445019209261300,23.97126123046875,-0.12457096704244613,0.2633634977914393,-0.042589433926343914
1776445019234278400,23.9962783203125,0.050234687982499596,0.5220955363899469,-0.31729134120345115
1776445019259295500,24.02129541015625,0.5614540255710482,0.0387527783729136,-0.5336421817988157
1776445019284312600,24.0463125,0.07803864070922135,-0.4219888562574982,0.389127912402153
1776445019309329400,24.071329345703123,-0.5227282813355326,-0.06680727179460227,0.6123141519755124
1776445019334346200,24.09634619140625,0.01754676260650158,-0.26861075079515573,-0.1593026732057333
1776445019359363300,24.12136328125,0.19578297660201788,-0.8182198786631226,0.22945348327457904
1776445019384380400,24.14638037109375,-0.4351043584182858,-0.49121451430544255,0.19281915836036204
1776445019409397200,24.171397216796876,0.09709083944261074,0.7740817539900541,-0.3273714211910963
1776445019434414300,24.196414306640627,1.500913973288238,0.4648904248729348,-1.4125444927006958
1776445019459431400,24.221431396484373,0.6649000792592763,0.5435976855587213,-1.6952303844690322
1776445019484448500,24.246448486328124,-0.3446995726108551,0.724429834331572,-0.13797989919185638
1776445019509465300,24.27146533203125,-0.47244683160185813,0.7885013244867325,0.5720645591735839
1776445019534482400,24.296482421875,0.7376229317732155,0.9107907564632594,0.4072714718580246
1776445019559499500,24.32149951171875,0.3596685936838388,1.5217192992992699,-0.25801439184844494
1776445019584516400,24.346516357421876,1.0903379069268704,1.5816897838763893,-0.2245487600982189
1776445019609533000,24.371532958984375,1.2412551752336323,-0.11006751765459775,-0.38449908355772494
1776445019634549500,24.396549560546877,0.9750270817913115,-0.8882113334517926,-0.07696049008369445
1776445019659566600,24.421566650390623,0.9180272835880517,-1.170922213530913,-0.002285480588674545
1776445019684583700,24.446583740234374,0.07984875887110829,-1.372298260899633,-0.9400666814386844
1776445019709600800,24.471600830078124,-0.08380231880247592,-1.1986334464728832,-0.9992238038063048
1776445019734617600,24.49661767578125,1.211286007297039,-1.9206325465261935,-0.4034317475646734
1776445019759634700,24.521634765625,-0.9422779277473687,-0.8035395383384079,0.617660189178586
1776445019784651800,24.54665185546875,-1.1268161644965409,-0.696675712095946,0.753967771244049
1776445019809668900,24.5716689453125,-0.7169976385042071,-0.4323728876277804,0.5157546429306269
1776445019834685700,24.596685791015624,-0.6009577684417367,-0.793257140711695,0.18674948305785655
1776445019859702800,24.621702880859374,-0.5113759894549846,-0.32326647009029985,0.2175689842134714
1776445019884719900,24.646719970703124,-0.9339607657790183,0.5553741211354732,0.3235457254230976
1776445019909736700,24.67173681640625,0.2823705422088504,0.1460778654515743,0.6216840378671884
1776445019934753500,24.69675341796875,0.5558214265115559,0.8151790496625005,0.37092648527920247
1776445019959770600,24.7217705078125,1.1156880367606878,0.14511691146492958,-0.2978472205430269
1776445019984786700,24.74678662109375,1.4648402048662303,-0.6965842344202101,-0.07493453721404075
1776445020009803800,24.7718037109375,-0.8949719866931438,0.14085560075864195,0.30157062498033044
1776445020034820900,24.79682080078125,-2.256149864771962,0.9578514905847608,-0.8047960412055254
1776445020059837700,24.821837646484376,2.6048709479838608,1.0225003422364591,-0.9185001617968082
1776445020084854800,24.846854736328126,2.063578835953772,0.40815629186853764,-0.7377496268928051
1776445020109871600,24.87187158203125,0.5282525977149606,-0.3214860164143145,-0.5762310312032699
1776445020134888700,24.896888671875,1.4158561014667153,-0.7716076189614832,0.2589046186864376
1776445020159905800,24.92190576171875,-3.114669897380471,-0.36937998648956416,0.40432548153400416
1776445020184922600,24.946922607421875,-0.3335296515598893,-0.6653720806851983,0.9640765025794505
1776445020209939700,24.971939697265626,0.2708428937613964,-1.0652861755177379,-0.4746744445234537
1776445020234956800,24.996956787109376,-0.10572013610005378,-0.37380934723913667,-1.6652175235211848
1776445020259974000,25.021973876953126,1.5003388037487864,-0.3155129333540797,-0.5650625714570283
1776445020284990700,25.04699072265625,-1.5575512217894196,1.0425620102733373,0.9310282194584607
1776445020310007800,25.0720078125,-0.5675447436615825,-0.17968261341154573,1.4661293678939342
1776445020335025000,25.09702490234375,-0.1000245548069477,0.1843742783591151,0.3776759595394134
1776445020360041700,25.122041748046875,2.8399200593084095,0.660102031327784,-1.4712071095496415
1776445020385058600,25.14705859375,3.1291213243201375,-0.2674588042810559,-1.2443833902567625
1776445020410075600,25.17207568359375,1.3952251091092824,0.717292529797554,0.8351210368424653
1776445020435092700,25.1970927734375,0.4796504793703556,-0.220922970816493,0.9602695115119219
1776445020460109800,25.22210986328125,-0.03298866188824177,-0.5907160681515932,0.8490595458239316
1776445020485126700,25.247126708984375,0.9524012623548507,-0.1898816436037421,1.0723919158697128
1776445020510143700,25.272143798828125,1.5789385854721067,0.013021394136548042,-0.5461480276286602
1776445020535160800,25.297160888671876,1.8763493142940102,-0.21918138784617183,-0.8474035953104495
1776445020560178000,25.322177978515626,0.5821498998582363,-0.8631167127490044,-0.10082125814259052
1776445020585194800,25.34719482421875,-0.39112522369921204,-0.29632921719551086,0.8279962995290756
1776445020610212000,25.372212158203126,0.6349044617071747,0.19332915370911358,0.42743338539898396
1776445020635229200,25.397229248046877,0.9950579162985086,-0.13221592883765695,-0.4943406835019588
1776445020660246000,25.42224609375,-1.3000029861479996,-0.5706301424562931,-0.0720785632610321
1776445020685263000,25.44726318359375,-0.9217822522073984,0.28389292947053907,0.6340706412315368
1776445020710280200,25.4722802734375,-0.4690989824786782,0.7786720043897628,0.6915431715130805
1776445020735297300,25.49729736328125,-1.1973939678058028,-0.009367840065062045,0.5463783292531967
1776445020760314000,25.522314208984376,-1.9513567706137895,-0.46485476903766393,-0.1607365054011345
1776445020785331200,25.547331298828126,-0.47133024866208434,0.40336540433019397,0.022513445103168488
1776445020810348000,25.57234814453125,0.5156016443260014,0.054721185746788976,-0.48223114351332186
1776445020835365000,25.597365234375,-0.4462836318194866,-0.519089048050344,-0.8170394367069006
1776445020860381200,25.622381103515625,-1.392849173758179,0.0699763302847743,-1.1458610567063092
1776445020885398300,25.647398193359376,-0.38089272962883114,-0.46074090397804973,-0.9429518814861774
1776445020910415000,25.6724150390625,0.2581156602658331,0.2937809940174222,0.46317280730009075
1776445020935432200,25.69743212890625,-0.22761983810663222,0.34760055474936963,0.8436065411150455
1776445020960449300,25.72244921875,0.1550586058951914,0.2834367101356387,0.3013227876991033
1776445020985466400,25.74746630859375,0.92126158933416,-0.3678543843574822,-0.03912380364239216
1776445021010483200,25.772483154296875,0.05048471722081303,-0.43415582552179693,0.011451952862739562
1776445021035500000,25.7975,0.10047244470492005,-0.45848348044008014,0.7672855179786682
1776445021060517000,25.82251708984375,-0.6934434521764516,-0.7196767945855855,0.07827800242304801
1776445021085534200,25.8475341796875,-0.8491096685759723,-0.6899059257000685,0.2169417922258377
1776445021110551000,25.872551025390624,0.5252104535400867,0.010510434228926896,0.7233972764134406
1776445021135568100,25.897568115234375,-0.10174436433687806,0.3418240171745419,0.7219312955141067
1776445021160585200,25.922585205078125,-0.6575292582303285,-0.337818727055937,-0.3182598939746618
1776445021185602300,25.947602294921875,-0.47262861790955063,0.4614709718182683,-0.5424965193837881
1776445021210619100,25.972619140625,-0.17709551952779293,-1.1353912467487155,-0.7834194911777973
1776445021235636200,25.99763623046875,-0.2512282388396561,0.025695874531567096,0.23562720347344873
1776445021260653300,26.0226533203125,0.003809329155087471,0.4078158078677952,-0.40955519888103004
1776445021285670100,26.047670166015624,0.8525497260272502,-0.5100245748460293,-1.7227864999145268
1776445021310687000,26.07268701171875,-0.09778642049133777,-0.14251812714338302,-0.8549965346574783
1776445021335704000,26.0977041015625,-0.7772872720330953,0.30729850110784174,-0.8365788344353436
1776445021360721200,26.12272119140625,-0.27249124549031256,0.028344635474681853,0.4721773670107126
1776445021385738200,26.14773828125,-1.1002905611425637,0.0666542001247406,0.7059878764510155
1776445021410755000,26.172755126953124,-0.15018208590000867,-0.09084697661697864,-0.034547581768035886
1776445021435772200,26.197772216796874,-1.3724462910681963,-0.5400920885905623,-0.07713643117249011
1776445021460789200,26.222789306640625,-1.1481422995112835,-0.6907477833516895,0.09029051177799702
1776445021485806300,26.247806396484375,-0.1824462329059839,-0.6240213947735727,0.740730104008317
1776445021510823200,26.2728232421875,-1.2426549590289593,-0.4034729563578963,0.023617606952786443
1776445021535840000,26.297840087890624,-0.33429274488687516,-1.5770451729409396,-0.6836871973156928
1776445021560857000,26.322857177734374,1.4328602816291152,1.0787078210182488,0.5185165088593959
1776445021585874200,26.347874267578124,0.699490915647149,2.2074701511465014,0.5288298130810261
1776445021610890800,26.372890869140626,2.199611984992027,0.10248758391961454,0.0713461573332548
1776445021635906800,26.39790673828125,1.5922411346375942,-0.04486410086005926,-0.3838590320885181
1776445021660923600,26.422923583984375,-0.4715171495363116,0.8324854276418685,-0.4899608609825372
1776445021685940700,26.447940673828125,-0.9907073198735713,0.17037497910112143,-0.23373159898519513
1776445021710957800,26.472957763671875,-1.1066180105984211,-0.9188163881391286,-0.7076461650520562
1776445021735975000,26.497974853515625,-2.7352327733874318,-1.143843579404056,-0.6098042149811983
1776445021760991700,26.52299169921875,-2.634119546560943,-1.0357153592489659,-0.3805255037516355
1776445021786008800,26.5480087890625,-0.7409326408430934,0.06724412884190678,0.17678747649192808
1776445021811025700,26.573025634765624,-0.2995560702875256,-0.16568945163339374,0.7272697339326143
1776445021836042800,26.598042724609375,1.3358058286741374,0.24224121478572486,0.7241822893112897
1776445021861059600,26.6230595703125,-1.8886089302778244,-0.5999056290403008,-1.97940563801229
1776445021886076700,26.64807666015625,1.8111282157123088,0.2900483833603561,-0.3445458433538675
1776445021911093800,26.67309375,-0.3468479828163981,-0.2515649234481156,-0.049592590686678886
1776445021936110800,26.69811083984375,-0.8146852747961878,-0.5500669546380639,0.091698625010252
1776445021961127700,26.723127685546874,0.2595540225058794,0.17662614845037458,0.4951999306797981
1776445021986144800,26.748144775390625,0.44866351269334553,2.017773654851317,2.3029870192706583
1776445022011161900,26.773161865234375,0.2200324517175555,1.809257161143422,0.9939058236539363
1776445022036179000,26.798178955078125,-0.48825230349898335,0.2524734165951609,0.05319149196147918
1776445022061195800,26.82319580078125,0.2567950791865587,-0.6053986734986305,-0.7673463082551956
1776445022086212600,26.848212646484374,0.7783136924713849,-1.3423536428824066,-0.7997539553850889
1776445022111229700,26.873229736328124,0.019700871900469062,0.6715490157544612,1.160216329795122
1776445022136246800,26.898246826171874,-1.280057930228114,-0.891896232509613,0.941738414043188
1776445022161263600,26.923263671875,-0.3141996587984264,0.25109482171833514,-1.5491180322259663
1776445022186280700,26.94828076171875,2.334218608358502,-1.4127131272658704,-0.40925066297650337
1776445022211297800,26.9732978515625,0.2972410713434219,-1.676437128932774,-1.6350164465248584
1776445022236315000,26.99831494140625,-0.5025977127809077,-0.22940789056718347,-0.9253016585052013
1776445022261331700,27.023331787109374,-0.8115987069576979,-0.8742328577861189,0.278342894127965
1776445022286347500,27.048347412109376,-0.0818329914908856,-1.0768281447514891,0.2912608278900385
1776445022311364600,27.073364501953126,-0.035757469014450906,0.5403308657824993,0.39641923845410343
1776445022336381700,27.098381591796876,0.6870165609341115,0.4272252956062555,1.0871458328872918
1776445022361398800,27.123398681640627,1.8175328220576046,1.1484697778999804,0.9338216495692729
1776445022386415600,27.14841552734375,0.23595862738490103,2.0489456227064133,0.8552870420366525
1776445022411432700,27.1734326171875,-0.5125953021168709,0.7091425410896539,1.0703811605691909
1776445022436449800,27.19844970703125,-1.0813917263399808,-0.39256782372295856,0.19338848268091677
1776445022461467000,27.223466796875,0.7172013443827628,-0.7159083819627762,-0.6867272956639527
1776445022486483700,27.248483642578126,-0.0690717826604843,-0.12422434556186199,-1.0155261193096636
1776445022511500800,27.273500732421876,-0.06939283130839467,-0.4096890543937683,-0.010594459250569344
1776445022536517600,27.298517578125,0.7175240004658698,-0.5798495139613747,-0.05120353301465511
1776445022561534700,27.32353466796875,-0.3795452605426311,0.1992977067247033,-0.8684335238575935
1776445022586551600,27.348551513671875,-0.4981587804853916,-0.09875146613121032,-0.0008972411006689071
1776445022611569200,27.373569091796874,0.40214258453696966,0.35969781977832316,0.9398626832991838
1776445022636586200,27.398586181640624,0.11492635586261749,1.1713368587464092,0.2926590042501688
1776445022661603300,27.423603271484374,0.3204299314901233,-0.275149943305552,0.5856272205799817
1776445022686620000,27.448619873046876,-0.3167462745413184,-0.16435761850774286,0.4904863461613655
1776445022711637000,27.473636962890627,-2.7071181472763417,-0.7903288321748375,-1.0019646269470452
1776445022736654000,27.498654052734373,-1.0325894823133945,-0.6799424578294158,-0.2588338915377855
1776445022761671200,27.523671142578124,-0.15251082110852002,0.01767389611750841,0.6944798094868659
1776445022786688000,27.54868798828125,0.047238136515021324,0.2167392553910613,-0.05579027628302574
1776445022811705000,27.573705078125,-0.33947745404839513,-0.18209610429406164,-0.3852092776536941
1776445022836722200,27.59872216796875,-0.041921033145487306,0.5222565721705555,-0.4835352118492126
1776445022861739300,27.6237392578125,2.8347371037125586,0.49783320179283613,-1.1114718803703785
1776445022886756000,27.648756103515623,0.8909452153950929,0.45916386391967534,-0.31155192076861854
1776445022911772000,27.67377197265625,-1.6160264993727207,-0.4279077249124646,-0.06871522430777549
1776445022936789000,27.6987890625,-1.7981202655792234,-1.8167834649950265,-1.103192127802968
1776445022961806000,27.72380615234375,-2.424621640600264,-0.7494830270454287,-0.0655646513223648
1776445022986823200,27.7488232421875,-1.4470155021011828,0.013445172506570815,0.17408347823023795
1776445023011840000,27.773840087890626,1.7189380077928305,0.4518523718625307,-0.8618161515444517
1776445023036857000,27.798857177734376,1.9874320003405213,0.9140762078747153,-0.4480927270680666
1776445023061874200,27.823874267578127,1.5219520851418376,1.4592656196042895,-0.015743512576818466
1776445023086891300,27.848891357421873,1.5839181274503469,0.41423634243458507,0.7156734041631221
1776445023111908000,27.873908203125,-0.6820616419404745,-0.4035132883682847,0.8858873474836348
1776445023136925200,27.89892529296875,-0.9901792043462395,-0.18323066128194332,1.1787088488191366
1776445023161942000,27.92394189453125,-0.7391524794280528,0.2551774148568511,0.4222188656210899
1776445023186959000,27.948958984375,2.0785835128620267,-0.2642576701521873,-0.35054712959527967
1776445023211976000,27.973975830078125,1.041305872732401,-0.8075581993952393,0.029169395861029623
1776445023236993000,27.998992919921875,-0.4726385547816753,-0.16853081253916025,0.6417290470302105
1776445023262010000,28.024010009765625,-0.30075112529098985,0.5522726479887962,0.8206377534598112
1776445023287027200,28.049027099609376,1.2241241538211702,0.6660340517252683,1.0122387682020664
1776445023312044000,28.0740439453125,0.39706279705464836,0.1802513532102108,-0.16987608966827392
1776445023337061000,28.09906103515625,-0.5253811339318752,-0.2760091904833913,-0.22827391810119152
1776445023362078200,28.124078125,0.7641723543941974,-0.413978129889816,-0.16124153231382368
1776445023387095300,28.14909521484375,0.9440759170800447,-0.3738080320648849,-1.0008452675282955
1776445023412112000,28.17411181640625,0.5572966136306524,-0.7905012661322951,-0.9039245239555835
1776445023437129000,28.19912890625,-0.3430097198277712,-0.24821415171548722,-0.6633201165914535
1776445023462146000,28.22414599609375,1.11801501840353,-0.1834042642831802,-0.44626843425035473
1776445023487163100,28.2491630859375,1.7759341527342796,-0.6509693151928484,-1.049882562419772
1776445023512179200,28.27417919921875,-1.3649813620150089,-0.3217776928372681,0.07771569236516952
1776445023537196000,28.299196044921874,-0.8751993647307157,-0.07001900038272142,0.10977379540503024
1776445023562213000,28.324213134765625,0.339679114100337,-0.4402199478663504,-0.6937012263298035
1776445023587230200,28.349230224609375,-0.7606728218406439,-0.9533594398625195,-0.171737207365036
1776445023612246800,28.374246826171873,-1.574516677376628,-0.43285862531811,0.26901860094368457
1776445023637263600,28.399263671875,0.5744219359546899,-0.058138739105314016,-0.0672206018358469
1776445023662280400,28.424280517578126,0.9670178167283534,-0.012221622060984372,-0.6233183610707521
1776445023687297500,28.449297607421876,-0.39387481466829777,-0.7694096705257892,-0.193287360394001
1776445023712314600,28.474314697265626,-2.1447464223384856,0.12048194416314363,0.7466267608314752
1776445023737331700,28.499331787109377,1.2950591000050307,0.7200915128663182,-0.5129045141965151
1776445023762348500,28.5243486328125,0.8604097918778657,0.8565968094609677,0.7323346161067485
1776445023787365600,28.54936572265625,-0.2955740149140358,0.3739519705802202,1.0709025540947914
1776445023812382700,28.5743828125,-0.2297042431652546,0.28670871754363175,0.12672843733727931
1776445023837399800,28.59939990234375,1.2117068630576133,0.7598717345908284,-1.33778706561923
1776445023862416600,28.624416748046876,0.7822849341899156,0.2021843680769205,-0.5165770652294158
1776445023887433700,28.649433837890626,0.6576806493997573,-0.19582491604760288,-0.363939110609889
1776445023912450600,28.674450439453125,0.15243629456758498,-0.20699717518612742,1.0162708001971243
1776445023937467600,28.699467529296875,0.5587655171394348,-0.6013725597877055,0.1023380924463272
1776445023962484500,28.724484375,-0.19607377624213695,0.3896639189749956,-0.05939677634239197
1776445023987500500,28.74950048828125,0.1078285065561533,-0.2045775468237698,-0.026406945410370825
1776445024012517600,28.774517578125,-1.843849166575074,-0.6853126065604388,1.1276713200211523
1776445024037534700,28.79953466796875,-3.2847038079589606,-1.9392025147005914,0.9753975225389003
1776445024062551800,28.8245517578125,-1.9541186365425585,-1.8313634867504238,1.090606786996126
1776445024087568600,28.849568603515625,-0.788606538426876,-1.2297493002265691,0.9723498254060745
1776445024112585500,28.87458544921875,0.09754852008223533,0.46672366818208244,-1.2414233714073897
1776445024137602600,28.8996025390625,2.0626415551036597,-0.5443099254813045,-1.2948603625625372
1776445024162619600,28.92461962890625,1.398935069543123,1.3375130709834395,1.0809995852172374
1776445024187636700,28.94963671875,0.31217969727814193,1.6807910863585769,0.5604150379121303
1776445024212653600,28.974653564453124,-0.8393681728929281,1.257504445375502,-0.22596622568070887
1776445024237670700,28.999670654296875,-0.4648696743458509,0.8739091057244688,-0.28184125763773915
1776445024262687700,29.024687744140625,0.3978109850734472,0.6568391570743173,-0.25163024376928805
1776445024287704800,29.049704833984375,0.22788053486943244,-0.0036673268685117363,0.23157412869036195
1776445024312721700,29.0747216796875,-1.5864514453202485,-0.5972801759075373,0.7504781755626201
1776445024337738800,29.09973876953125,-1.2934867361217737,-0.5277008090510964,0.4573112217903137
1776445024362755600,29.124755615234374,-0.17974866438508033,-0.3289282952442765,0.4180705137699842
1776445024387772700,29.149772705078124,-0.10067571219205856,-0.21537746551856396,0.5105711028128862
1776445024412789500,29.17478955078125,-0.09658990418314933,0.6046574997425079,-0.163745624089241
1776445024437806600,29.199806640625,-0.02468085227012634,1.857831514698267,-2.995775806930661
1776445024462823700,29.22482373046875,3.7929905992269513,-1.0690367602229118,-2.78870600489974
1776445024487839700,29.24983984375,1.938171710348129,-1.9214438629090784,-2.146683527880907
1776445024512856800,29.27485693359375,-2.6832617631316182,-0.8104740868419408,1.3240209905952214
1776445024537873700,29.299873779296874,-1.0457108296930788,-0.1895025994245894,2.3859850359529253
1776445024562890800,29.324890869140624,-2.098686097431183,0.40968087108731266,2.7209137406557797
1776445024587907600,29.349907470703126,-1.258793023881316,0.21603001114316284,1.710585189989209
1776445024612928500,29.374928466796874,-0.3675730831980705,0.02985708586424589,-0.18376082263588905
1776445024637945000,29.399945068359376,-0.0308610022097826,0.010776757014915346,-0.5725725086957216
1776445024662962200,29.424962158203126,0.5182289240896701,-0.04684738363176584,-0.5777110406279563
1776445024687979300,29.449979248046876,0.5858125140190125,-0.21885664940383284,-0.5366109684765339
1776445024712996400,29.474996337890627,-0.03435702763199806,-0.14654526376761495,0.23585808961987495
1776445024738013200,29.50001318359375,-0.850515589851141,-0.660640595183894,-0.054499067428708074
1776445024763030300,29.5250302734375,0.12015139703452586,-1.2976111225754021,-0.08345452827811241
1776445024788047400,29.55004736328125,-0.27605682901740075,-0.9386530152484774,-0.19710078120231628
1776445024813064400,29.575064453125,0.21941081268787382,-1.0349013394523412,-0.2871317652612924
1776445024838081300,29.600081298828126,0.26673545844256874,-0.783647089388594,-0.2047504191726446
1776445024863098400,29.625098388671876,0.14677461554408072,-0.9848356513611972,-0.3958598510056734
1776445024888115200,29.650115234375,-0.43129707508981224,-0.6216667214062065,-0.10905249539315699
1776445024913132300,29.67513232421875,-1.065332060486078,0.8285888585947454,0.7583090153187513
1776445024938149000,29.700149169921875,-0.43431203899681564,0.716708592429757,0.41074996162354943
1776445024963166200,29.725166259765626,0.3382031963288784,0.5215520771630108,0.20110183353722094
1776445024988182300,29.750182373046876,-0.1751578294634819,0.35205914159342644,-0.2265267821729183
1776445025013199400,29.775199462890626,0.2259691482901573,0.2663505507782101,-0.7229857730031013
1776445025038216400,29.800216552734376,0.9092232148855924,0.4630563413135707,-0.4918108727633953
1776445025063233300,29.8252333984375,0.11271335598826408,0.5175388959988951,0.47258419424593445
1776445025088250000,29.85025,-0.6944424000859261,1.0185881372287868,0.2312538106948137
1776445025113267200,29.87526708984375,1.027594158244133,0.32530192144066095,0.31651509613394735
1776445025138284300,29.9002841796875,-0.11148235288858413,0.42611411949396133,0.4080202443987131
1776445025163301000,29.925301025390624,-1.1031839444965124,0.5884422780007124,0.4559732511848211
1776445025188318200,29.950318115234374,-0.22969079916179178,1.0374868989661334,-0.14572422970831395
1776445025213335300,29.975335205078125,1.2963690135598183,-0.21903759546130894,-0.3966881185233593
1776445025238352400,30.000352294921875,-0.5366226589143276,0.1415127494931221,-0.08269464982151985
1776445025263369200,30.025369140625,-1.0516194692149758,0.22915771519839762,0.48331660066246984
1776445025288386300,30.05038623046875,-0.25126287176162004,-0.3628419630229473,0.20161036758124828
1776445025313403400,30.0754033203125,-1.3592208987921475,0.12214870833158492,0.18923779274225233
1776445025338420500,30.10042041015625,-0.471083726555109,0.22535160091370343,0.06479191338419914
1776445025363437000,30.12543701171875,0.8976730623453855,-0.6775313050344586,-1.2135714878857136
1776445025388454100,30.1504541015625,0.21645196288228033,-0.5475207772865891,0.3026005525499582
1776445025413471200,30.17547119140625,-1.3501280762761831,-0.6065668404951692,0.7110843228071928
1776445025438488300,30.20048828125,-1.009537108027935,-1.3093939148277043,0.22456571123301983
1776445025463504400,30.22550439453125,-0.06576280424296856,-1.9471812384948133,-0.04702770863473415
1776445025488521200,30.250521240234374,-1.106082588547468,-1.6785954760104418,0.4788666355162859
1776445025513538300,30.275538330078124,-0.5273696774005889,-1.7501453392222523,0.3736164550155401
1776445025538555400,30.300555419921874,-0.3298557122875005,-1.483699803636968,0.46034956657290454
1776445025563572200,30.325572265625,-0.3697872521162033,-0.3023608985751867,-0.3648760991990566
1776445025588589300,30.35058935546875,0.47491234493255613,-0.4726306637361645,-0.07070785942971707
1776445025613602300,30.375602294921876,-0.31464696417450905,-0.6742132665276527,0.3087602442234754
1776445025638619400,30.400619384765626,-0.8937871608227491,-0.370130950987339,0.5346668486714363
1776445025663636500,30.425636474609377,-0.4331692987024784,-0.18745163997784256,0.713379740267992
1776445025688653600,30.450653564453123,-0.6646306146681308,0.18012348904684186,0.5619301186501979
1776445025713670100,30.475670166015625,0.3774152627766132,0.24799977831244469,0.15587562136650085
1776445025738687200,30.500687255859376,0.42947044418454167,0.2627567640699446,0.07497077757120132
1776445025763704300,30.525704345703126,-0.21782566238828002,-0.5485964436940849,0.5003466459184884
1776445025788721400,30.550721435546876,-0.8504150520861148,-0.6352922919809818,0.7341992409348488
1776445025813738200,30.57573828125,-0.3672761460781097,-0.646639103968814,0.5641933874070644
1776445025838755300,30.60075537109375,-0.6360286434315144,-0.5021167243309319,0.858344676041603
1776445025863772400,30.6257724609375,-0.8174410032451153,-0.9624415948539972,0.7796440642923116
1776445025888789500,30.65078955078125,-0.6730980718273669,-1.025632283586636,0.36001053898930546
1776445025913805300,30.675805419921875,-0.671247402459383,-0.5883429823447018,0.7886614834845066
1776445025938822100,30.700822265625,0.45199908685684204,-0.14365027297846972,0.6437064845830202
1776445025963839200,30.725839111328124,0.5969229599677026,-0.1959210698984563,-0.13021569493114948
1776445025988856300,30.750856201171874,-0.9833834067262709,-1.1075967925027013,-0.10223989276885986
1776445026013873400,30.775873291015625,-0.4068202209591865,-1.1468749829892069,0.13365034555494784
1776445026038890200,30.80089013671875,-1.606303562259674,-0.5958671673044562,0.6781552821516991
1776445026063907300,30.8259072265625,0.005019873988628387,-0.029127310284972188,0.25608196248114107
1776445026088924400,30.85092431640625,1.6487611864998937,1.6288829122059045,-0.48590837072134013
1776445026113941500,30.87594140625,0.5297010429576039,0.84094506682083,0.07425590730011462
1776445026138958300,30.900958251953124,-0.6503792403452098,0.09524141218364238,0.07027589775323867
1776445026163975400,30.925975341796875,-0.06480711095333098,-0.7178098316699266,-0.3911053499549627
1776445026188992300,30.9509921875,-0.7787091215297579,-0.42265038890615103,-0.3595125263392925
1776445026214009300,30.97600927734375,0.2040881558716297,-0.46266310421228407,0.7360328861027956
1776445026239026400,31.0010263671875,0.02530132225602865,0.0737676853917539,0.6283101780086755
1776445026264043300,31.026043212890624,0.8639008488640189,-0.5204308180481195,0.27181553818583487
