time,seconds_elapsed,z,y,x
1776444995368042800,0.130042724609375,-41.51666259765625,9.166397094726562,8.309295654296875
1776444995393059600,0.1550595703125,-41.599609375,9.359130859375,9.244705200195312
1776444995418076400,0.180076416015625,-41.827972412109375,8.820602416992188,10.411148071289062
1776444995443093500,0.205093505859375,-41.429779052734375,8.778976440429688,11.559921264648438
1776444995468110600,0.230110595703125,-41.218658447265625,8.062164306640625,13.371185302734375
1776444995493127700,0.255127685546875,-40.943206787109375,7.638580322265625,14.5491943359375
1776444995518144500,0.28014453125,-40.534332275390625,6.3843536376953125,16.875259399414062
1776444995543161600,0.30516162109375,-39.865631103515625,5.5798797607421875,18.013763427734375
1776444995568179000,0.330178955078125,-39.764251708984375,4.007110595703125,19.63104248046875
1776444995593194800,0.35519482421875,-39.623321533203125,3.3211212158203125,21.02154541015625
1776444995618211800,0.3802119140625,-38.943878173828125,2.349822998046875,22.281143188476562
1776444995643228700,0.405228759765625,-38.544281005859375,1.6311798095703125,22.973953247070312
1776444995668245800,0.430245849609375,-38.787078857421875,1.17742919921875,23.224822998046875
1776444995693262800,0.455262939453125,-38.939788818359375,0.5560150146484375,22.667221069335938
1776444995718280000,0.480280029296875,-39.27276611328125,0.62994384765625,22.262680053710938
1776444995743296800,0.505296875,-39.19793701171875,0.8284759521484375,21.985183715820312
1776444995768313900,0.53031396484375,-39.30718994140625,0.677703857421875,21.754776000976562
1776444995793330700,0.55533056640625,-39.514556884765625,0.602691650390625,21.532577514648438
1776444995818347800,0.58034765625,-40.271331787109375,-0.5850067138671875,20.364578247070312
1776444995843364600,0.605364501953125,-39.957275390625,-1.564971923828125,20.324844360351562
1776444995868381700,0.630381591796875,-40.9381103515625,-2.791595458984375,19.759124755859375
1776444995893398800,0.655398681640625,-40.992645263671875,-3.2093658447265625,19.389892578125
1776444995918416000,0.680415771484375,-41.31158447265625,-3.6225128173828125,18.891250610351562
1776444995943432700,0.7054326171875,-41.40472412109375,-4.19830322265625,18.26031494140625
1776444995968449800,0.73044970703125,-41.37841796875,-4.538970947265625,18.252883911132812
1776444995993467000,0.755466796875,-41.405670166015625,-4.96282958984375,18.246688842773438
1776444996018484000,0.78048388671875,-41.8231201171875,-5.3020782470703125,18.319320678710938
1776444996043500500,0.80550048828125,-41.692779541015625,-6.3914794921875,17.903060913085938
1776444996068517600,0.830517578125,-41.547882080078125,-6.849945068359375,18.302047729492188
1776444996093534700,0.85553466796875,-41.556854248046875,-7.6853179931640625,18.408432006835938
1776444996118551800,0.8805517578125,-41.223358154296875,-7.965362548828125,18.3265380859375
1776444996143568600,0.905568603515625,-40.917266845703125,-8.207351684570312,18.407196044921875
1776444996168585700,0.930585693359375,-41.265777587890625,-8.322723388671875,18.130203247070312
1776444996193602800,0.955602783203125,-41.59625244140625,-8.39959716796875,17.753189086914062
1776444996218620000,0.980619873046875,-41.5767822265625,-8.465362548828125,17.184860229492188
1776444996243636700,1.00563671875,-41.962890625,-9.349014282226562,16.60162353515625
1776444996268653800,1.03065380859375,-41.6251220703125,-9.831680297851562,16.496322631835938
1776444996293671000,1.0556708984375,-41.25970458984375,-11.01995849609375,15.902313232421875
1776444996318687700,1.080687744140625,-41.3004150390625,-11.904861450195312,16.173019409179688
1776444996343704600,1.10570458984375,-41.1495361328125,-13.1861572265625,15.916107177734375
1776444996368721700,1.1307216796875,-41.160308837890625,-14.046173095703125,15.7401123046875
1776444996393738800,1.15573876953125,-40.850860595703125,-15.530593872070312,15.5440673828125
1776444996418755800,1.180755859375,-40.32427978515625,-16.392776489257812,15.24139404296875
1776444996443772700,1.205772705078125,-40.5084228515625,-17.550125122070312,14.406524658203125
1776444996468789800,1.230789794921875,-40.486602783203125,-18.727676391601562,13.728866577148438
1776444996493806800,1.255806884765625,-40.012298583984375,-19.281814575195312,13.034423828125
1776444996518824000,1.280823974609375,-40.08123779296875,-19.794464111328125,12.405197143554688
1776444996543840800,1.3058408203125,-40.544586181640625,-20.016448974609375,11.271286010742188
1776444996568857900,1.33085791015625,-40.38720703125,-20.369384765625,10.709747314453125
1776444996593875000,1.355875,-40.695465087890625,-20.855621337890625,9.982955932617188
1776444996618892000,1.38089208984375,-40.526214599609375,-20.537673950195312,9.909576416015625
1776444996643908900,1.405908935546875,-40.941436767578125,-20.3746337890625,9.142181396484375
1776444996668925700,1.43092578125,-40.980865478515625,-20.713958740234375,8.988143920898438
1776444996693942800,1.45594287109375,-40.905670166015625,-20.453323364257812,8.691986083984375
1776444996718959900,1.4809599609375,-40.581268310546875,-20.323684692382812,8.245758056640625
1776444996743976700,1.505976806640625,-41.22442626953125,-20.2755126953125,7.6571807861328125
1776444996768993800,1.530993896484375,-41.6402587890625,-19.721603393554688,7.48834228515625
1776444996794011000,1.556010986328125,-41.565948486328125,-19.172943115234375,7.2021636962890625
1776444996819028000,1.581028076171875,-42.161407470703125,-18.916336059570312,7.2956390380859375
1776444996844044800,1.606044921875,-42.064453125,-18.843368530273438,6.9966278076171875
1776444996869062000,1.631061767578125,-41.917022705078125,-18.97784423828125,6.7475433349609375
1776444996894079000,1.656078857421875,-42.11749267578125,-18.709014892578125,6.103973388671875
1776444996919095800,1.681095703125,-42.080352783203125,-18.5531005859375,5.5933380126953125
1776444996944113000,1.70611279296875,-41.75628662109375,-19.23193359375,4.923370361328125
1776444996969129700,1.731129638671875,-41.270294189453125,-19.405838012695312,4.9487762451171875
1776444996994146800,1.756146728515625,-41.26092529296875,-19.803924560546875,4.7666778564453125
1776444997019164000,1.781163818359375,-41.447662353515625,-19.7774658203125,4.8449859619140625
1776444997044181000,1.806180908203125,-41.05633544921875,-20.03399658203125,4.25714111328125
1776444997069197800,1.83119775390625,-41.6290283203125,-19.958572387695312,3.9264984130859375
1776444997094215000,1.85621484375,-41.61846923828125,-19.3155517578125,3.0078582763671875
1776444997119232000,1.88123193359375,-41.84405517578125,-18.930465698242188,2.26434326171875
1776444997144249000,1.9062490234375,-42.436920166015625,-17.708328247070312,0.405609130859375
1776444997169265700,1.931265625,-42.30694580078125,-17.214187622070312,-1.0107879638671875
1776444997194282800,1.95628271484375,-42.329986572265625,-16.797622680664062,-1.1730804443359375
1776444997219299800,1.9812998046875,-42.272247314453125,-16.692276000976562,-0.9662322998046875
1776444997244317000,2.00631689453125,-42.507415771484375,-16.607803344726562,-1.299957275390625
1776444997269333800,2.031333740234375,-42.8199462890625,-16.62603759765625,-1.3671112060546875
1776444997294350800,2.056350830078125,-42.421661376953125,-17.210479736328125,-1.4946746826171875
1776444997319368000,2.081367919921875,-42.020843505859375,-16.995758056640625,-1.5197906494140625
1776444997344385000,2.106385009765625,-41.781890869140625,-16.8428955078125,-2.2868499755859375
1776444997369401900,2.13140185546875,-41.735015869140625,-16.7081298828125,-2.8099517822265625
1776444997394419000,2.1564189453125,-42.342529296875,-16.581390380859375,-3.952056884765625
1776444997419436000,2.18143603515625,-41.968231201171875,-15.934600830078125,-4.6223907470703125
1776444997444452900,2.206452880859375,-42.2481689453125,-16.25225830078125,-5.93341064453125
1776444997469469700,2.2314697265625,-41.9520263671875,-16.03460693359375,-6.7342987060546875
1776444997494486800,2.25648681640625,-41.909942626953125,-15.831893920898438,-7.386749267578125
1776444997519504000,2.28150390625,-41.76434326171875,-15.520584106445312,-7.66015625
1776444997544521000,2.30652099609375,-41.633209228515625,-15.480636596679688,-8.121322631835938
1776444997569538000,2.3315380859375,-41.457061767578125,-15.773666381835938,-8.703125
1776444997594555100,2.35655517578125,-41.53741455078125,-15.861419677734375,-9.421951293945312
1776444997619572000,2.381572021484375,-41.683868408203125,-15.275131225585938,-9.918624877929688
1776444997644589000,2.406589111328125,-41.50555419921875,-14.609527587890625,-11.209609985351562
1776444997669606000,2.43160595703125,-40.921966552734375,-13.854263305664062,-12.01043701171875
1776444997694623000,2.456623046875,-41.3800048828125,-12.888442993164062,-13.34442138671875
1776444997719640000,2.48164013671875,-40.8677978515625,-12.597915649414062,-13.944366455078125
1776444997744657200,2.5066572265625,-40.74200439453125,-11.660873413085938,-14.484619140625
1776444997769674000,2.531674072265625,-40.997955322265625,-10.446578979492188,-14.552383422851562
1776444997794691000,2.556691162109375,-41.007843017578125,-9.656875610351562,-14.347320556640625
1776444997819708200,2.581708251953125,-41.371673583984375,-8.0684814453125,-14.154541015625
1776444997844725200,2.606725341796875,-41.730987548828125,-7.5554046630859375,-14.292800903320312
1776444997869741800,2.631741943359375,-41.66455078125,-6.239959716796875,-14.4954833984375
1776444997894759000,2.656759033203125,-41.8505859375,-5.78594970703125,-14.20245361328125
1776444997919776000,2.68177587890625,-41.79681396484375,-5.73492431640625,-13.505722045898438
1776444997944793000,2.70679296875,-42.60107421875,-6.0782928466796875,-13.415008544921875
1776444997969810000,2.731809814453125,-42.33648681640625,-5.46820068359375,-13.264984130859375
1776444997994827000,2.756826904296875,-42.132171630859375,-5.4245452880859375,-13.248641967773438
1776444998019844000,2.781843994140625,-42.154632568359375,-4.3303070068359375,-13.854171752929688
1776444998044861200,2.806861083984375,-42.02252197265625,-3.2283782958984375,-13.817550659179688
1776444998069878000,2.8318779296875,-42.703033447265625,-2.525299072265625,-13.897933959960938
1776444998094895000,2.85689501953125,-41.90771484375,-1.62481689453125,-13.582443237304688
1776444998119912000,2.881911865234375,-42.41455078125,-0.567596435546875,-13.641265869140625
1776444998144929000,2.906928955078125,-42.361968994140625,0.0871734619140625,-13.373245239257812
1776444998169945900,2.93194580078125,-42.29705810546875,1.0681304931640625,-13.321701049804688
1776444998194963000,2.956962890625,-42.4244384765625,1.769775390625,-13.2637939453125
1776444998219980000,2.98197998046875,-42.2950439453125,3.5294189453125,-12.574264526367188
1776444998244997000,3.0069970703125,-42.132659912109375,4.478057861328125,-12.034744262695312
1776444998270014000,3.032013916015625,-41.8985595703125,5.5735321044921875,-12.12359619140625
1776444998295031000,3.057031005859375,-41.827606201171875,5.920745849609375,-12.084701538085938
1776444998320048000,3.082048095703125,-41.762481689453125,6.88201904296875,-11.442214965820312
1776444998345065200,3.107065185546875,-41.563568115234375,7.0886688232421875,-11.146591186523438
1776444998370082000,3.13208203125,-41.599151611328125,7.75787353515625,-10.63897705078125
1776444998395099000,3.157098876953125,-41.676055908203125,7.94207763671875,-9.889923095703125
1776444998420116000,3.182115966796875,-41.4600830078125,8.6864013671875,-8.975540161132812
1776444998445133000,3.207133056640625,-41.8841552734375,9.231704711914062,-9.029556274414062
1776444998470150000,3.23214990234375,-41.18780517578125,9.68450927734375,-8.8385009765625
1776444998495167000,3.2571669921875,-41.351776123046875,10.0926513671875,-8.956207275390625
1776444998520184000,3.28218408203125,-41.281280517578125,10.945953369140625,-7.9329376220703125
1776444998545201200,3.307201171875,-41.340057373046875,11.246795654296875,-7.676910400390625
1776444998570217200,3.33221728515625,-41.59039306640625,11.49371337890625,-6.7729339599609375
1776444998595234000,3.357234130859375,-41.24017333984375,11.571731567382812,-6.74658203125
1776444998620251100,3.382251220703125,-40.721893310546875,12.137741088867188,-6.6458282470703125
1776444998645268200,3.407268310546875,-40.87286376953125,12.602645874023438,-7.082489013671875
1776444998670285300,3.432285400390625,-40.584259033203125,12.649444580078125,-7.1634368896484375
1776444998695302100,3.45730224609375,-40.58953857421875,12.994064331054688,-7.091705322265625
1776444998720319000,3.482319091796875,-40.947418212890625,13.00469970703125,-5.7466888427734375
1776444998745336000,3.507336181640625,-40.787445068359375,13.575057983398438,-4.5432891845703125
1776444998770353200,3.532353271484375,-40.716339111328125,13.91656494140625,-3.041015625
1776444998795370000,3.557369873046875,-40.5535888671875,14.044570922851562,-2.6734161376953125
1776444998820387000,3.582386962890625,-40.046234130859375,15.067169189453125,-2.381134033203125
1776444998845404200,3.607404052734375,-39.853790283203125,16.193817138671875,-2.090667724609375
1776444998870421200,3.632421142578125,-38.755584716796875,17.22308349609375,-1.3772125244140625
1776444998895438000,3.65743798828125,-39.203582763671875,17.60858154296875,-0.876983642578125
1776444998920455200,3.682455078125,-39.012054443359375,18.200729370117188,0.12176513671875
1776444998945472300,3.70747216796875,-38.670074462890625,18.279800415039062,0.4432373046875
1776444998970489300,3.7324892578125,-38.672027587890625,17.958389282226562,2.043701171875
1776444998995506200,3.757506103515625,-39.09381103515625,17.738616943359375,2.4854583740234375
1776444999020523000,3.78252294921875,-38.924591064453125,17.450180053710938,2.8490753173828125
1776444999045541000,3.807541015625,-39.062042236328125,17.08807373046875,2.784820556640625
1776444999070558000,3.832557861328125,-40.0035400390625,15.944686889648438,2.371185302734375
1776444999095575000,3.857574951171875,-39.9539794921875,15.6905517578125,2.4175567626953125
1776444999120592100,3.882592041015625,-40.269134521484375,14.870254516601562,2.5048675537109375
1776444999145609200,3.907609130859375,-40.409210205078125,14.8134765625,3.104949951171875
1776444999170626000,3.9326259765625,-40.310943603515625,14.319076538085938,2.8013763427734375
1776444999195643100,3.95764306640625,-40.462432861328125,13.989944458007812,2.7529296875
1776444999220660200,3.98266015625,-40.810791015625,14.15264892578125,3.5920867919921875
1776444999245677300,4.00767724609375,-40.613128662109375,14.259979248046875,4.2997283935546875
1776444999270694100,4.032694091796875,-40.39801025390625,14.030303955078125,5.1663818359375
1776444999295711000,4.0577109375,-40.52325439453125,14.037338256835938,6.06494140625
1776444999320728000,4.08272802734375,-40.244964599609375,14.267318725585938,6.9731597900390625
1776444999345745200,4.1077451171875,-40.351104736328125,14.066238403320312,7.2133636474609375
1776444999370762000,4.132761962890625,-40.152191162109375,13.90423583984375,7.689117431640625
1776444999395779000,4.157779052734375,-39.969085693359375,13.783981323242188,7.902099609375
1776444999420796200,4.182796142578125,-40.088348388671875,13.44097900390625,8.176010131835938
1776444999445813200,4.207813232421875,-39.839385986328125,13.505828857421875,8.50531005859375
1776444999470830000,4.232830078125,-39.877685546875,13.340087890625,9.9512939453125
1776444999495847200,4.25784716796875,-39.77496337890625,13.343215942382812,10.766006469726562
1776444999520864300,4.2828642578125,-39.17413330078125,13.4774169921875,12.162811279296875
1776444999545881000,4.307881103515625,-38.59527587890625,14.0631103515625,13.083770751953125
1776444999570902300,4.33290234375,-37.85894775390625,14.916473388671875,13.310821533203125
1776444999595919000,4.357919189453125,-37.50152587890625,15.135696411132812,13.689865112304688
1776444999620936200,4.382936279296875,-37.751312255859375,15.15252685546875,13.932785034179688
1776444999645953300,4.407953369140625,-37.797576904296875,15.026947021484375,15.166061401367188
1776444999670970000,4.43297021484375,-37.588104248046875,14.61517333984375,16.236907958984375
1776444999695987200,4.4579873046875,-37.147674560546875,13.932479858398438,17.971160888671875
1776444999721004300,4.48300439453125,-36.62445068359375,13.28204345703125,19.371231079101562
1776444999746021400,4.508021484375,-36.314697265625,11.915847778320312,21.589462280273438
1776444999771038200,4.5330380859375,-35.517242431640625,10.975692749023438,22.9771728515625
1776444999796055300,4.55805517578125,-35.5009765625,9.660202026367188,24.756301879882812
1776444999821072400,4.583072265625,-35.0723876953125,9.025161743164062,25.352020263671875
1776444999846089200,4.608089111328125,-34.340179443359375,8.455154418945312,26.311294555664062
1776444999871106000,4.63310595703125,-33.972900390625,8.6934814453125,26.777496337890625
1776444999896123100,4.658123046875,-34.19512939453125,8.600357055664062,27.250518798828125
1776444999921141200,4.683141357421875,-34.470367431640625,8.36798095703125,27.296432495117188
1776444999946158000,4.708157958984375,-34.327606201171875,7.8990325927734375,27.411163330078125
1776444999971175200,4.733175048828125,-34.418853759765625,7.379730224609375,27.329971313476562
1776444999996192300,4.758192138671875,-34.574554443359375,6.3032073974609375,27.737640380859375
1776445000021209300,4.783209228515625,-34.67254638671875,5.1273956298828125,27.766204833984375
1776445000046226200,4.80822607421875,-34.628631591796875,3.5966033935546875,27.86285400390625
1776445000071243300,4.8332431640625,-35.098785400390625,2.78887939453125,28.013076782226562
1776445000096260400,4.85826025390625,-34.771453857421875,1.684600830078125,28.380966186523438
1776445000121277400,4.88327734375,-35.162750244140625,0.9914703369140625,28.367523193359375
1776445000146294000,4.9082939453125,-35.2191162109375,0.775543212890625,28.19476318359375
1776445000171311000,4.93331103515625,-35.06103515625,0.16748046875,28.268264770507812
1776445000196328200,4.958328125,-35.535247802734375,-1.3790740966796875,28.293167114257812
1776445000221345300,4.98334521484375,-35.624542236328125,-2.8863983154296875,27.9061279296875
1776445000246362000,5.008362060546875,-36.3507080078125,-4.71539306640625,26.8907470703125
1776445000271379200,5.033379150390625,-36.1805419921875,-5.833251953125,26.67425537109375
1776445000296396300,5.058396240234375,-35.788177490234375,-7.4447784423828125,26.5611572265625
1776445000321413400,5.083413330078125,-35.862213134765625,-8.839691162109375,26.669921875
1776445000346430200,5.10843017578125,-35.372161865234375,-10.751907348632812,26.890594482421875
1776445000371447300,5.133447265625,-35.484832763671875,-11.687362670898438,26.5277099609375
1776445000396464400,5.15846435546875,-35.575286865234375,-12.956405639648438,26.1781005859375
1776445000421481200,5.183481201171875,-35.667022705078125,-13.898223876953125,25.612030029296875
1776445000446498000,5.208498046875,-35.712799072265625,-15.111480712890625,25.055892944335938
1776445000471515100,5.23351513671875,-35.998260498046875,-15.270599365234375,24.544357299804688
1776445000496532200,5.2585322265625,-36.60076904296875,-16.170135498046875,22.9378662109375
1776445000521549300,5.28354931640625,-37.350799560546875,-16.463577270507812,21.475723266601562
1776445000546566100,5.308566162109375,-37.81597900390625,-16.91473388671875,19.945510864257812
1776445000571579100,5.3335791015625,-38.7186279296875,-17.486297607421875,19.019058227539062
1776445000596596000,5.358595947265625,-38.235260009765625,-18.22003173828125,18.51727294921875
1776445000621614300,5.3836142578125,-37.297943115234375,-19.367767333984375,18.74127197265625
1776445000646631000,5.408630859375,-36.90130615234375,-20.492507934570312,18.52593994140625
1776445000671648000,5.43364794921875,-37.08197021484375,-21.885635375976562,17.318649291992188
1776445000696665000,5.4586650390625,-36.57281494140625,-22.987213134765625,15.657852172851562
1776445000721682200,5.48368212890625,-36.723968505859375,-23.901687622070312,14.773452758789062
1776445000746699000,5.508698974609375,-36.672454833984375,-24.61859130859375,13.12994384765625
1776445000771716000,5.533716064453125,-37.0394287109375,-25.001907348632812,11.619277954101562
1776445000796733200,5.558733154296875,-37.1273193359375,-25.140655517578125,9.829437255859375
1776445000821750300,5.583750244140625,-37.399688720703125,-25.220565795898438,9.195877075195312
1776445000846767000,5.60876708984375,-38.019317626953125,-24.904449462890625,8.32147216796875
1776445000871784200,5.6337841796875,-38.5069580078125,-24.737625122070312,7.6817779541015625
1776445000896801000,5.658801025390625,-38.343231201171875,-24.459503173828125,6.5480499267578125
1776445000921818000,5.683818115234375,-38.37762451171875,-24.057586669921875,5.977264404296875
1776445000946835000,5.7088349609375,-39.042327880859375,-23.258819580078125,5.7393035888671875
1776445000971852000,5.73385205078125,-39.23907470703125,-22.923110961914062,5.510894775390625
1776445000996869000,5.758869140625,-39.2491455078125,-22.655364990234375,5.127838134765625
1776445001021886200,5.78388623046875,-39.361907958984375,-22.435943603515625,5.4031829833984375
1776445001046903000,5.808903076171875,-39.67779541015625,-21.848281860351562,4.57147216796875
1776445001071920000,5.833920166015625,-39.797088623046875,-21.809646606445312,4.303802490234375
1776445001096937200,5.858937255859375,-39.873382568359375,-21.745559692382812,4.0616912841796875
1776445001121954300,5.883954345703125,-39.796630859375,-21.545562744140625,3.488067626953125
1776445001146971100,5.90897119140625,-40.02825927734375,-21.217620849609375,3.0728912353515625
1776445001171988000,5.933988037109375,-40.252410888671875,-21.322906494140625,2.8584136962890625
1776445001197005000,5.959005126953125,-40.329986572265625,-21.197311401367188,1.47332763671875
1776445001222022100,5.984022216796875,-40.12542724609375,-21.192825317382812,1.1164093017578125
1776445001247039000,6.0090390625,-39.80181884765625,-21.35772705078125,-0.5301513671875
1776445001272056000,6.03405615234375,-39.837188720703125,-21.25042724609375,-1.44586181640625
1776445001297074200,6.05907421875,-40.191558837890625,-20.8892822265625,-2.25439453125
1776445001322091000,6.084091064453125,-40.410125732421875,-21.121368408203125,-1.8941192626953125
1776445001347108000,6.109108154296875,-40.31488037109375,-20.915771484375,-2.53265380859375
1776445001372125200,6.134125244140625,-40.40228271484375,-20.682388305664062,-3.402252197265625
1776445001397142300,6.159142333984375,-40.057830810546875,-20.295455932617188,-4.97723388671875
1776445001422159000,6.1841591796875,-39.890106201171875,-19.583389282226562,-5.859832763671875
1776445001447176200,6.20917626953125,-40.38970947265625,-18.922149658203125,-7.0245361328125
1776445001472193000,6.234193115234375,-40.453887939453125,-18.161056518554688,-8.686782836914062
1776445001497210000,6.259210205078125,-40.3536376953125,-17.731781005859375,-9.457061767578125
1776445001522227000,6.28422705078125,-40.5777587890625,-17.559951782226562,-10.149566650390625
1776445001547244000,6.309244140625,-40.70526123046875,-17.2142333984375,-10.579391479492188
1776445001572265200,6.33426513671875,-40.649322509765625,-16.406326293945312,-11.310958862304688
1776445001597282000,6.359281982421875,-40.3858642578125,-16.256927490234375,-11.909744262695312
1776445001622299100,6.384299072265625,-39.90625,-15.1988525390625,-12.691421508789062
1776445001647316200,6.409316162109375,-39.47723388671875,-14.930633544921875,-13.473770141601562
1776445001672333300,6.434333251953125,-39.885986328125,-14.854446411132812,-14.41326904296875
1776445001697350100,6.45935009765625,-39.813446044921875,-14.5850830078125,-14.515365600585938
1776445001722367000,6.484366943359375,-39.5869140625,-14.094741821289062,-15.054168701171875
1776445001747384000,6.509384033203125,-39.70184326171875,-13.596511840820312,-15.451995849609375
1776445001772401200,6.534401123046875,-39.72705078125,-12.61395263671875,-15.972000122070312
1776445001797418200,6.559418212890625,-40.20916748046875,-12.263656616210938,-16.06884765625
1776445001822435000,6.58443505859375,-40.035247802734375,-11.287521362304688,-16.379348754882812
1776445001847452200,6.6094521484375,-39.84375,-10.401931762695312,-16.360366821289062
1776445001872470000,6.634469970703125,-40.0357666015625,-9.114791870117188,-16.545806884765625
1776445001897487000,6.659487060546875,-40.2989501953125,-8.572433471679688,-16.957489013671875
1776445001922504200,6.684504150390625,-40.329742431640625,-7.4652252197265625,-16.5953369140625
1776445001947521300,6.709521240234375,-40.338104248046875,-6.6154022216796875,-16.124801635742188
1776445001972538000,6.7345380859375,-40.320831298828125,-4.97027587890625,-16.271743774414062
1776445001997555200,6.75955517578125,-40.44757080078125,-4.041229248046875,-15.782196044921875
1776445002022572000,6.784572021484375,-40.677459716796875,-2.4991607666015625,-15.763717651367188
1776445002047589000,6.809589111328125,-40.708892822265625,-1.481414794921875,-16.277740478515625
1776445002072606200,6.834606201171875,-40.506805419921875,-0.2196807861328125,-16.352584838867188
1776445002097623000,6.859623046875,-40.431396484375,0.606231689453125,-16.177978515625
1776445002122640100,6.88464013671875,-40.769500732421875,1.4904022216796875,-15.211715698242188
1776445002147657200,6.9096572265625,-41.15777587890625,2.3931884765625,-15.2528076171875
1776445002172674300,6.93467431640625,-40.264251708984375,3.9687042236328125,-14.833099365234375
1776445002197691100,6.959691162109375,-40.108154296875,5.1153411865234375,-15.34613037109375
1776445002222708200,6.984708251953125,-39.69049072265625,6.842926025390625,-16.052215576171875
1776445002247725300,7.009725341796875,-39.12921142578125,7.7125701904296875,-16.229461669921875
1776445002272742100,7.0347421875,-38.5318603515625,9.321014404296875,-16.841964721679688
1776445002297759000,7.059759033203125,-37.785675048828125,10.519439697265625,-17.686264038085938
1776445002322776000,7.084776123046875,-36.4693603515625,12.315780639648438,-17.967147827148438
1776445002347793200,7.109793212890625,-36.378021240234375,13.1915283203125,-17.626907348632812
1776445002372811000,7.13481103515625,-36.10650634765625,14.696670532226562,-16.69622802734375
1776445002397828000,7.159828125,-35.418426513671875,16.033432006835938,-16.3043212890625
1776445002422845200,7.18484521484375,-35.95611572265625,16.448211669921875,-15.412261962890625
1776445002447862300,7.2098623046875,-35.743927001953125,16.88330078125,-14.446060180664062
1776445002472879000,7.234879150390625,-36.543792724609375,16.730941772460938,-13.018280029296875
1776445002497896200,7.259896240234375,-36.8280029296875,16.826980590820312,-12.21197509765625
1776445002522913300,7.284913330078125,-36.717681884765625,17.351486206054688,-10.804107666015625
1776445002547930400,7.309930419921875,-36.59918212890625,18.014663696289062,-9.938079833984375
1776445002572943600,7.334943603515625,-36.287261962890625,19.209991455078125,-9.11724853515625
1776445002597960700,7.359960693359375,-35.861328125,19.914306640625,-8.19049072265625
1776445002622977800,7.384977783203125,-35.759521484375,21.112899780273438,-6.310577392578125
1776445002647995000,7.409994873046875,-35.546356201171875,21.476516723632812,-4.77679443359375
1776445002673011700,7.43501171875,-35.239898681640625,22.306228637695312,-2.806243896484375
1776445002698028800,7.46002880859375,-34.77227783203125,23.090866088867188,-1.6573486328125
1776445002723046000,7.4850458984375,-34.406951904296875,23.664520263671875,0.0618896484375
1776445002748063000,7.51006298828125,-34.60015869140625,23.748077392578125,1.1739349365234375
1776445002773079600,7.53507958984375,-34.5118408203125,23.781661987304688,2.7481842041015625
1776445002798096600,7.5600966796875,-34.5125732421875,23.738433837890625,2.892608642578125
1776445002823113700,7.58511376953125,-34.781768798828125,23.217391967773438,4.285614013671875
1776445002848131600,7.610131591796875,-35.17828369140625,22.6417236328125,4.8238677978515625
1776445002873148700,7.635148681640625,-35.35089111328125,22.053421020507812,6.0941925048828125
1776445002898165800,7.660165771484375,-35.44830322265625,22.132064819335938,6.695343017578125
1776445002923182800,7.685182861328125,-35.647125244140625,21.170791625976562,7.5466766357421875
1776445002948199700,7.71019970703125,-35.72393798828125,20.649871826171875,7.248779296875
1776445002973216800,7.735216796875,-36.450836181640625,20.1253662109375,6.9474334716796875
1776445002998233900,7.76023388671875,-36.938873291015625,19.528030395507812,6.801239013671875
1776445003023251000,7.7852509765625,-37.359619140625,18.492538452148438,7.02642822265625
1776445003048267800,7.810267822265625,-37.45556640625,17.91522216796875,7.3108367919921875
1776445003073284600,7.83528466796875,-37.955230712890625,17.60418701171875,7.3234100341796875
1776445003098301700,7.8603017578125,-38.1260986328125,17.326904296875,6.81951904296875
1776445003123318800,7.88531884765625,-38.474456787109375,17.196990966796875,6.71234130859375
1776445003148335600,7.910335693359375,-38.12432861328125,17.008682250976562,6.568756103515625
1776445003173352700,7.935352783203125,-39.130340576171875,16.225204467773438,7.418212890625
1776445003198369800,7.960369873046875,-38.571319580078125,16.16339111328125,7.56402587890625
1776445003223387000,7.985386962890625,-38.766876220703125,15.99334716796875,7.4812774658203125
1776445003248403700,8.01040380859375,-38.538330078125,16.01104736328125,7.476837158203125
1776445003273420800,8.0354208984375,-38.985382080078125,15.091690063476562,8.1790771484375
1776445003298438000,8.06043798828125,-39.10186767578125,15.165435791015625,8.454391479492188
1776445003323455700,8.085455810546875,-39.17510986328125,14.9705810546875,8.552459716796875
1776445003348472800,8.110472900390626,-39.4847412109375,14.772048950195312,8.68267822265625
1776445003373489700,8.13548974609375,-39.362274169921875,14.762542724609375,9.231674194335938
1776445003398506800,8.1605068359375,-38.745269775390625,15.137969970703125,10.538345336914062
1776445003423523600,8.185523681640625,-38.5911865234375,14.356842041015625,11.74798583984375
1776445003448540700,8.210540771484375,-38.1397705078125,14.0106201171875,13.964675903320312
1776445003473557800,8.235557861328125,-38.200225830078125,13.532546997070312,15.015228271484375
1776445003498574800,8.260574951171876,-37.506927490234375,12.968673706054688,16.78375244140625
1776445003523591700,8.285591796875,-37.3626708984375,12.384124755859375,17.685592651367188
1776445003548608800,8.31060888671875,-37.568878173828125,11.952468872070312,18.862518310546875
1776445003573625000,8.335625,-37.497283935546875,10.807235717773438,19.574142456054688
1776445003598642200,8.36064208984375,-37.30987548828125,8.857620239257812,20.867935180664062
1776445003623659000,8.385658935546875,-37.766387939453125,7.3400421142578125,21.7154541015625
1776445003648676000,8.410676025390625,-38.148406982421875,5.1833953857421875,22.725997924804688
1776445003673693200,8.435693115234375,-37.8504638671875,3.71368408203125,23.7158203125
1776445003698710300,8.460710205078126,-36.844390869140625,2.2054443359375,25.162384033203125
1776445003723727000,8.48572705078125,-36.51885986328125,0.6583251953125,25.43804931640625
1776445003748744000,8.510743896484374,-36.40521240234375,-0.4270172119140625,26.442276000976562
1776445003773762300,8.53576220703125,-36.0880126953125,-0.906402587890625,27.017684936523438
1776445003798779100,8.560779052734375,-35.526031494140625,-1.339996337890625,27.86175537109375
1776445003823796000,8.5857958984375,-35.193206787109375,-1.0676422119140625,27.99713134765625
1776445003848813000,8.61081298828125,-35.46270751953125,-1.1096343994140625,27.420166015625
1776445003873830100,8.635830078125,-35.776611328125,-1.29095458984375,27.041778564453125
1776445003898847000,8.660846923828124,-36.31744384765625,-0.833953857421875,26.492919921875
1776445003923864000,8.685864013671875,-36.423126220703125,-0.6233673095703125,26.39215087890625
1776445003948881200,8.710881103515625,-36.419097900390625,-0.769287109375,26.19183349609375
1776445003973898200,8.735898193359375,-36.2271728515625,-1.26910400390625,26.684356689453125
1776445003998915000,8.7609150390625,-35.87158203125,-2.0009307861328125,26.6031494140625
1776445004023932200,8.78593212890625,-36.0728759765625,-2.3311004638671875,26.768173217773438
1776445004048949000,8.810948974609374,-35.839202880859375,-3.1791534423828125,26.729751586914062
1776445004073966000,8.835966064453125,-36.028045654296875,-3.8765869140625,26.860183715820312
1776445004098983200,8.860983154296875,-36.17803955078125,-5.400054931640625,26.75830078125
1776445004124000000,8.886,-36.049285888671875,-5.871490478515625,26.267227172851562
1776445004149017000,8.91101708984375,-35.71820068359375,-6.1855010986328125,26.297576904296875
1776445004174034200,8.9360341796875,-35.716766357421875,-6.9556732177734375,26.148452758789062
1776445004199051300,8.96105126953125,-36.421112060546875,-8.02069091796875,25.38629150390625
1776445004224069000,8.986069091796875,-36.6845703125,-8.81005859375,24.980514526367188
1776445004249086200,9.011086181640625,-37.549468994140625,-9.102752685546875,24.148651123046875
1776445004274103000,9.03610302734375,-37.689910888671875,-8.93365478515625,23.594390869140625
1776445004299120000,9.0611201171875,-38.58953857421875,-9.441543579101562,22.245040893554688
1776445004324137200,9.08613720703125,-38.942047119140625,-9.827804565429688,21.153305053710938
1776445004349154000,9.111154052734374,-39.337554931640625,-10.740325927734375,19.431259155273438
1776445004374171100,9.136171142578124,-39.914581298828125,-11.297271728515625,18.801589965820312
1776445004399188000,9.16118798828125,-40.552581787109375,-12.3123779296875,17.462326049804688
1776445004424205000,9.186205078125,-39.88604736328125,-13.109024047851562,17.120986938476562
1776445004449222100,9.21122216796875,-39.835479736328125,-13.888595581054688,17.543289184570312
1776445004474239200,9.2362392578125,-39.28997802734375,-14.621337890625,17.805084228515625
1776445004499256000,9.261256103515626,-38.459564208984375,-15.6409912109375,18.716903686523438
1776445004524273200,9.286273193359374,-38.155426025390625,-16.449111938476562,19.029067993164062
1776445004549290200,9.311290283203125,-37.800537109375,-17.10009765625,18.714645385742188
1776445004574307800,9.336307861328125,-38.27923583984375,-16.978485107421875,17.978118896484375
1776445004599325000,9.361324951171875,-38.698211669921875,-17.449417114257812,17.03997802734375
1776445004624342000,9.386342041015626,-38.783233642578125,-18.002166748046875,16.320144653320312
1776445004649359000,9.411359130859376,-39.37054443359375,-18.28076171875,14.91412353515625
1776445004674376000,9.4363759765625,-39.383392333984375,-18.303955078125,13.533065795898438
1776445004699394000,9.46139404296875,-38.8958740234375,-19.056854248046875,12.803634643554688
1776445004724411100,9.4864111328125,-38.565277099609375,-19.81866455078125,13.047744750976562
1776445004749428000,9.511427978515625,-37.969329833984375,-21.191024780273438,12.616607666015625
1776445004774445000,9.536445068359376,-38.09197998046875,-22.025466918945312,12.26300048828125
1776445004799462100,9.561462158203126,-37.910247802734375,-22.792617797851562,11.323684692382812
1776445004824479000,9.58647900390625,-37.740631103515625,-23.009231567382812,10.423919677734375
1776445004849496000,9.61149609375,-38.255096435546875,-23.456985473632812,8.190841674804688
1776445004874513000,9.636512939453125,-38.4510498046875,-23.5946044921875,6.7960052490234375
1776445004899530000,9.661530029296875,-38.525299072265625,-23.951507568359375,5.7819061279296875
1776445004924547000,9.686547119140625,-38.3175048828125,-24.157913208007812,5.5118255615234375
1776445004949564000,9.71156396484375,-38.418487548828125,-23.900848388671875,5.2960357666015625
1776445004974581000,9.7365810546875,-38.634674072265625,-24.339584350585938,4.855712890625
1776445004999598000,9.76159814453125,-37.988525390625,-24.59613037109375,4.86480712890625
1776445005024615200,9.786615234375,-38.06341552734375,-24.834625244140625,5.2686309814453125
1776445005049632000,9.811632080078125,-38.23223876953125,-24.81134033203125,5.05670166015625
1776445005074649000,9.836649169921875,-38.399810791015625,-24.3497314453125,4.24761962890625
1776445005099666200,9.861666259765625,-38.3797607421875,-24.49310302734375,3.552886962890625
1776445005124683300,9.886683349609376,-38.47271728515625,-24.79840087890625,3.3787384033203125
1776445005149699800,9.911699951171874,-38.2344970703125,-24.849090576171875,3.581085205078125
1776445005174717000,9.936717041015624,-38.48187255859375,-25.089706420898438,3.037322998046875
1776445005199735000,9.961735107421875,-37.81903076171875,-25.183074951171875,2.297576904296875
1776445005224751900,9.986751953125,-38.214080810546875,-25.24932861328125,1.5269927978515625
1776445005249769000,10.01176904296875,-38.44964599609375,-24.65972900390625,0.379669189453125
1776445005274786000,10.0367861328125,-38.47784423828125,-24.124526977539062,-0.3612060546875
1776445005299803100,10.06180322265625,-38.652435302734375,-23.957550048828125,-1.4993133544921875
1776445005324820000,10.086820068359375,-39.033477783203125,-23.009521484375,-3.768707275390625
1776445005349837000,10.111837158203125,-39.16339111328125,-22.346145629882812,-4.6345977783203125
1776445005374854100,10.136854248046875,-39.117034912109375,-22.393295288085938,-5.13848876953125
1776445005399871200,10.161871337890625,-39.107757568359375,-22.194061279296875,-5.763824462890625
1776445005424888000,10.18688818359375,-38.558685302734375,-22.192626953125,-7.2537994384765625
1776445005449905000,10.21190478515625,-38.648040771484375,-22.031158447265625,-7.98834228515625
1776445005474922000,10.236921875,-38.68634033203125,-21.567581176757812,-9.369888305664062
1776445005499939000,10.26193896484375,-38.493896484375,-21.315643310546875,-10.368377685546875
1776445005524956000,10.286955810546875,-38.628204345703125,-20.286880493164062,-12.175308227539062
1776445005549973000,10.311972900390625,-38.42657470703125,-19.941070556640625,-12.995147705078125
1776445005574994000,10.336993896484374,-38.211669921875,-18.636627197265625,-14.277908325195312
1776445005600010800,10.3620107421875,-38.069488525390625,-17.72882080078125,-15.081893920898438
1776445005625027800,10.38702783203125,-38.274810791015625,-16.365463256835938,-15.92889404296875
1776445005650045000,10.412044921875,-38.446441650390625,-15.531539916992188,-16.5419921875
1776445005675062000,10.43706201171875,-38.762847900390625,-14.182357788085938,-16.885498046875
1776445005700078800,10.462078857421876,-38.152099609375,-13.319839477539062,-17.370101928710938
1776445005725095700,10.487095703125,-38.64080810546875,-12.209976196289062,-17.952606201171875
1776445005750114000,10.512114013671875,-38.705841064453125,-11.511276245117188,-18.014312744140625
1776445005775130600,10.537130615234375,-38.978240966796875,-10.198379516601562,-18.214706420898438
1776445005800147700,10.562147705078125,-38.94671630859375,-9.808792114257812,-18.364547729492188
1776445005825164800,10.587164794921875,-39.07623291015625,-8.108856201171875,-18.553207397460938
1776445005850182000,10.612181884765626,-39.25457763671875,-7.3688201904296875,-18.564926147460938
1776445005875198700,10.63719873046875,-39.49169921875,-6.2040557861328125,-18.30938720703125
1776445005900215800,10.6622158203125,-39.834320068359375,-5.64837646484375,-17.893447875976562
1776445005925233000,10.68723291015625,-39.825164794921875,-4.3272857666015625,-18.028915405273438
1776445005950250000,10.71225,-40.6942138671875,-3.6398468017578125,-18.00048828125
1776445005975266800,10.737266845703125,-40.62371826171875,-2.3794097900390625,-17.495651245117188
1776445006000284000,10.762283935546876,-40.69952392578125,-1.9344635009765625,-16.919189453125
1776445006025300700,10.78730078125,-40.90936279296875,-1.3436737060546875,-16.772445678710938
1776445006050317800,10.81231787109375,-40.45648193359375,-0.932861328125,-17.119979858398438
1776445006075335000,10.8373349609375,-40.9595947265625,-0.534698486328125,-17.288162231445312
1776445006100351700,10.862351806640625,-40.292266845703125,-0.2343597412109375,-17.475082397460938
1776445006125368800,10.887368896484375,-40.4046630859375,-0.0618133544921875,-17.675704956054688
1776445006150386000,10.912385986328125,-39.995361328125,0.297393798828125,-17.606521606445312
1776445006175402800,10.93740283203125,-40.257476806640625,0.8606719970703125,-17.154571533203125
1776445006200419800,10.962419921875,-40.197723388671875,1.58392333984375,-16.585739135742188
1776445006225437000,10.98743701171875,-40.9287109375,2.3374481201171875,-15.805191040039062
1776445006250454000,11.0124541015625,-41.282440185546875,2.9175567626953125,-15.02978515625
1776445006275470800,11.037470947265625,-41.606109619140625,4.0976715087890625,-13.404083251953125
1776445006300487700,11.06248779296875,-41.666473388671875,4.5383148193359375,-12.553237915039062
1776445006325506000,11.087506103515626,-41.88519287109375,4.991729736328125,-11.747909545898438
1776445006350523000,11.11252294921875,-41.45465087890625,5.41546630859375,-12.048187255859375
1776445006375539700,11.137539794921874,-41.222442626953125,6.3529052734375,-12.539138793945312
1776445006400556800,11.162556884765625,-40.9215087890625,7.1124725341796875,-12.974655151367188
1776445006425574000,11.187573974609375,-40.18408203125,8.0096435546875,-13.379959106445312
1776445006450591000,11.212591064453125,-40.585662841796875,8.48321533203125,-13.649017333984375
1776445006475607800,11.23760791015625,-40.466796875,8.903549194335938,-13.125167846679688
1776445006500625000,11.262625,-40.400421142578125,9.023818969726562,-12.559402465820312
1776445006525642000,11.28764208984375,-40.76483154296875,9.840835571289062,-11.919281005859375
1776445006550658800,11.312658935546875,-40.1741943359375,10.185333251953125,-11.542465209960938
1776445006575675000,11.3376748046875,-40.150848388671875,10.748504638671875,-10.923049926757812
1776445006600691700,11.362691650390625,-40.027496337890625,11.425155639648438,-10.870986938476562
1776445006625708800,11.387708740234375,-40.221527099609375,12.0789794921875,-10.367401123046875
1776445006650726000,11.412725830078125,-40.128021240234375,12.465866088867188,-9.753646850585938
1776445006675743000,11.437742919921876,-40.7623291015625,13.34576416015625,-8.269317626953125
1776445006700759800,11.462759765625,-40.11236572265625,13.851760864257812,-7.1017303466796875
1776445006725776600,11.487776611328124,-40.325897216796875,14.605361938476562,-5.2740478515625
1776445006750793700,11.512793701171875,-40.431884765625,15.001815795898438,-4.1352691650390625
1776445006775810800,11.537810791015625,-40.24169921875,15.170867919921875,-2.3370819091796875
1776445006800827600,11.56282763671875,-40.589019775390625,15.077850341796875,-1.4782867431640625
1776445006825844700,11.5878447265625,-41.158294677734375,15.276138305664062,-1.097869873046875
1776445006850861800,11.61286181640625,-40.35528564453125,15.005844116210938,-1.66033935546875
1776445006875879700,11.637879638671874,-40.775634765625,14.7703857421875,-1.7197265625
1776445006900896800,11.662896728515625,-40.365386962890625,14.745071411132812,-1.92657470703125
1776445006925913900,11.687913818359375,-40.76416015625,14.703964233398438,-1.2871856689453125
1776445006950931000,11.712930908203125,-40.685791015625,14.765716552734375,-1.0662384033203125
1776445006975947800,11.73794775390625,-40.412139892578125,14.6307373046875,-0.47412109375
1776445007000964900,11.76296484375,-40.288116455078125,14.5577392578125,-0.059539794921875
1776445007025981700,11.787981689453124,-41.234100341796875,14.081573486328125,0.286163330078125
1776445007050998800,11.812998779296874,-40.73980712890625,14.29498291015625,0.6504058837890625
1776445007076015600,11.838015625,-41.0555419921875,14.66412353515625,0.8001861572265625
1776445007101032700,11.86303271484375,-40.711090087890625,14.713043212890625,0.4329376220703125
1776445007126049800,11.8880498046875,-40.70465087890625,15.91632080078125,0.23583984375
1776445007151067000,11.91306689453125,-40.231597900390625,16.741195678710938,0.5778961181640625
1776445007176083700,11.938083740234376,-40.121734619140625,16.94866943359375,1.03082275390625
1776445007201100800,11.963100830078124,-39.243560791015625,17.347061157226562,1.3789825439453125
1776445007226118000,11.988117919921875,-39.15997314453125,17.10101318359375,2.25750732421875
1776445007251135000,12.013135009765625,-39.1978759765625,17.09686279296875,3.457061767578125
1776445007276151600,12.038151611328125,-39.3311767578125,17.374542236328125,3.8133087158203125
1776445007301168600,12.063168701171875,-39.506744384765625,16.854568481445312,4.0342254638671875
1776445007326185700,12.088185791015626,-39.213714599609375,17.329788208007812,3.8621673583984375
1776445007351202800,12.113202880859374,-39.01861572265625,17.893798828125,3.3702545166015625
1776445007376219600,12.1382197265625,-38.57733154296875,17.960006713867188,3.378448486328125
1776445007401236700,12.16323681640625,-39.302032470703125,17.501251220703125,4.4478607177734375
1776445007426253800,12.18825390625,-39.398834228515625,16.8841552734375,5.538055419921875
1776445007451271000,12.21327099609375,-39.96319580078125,15.773208618164062,7.557098388671875
1776445007476287700,12.238287841796875,-39.87451171875,15.280288696289062,9.03118896484375
1776445007501305900,12.263305908203124,-39.414703369140625,14.904220581054688,10.607879638671875
1776445007526322000,12.288322021484374,-39.3199462890625,14.693817138671875,11.376144409179688
1776445007551339800,12.31333984375,-39.818084716796875,14.855438232421875,11.656845092773438
1776445007576353800,12.338353759765624,-39.523193359375,14.8929443359375,12.204513549804688
1776445007601371000,12.363370849609375,-39.48760986328125,14.746490478515625,12.9962158203125
1776445007626387700,12.3883876953125,-39.576446533203125,14.491180419921875,13.783584594726562
1776445007651404500,12.413404541015625,-39.30938720703125,13.924942016601562,14.506927490234375
1776445007676421600,12.438421630859375,-39.24212646484375,13.609207153320312,15.530166625976562
1776445007701438700,12.463438720703126,-38.68902587890625,12.940521240234375,17.129043579101562
1776445007726455800,12.488455810546874,-38.563018798828125,12.110977172851562,18.534439086914062
1776445007751472600,12.51347265625,-37.777862548828125,10.14801025390625,20.792922973632812
1776445007776489700,12.53848974609375,-37.742279052734375,8.97955322265625,22.118362426757812
1776445007801506800,12.5635068359375,-36.95556640625,7.4366302490234375,24.04705810546875
1776445007826524000,12.58852392578125,-36.909637451171875,6.662933349609375,24.974853515625
1776445007851540700,12.613540771484375,-36.339691162109375,6.194580078125,25.956710815429688
1776445007876557800,12.638557861328126,-36.2640380859375,6.0576171875,26.300674438476562
1776445007901575000,12.663574951171874,-36.238861083984375,6.2548675537109375,25.73236083984375
1776445007926591700,12.688591796875,-35.9979248046875,6.1885986328125,25.769668579101562
1776445007951608600,12.713608642578125,-36.44525146484375,5.7357025146484375,25.630096435546875
1776445007976625700,12.738625732421875,-36.678680419921875,5.1862640380859375,25.595932006835938
1776445008001642800,12.763642822265625,-36.719207763671875,4.0138397216796875,25.986419677734375
1776445008026659800,12.788659912109376,-36.873443603515625,3.80133056640625,26.0885009765625
1776445008051676700,12.8136767578125,-37.05853271484375,3.297515869140625,25.462844848632812
1776445008076693800,12.83869384765625,-37.371246337890625,3.1685638427734375,25.017044067382812
1776445008101710800,12.8637109375,-38.07977294921875,3.4157867431640625,24.964950561523438
1776445008126728000,12.88872802734375,-38.209564208984375,3.1230621337890625,24.466644287109375
1776445008151744800,12.913744873046875,-37.926055908203125,3.692596435546875,24.553192138671875
1776445008176761600,12.93876171875,-38.187835693359375,3.0614166259765625,24.814926147460938
1776445008201778700,12.96377880859375,-38.112274169921875,2.2807769775390625,24.79119873046875
1776445008226796500,12.988796630859374,-37.813323974609375,1.76495361328125,24.65655517578125
1776445008251813600,13.013813720703125,-38.55157470703125,1.0945892333984375,24.844482421875
1776445008276830700,13.038830810546875,-38.586090087890625,0.981597900390625,24.666213989257812
1776445008301847800,13.063847900390625,-39.291961669921875,0.873626708984375,23.772232055664062
1776445008326864600,13.08886474609375,-39.6083984375,0.7855987548828125,23.028717041015625
1776445008351881700,13.1138818359375,-39.64117431640625,0.2514190673828125,22.55322265625
1776445008376898800,13.13889892578125,-39.9063720703125,-0.43524169921875,22.350555419921875
1776445008401916000,13.163916015625,-40.086090087890625,-1.2077789306640625,22.34881591796875
1776445008426932700,13.1889326171875,-40.355316162109375,-2.021270751953125,22.078201293945312
1776445008451949800,13.21394970703125,-40.6351318359375,-3.01611328125,21.019073486328125
1776445008476966700,13.238966552734375,-41.277374267578125,-3.530029296875,19.820892333984375
1776445008501983700,13.263983642578125,-42.266357421875,-4.4050445556640625,18.78564453125
1776445008527000600,13.28900048828125,-42.26104736328125,-4.9880523681640625,18.00494384765625
1776445008552017700,13.314017578125,-42.617462158203125,-6.5718536376953125,17.393661499023438
1776445008577035000,13.339034912109375,-42.733612060546875,-7.772216796875,16.682388305664062
1776445008602052000,13.364052001953125,-42.24346923828125,-9.653274536132812,16.48394775390625
1776445008627069000,13.38906884765625,-41.7440185546875,-11.441513061523438,16.894149780273438
1776445008652086000,13.4140859375,-39.92071533203125,-14.156646728515625,18.139236450195312
1776445008677103000,13.43910302734375,-39.613189697265625,-16.247360229492188,18.507232666015625
1776445008702120200,13.4641201171875,-39.23895263671875,-18.604461669921875,18.034652709960938
1776445008727137000,13.489136962890624,-39.1826171875,-19.608993530273438,17.092544555664062
1776445008752153900,13.51415380859375,-38.988006591796875,-21.509872436523438,15.055282592773438
1776445008777171000,13.5391708984375,-39.299468994140625,-21.915298461914062,13.464218139648438
1776445008802188000,13.56418798828125,-39.57733154296875,-21.973297119140625,11.42303466796875
1776445008827204900,13.589204833984375,-39.874664306640625,-21.979019165039062,9.900604248046875
1776445008852222000,13.614221923828126,-40.378265380859375,-21.848556518554688,7.9772796630859375
1776445008877239000,13.639239013671874,-40.6138916015625,-21.6304931640625,7.076202392578125
1776445008902256000,13.664256103515624,-40.6544189453125,-22.027114868164062,6.24462890625
1776445008927273000,13.68927294921875,-40.545562744140625,-21.618209838867188,6.00665283203125
1776445008952290000,13.7142900390625,-40.707305908203125,-22.14556884765625,5.379425048828125
1776445008977307100,13.73930712890625,-40.639373779296875,-21.617599487304688,5.148590087890625
1776445009002324000,13.764323974609376,-41.23114013671875,-21.038116455078125,5.0130157470703125
1776445009027342000,13.789342041015624,-41.32879638671875,-20.932266235351562,4.8662109375
1776445009052359000,13.81435888671875,-41.12164306640625,-20.929458618164062,4.7940673828125
1776445009077376000,13.8393759765625,-40.934967041015625,-21.303909301757812,5.13592529296875
1776445009102392800,13.864392822265625,-41.349029541015625,-21.392013549804688,4.1376190185546875
1776445009127410000,13.889409912109375,-41.15362548828125,-20.738113403320312,1.967254638671875
1776445009152427000,13.914427001953126,-41.783966064453125,-20.233993530273438,0.4030303955078125
1776445009177444000,13.939444091796876,-42.3209228515625,-19.329620361328125,-0.918060302734375
1776445009202461000,13.9644609375,-42.089080810546875,-19.356857299804688,-1.476165771484375
1776445009227478000,13.98947802734375,-41.617828369140625,-19.342086791992188,-2.3469696044921875
1776445009252495000,14.0144951171875,-41.422088623046875,-19.404830932617188,-3.09222412109375
1776445009277512200,14.03951220703125,-41.897918701171875,-19.409912109375,-4.4447021484375
1776445009302529000,14.064529052734375,-41.522369384765625,-19.683059692382812,-4.93096923828125
1776445009327545900,14.0895458984375,-41.188720703125,-19.849990844726562,-5.4654388427734375
1776445009352563000,14.11456298828125,-40.77166748046875,-20.297866821289062,-5.9746246337890625
1776445009377580000,14.139580078125,-40.68841552734375,-20.600082397460938,-5.9096221923828125
1776445009402596900,14.164596923828125,-40.77789306640625,-20.434478759765625,-6.27081298828125
1776445009427614000,14.189614013671875,-40.708587646484375,-20.619430541992188,-7.1869659423828125
1776445009452631000,14.214631103515625,-41.033782958984375,-20.333206176757812,-7.7923431396484375
1776445009477648100,14.239648193359375,-41.179107666015625,-19.98565673828125,-8.837310791015625
1776445009502665000,14.2646650390625,-40.6466064453125,-19.974258422851562,-9.872650146484375
1776445009527682000,14.28968212890625,-40.6690673828125,-20.253555297851562,-10.218048095703125
1776445009552699100,14.31469921875,-40.6580810546875,-20.241607666015625,-10.866653442382812
1776445009577719600,14.339719482421875,-40.02508544921875,-19.492050170898438,-11.516769409179688
1776445009602736400,14.364736328125,-40.08819580078125,-19.470458984375,-11.898284912109375
1776445009627753500,14.38975341796875,-40.05126953125,-19.176040649414062,-12.22332763671875
1776445009652770600,14.4147705078125,-40.081298828125,-18.759918212890625,-12.799163818359375
1776445009677787400,14.439787353515625,-40.7012939453125,-18.413040161132812,-12.87481689453125
1776445009702804200,14.46480419921875,-40.136566162109375,-17.425338745117188,-12.166900634765625
1776445009727821300,14.4898212890625,-41.065277099609375,-16.100341796875,-12.946853637695312
1776445009752838400,14.51483837890625,-40.929656982421875,-15.149017333984375,-13.613616943359375
1776445009777855500,14.53985546875,-41.23858642578125,-13.913818359375,-14.535629272460938
1776445009802872300,14.564872314453124,-41.26953125,-12.119888305664062,-14.671310424804688
1776445009827889400,14.589889404296875,-41.8197021484375,-10.210418701171875,-15.108779907226562
1776445009852906500,14.614906494140625,-41.774505615234375,-8.831497192382812,-15.466262817382812
1776445009877923600,14.639923583984375,-41.920867919921875,-6.2349853515625,-15.658111572265625
1776445009902940400,14.6649404296875,-42.072052001953125,-5.154296875,-15.71710205078125
1776445009927957200,14.689957275390626,-41.99169921875,-3.2489013671875,-16.112197875976562
1776445009952975600,14.7149755859375,-41.929534912109375,-2.3873138427734375,-16.420867919921875
1776445009977992200,14.7399921875,-41.445404052734375,-2.1875457763671875,-16.518386840820312
1776445010003009300,14.76500927734375,-41.57122802734375,-2.567047119140625,-16.79803466796875
1776445010028026400,14.7900263671875,-41.573333740234375,-2.65960693359375,-16.466629028320312
1776445010053043500,14.81504345703125,-41.137542724609375,-2.9243316650390625,-17.163223266601562
1776445010078060300,14.840060302734376,-40.766143798828125,-2.410308837890625,-18.349197387695312
1776445010103077400,14.865077392578126,-40.74737548828125,-2.121673583984375,-18.066513061523438
1776445010128094500,14.890094482421874,-40.855133056640625,-0.8914794921875,-18.236602783203125
1776445010153111600,14.915111572265625,-40.915802001953125,0.2020416259765625,-17.823822021484375
1776445010178128400,14.94012841796875,-40.6968994140625,1.7336578369140625,-17.228302001953125
1776445010203145500,14.9651455078125,-41.234161376953125,2.6125335693359375,-17.048599243164062
1776445010228162300,14.990162353515625,-40.3028564453125,3.9999237060546875,-18.057098388671875
1776445010253179400,15.015179443359376,-39.31903076171875,4.8654022216796875,-18.705322265625
1776445010278196200,15.0401962890625,-38.8214111328125,5.851226806640625,-19.490509033203125
1776445010303213300,15.06521337890625,-38.08782958984375,6.970306396484375,-19.992401123046875
1776445010328230400,15.09023046875,-37.971221923828125,8.333221435546875,-19.859527587890625
1776445010353247500,15.11524755859375,-37.519134521484375,8.96124267578125,-19.988510131835938
1776445010378264300,15.140264404296875,-37.45361328125,9.412811279296875,-20.202407836914062
1776445010403281400,15.165281494140626,-37.20001220703125,9.695175170898438,-20.834014892578125
1776445010428298500,15.190298583984376,-36.73529052734375,11.238388061523438,-20.384902954101562
1776445010453315600,15.215315673828124,-36.45703125,11.890625,-20.629486083984375
1776445010478332400,15.24033251953125,-36.266204833984375,13.051544189453125,-20.374374389648438
1776445010503349200,15.265349365234375,-36.222503662109375,13.685302734375,-19.709304809570312
1776445010528366300,15.290366455078125,-37.063232421875,14.436447143554688,-18.011810302734375
1776445010553383400,15.315383544921875,-36.8555908203125,15.103775024414062,-17.292282104492188
1776445010578396700,15.340396728515625,-37.04736328125,16.284530639648438,-15.472427368164062
1776445010603413800,15.365413818359375,-37.27691650390625,16.821029663085938,-13.863845825195312
1776445010628430800,15.390430908203125,-37.59588623046875,17.77386474609375,-12.009445190429688
1776445010653448000,15.415447998046876,-37.490203857421875,18.366806030273438,-10.821640014648438
1776445010678464800,15.44046484375,-37.126129150390625,19.751129150390625,-10.185592651367188
1776445010703481600,15.465481689453124,-36.3203125,20.185333251953125,-9.853378295898438
1776445010728498700,15.490498779296875,-36.687164306640625,20.705978393554688,-10.2127685546875
1776445010753515800,15.515515869140625,-36.23876953125,21.24688720703125,-9.267105102539062
1776445010778532900,15.540532958984375,-36.60626220703125,21.425582885742188,-7.32159423828125
1776445010803549700,15.5655498046875,-36.991607666015625,21.438995361328125,-6.090606689453125
1776445010828566800,15.59056689453125,-37.7803955078125,20.999954223632812,-4.344482421875
1776445010853584000,15.615583984375,-37.941802978515625,20.282699584960938,-3.677215576171875
1776445010878601000,15.64060107421875,-38.5390625,19.436904907226562,-3.1384735107421875
1776445010903617800,15.66561767578125,-38.400604248046875,18.891876220703125,-3.4243011474609375
1776445010928635000,15.690634765625,-38.63043212890625,18.916580200195312,-2.878997802734375
1776445010953651700,15.715651611328125,-38.7296142578125,19.019699096679688,-2.2327728271484375
1776445010978668800,15.740668701171876,-38.565032958984375,19.174163818359375,-0.951080322265625
1776445011003685600,15.765685546875,-38.76348876953125,19.165237426757812,-0.1791839599609375
1776445011028702700,15.79070263671875,-38.494354248046875,19.18023681640625,0.9066619873046875
1776445011053719800,15.8157197265625,-38.98834228515625,19.309036254882812,2.2069549560546875
1776445011078737000,15.84073681640625,-39.194549560546875,19.061019897460938,3.162139892578125
1776445011103753700,15.865753662109375,-39.569549560546875,18.141738891601562,5.050537109375
1776445011128770800,15.890770751953125,-39.490875244140625,17.775909423828125,5.9136962890625
1776445011153788000,15.915787841796876,-39.096832275390625,18.047943115234375,6.9788665771484375
1776445011178805000,15.940804931640624,-38.708587646484375,17.8660888671875,7.2215118408203125
1776445011203822800,15.96582275390625,-38.994781494140625,17.689971923828125,7.629058837890625
1776445011228840000,15.99083984375,-39.28045654296875,17.743026733398438,8.030990600585938
1776445011253856800,16.015856689453123,-39.0096435546875,17.9002685546875,8.704193115234375
1776445011278873600,16.04087353515625,-38.774078369140625,17.731277465820312,9.124359130859375
1776445011303890700,16.065890625,-38.68756103515625,17.58306884765625,9.791656494140625
1776445011328907800,16.09090771484375,-38.21331787109375,17.498336791992188,9.999771118164062
1776445011353924900,16.1159248046875,-38.538055419921875,17.506301879882812,10.63031005859375
1776445011378941700,16.140941650390626,-38.401580810546875,17.377334594726562,11.650238037109375
1776445011403958800,16.165958740234377,-38.355316162109375,16.607467651367188,13.947921752929688
1776445011428975900,16.190975830078123,-37.787384033203125,16.135147094726562,15.983856201171875
1776445011453993000,16.215992919921874,-36.52105712890625,15.536117553710938,18.719039916992188
1776445011479009800,16.241009765625,-35.800750732421875,14.775344848632812,20.26531982421875
1776445011504027000,16.26602685546875,-35.531646728515625,14.524459838867188,21.98974609375
1776445011529043700,16.291043701171876,-34.86767578125,14.13909912109375,22.814666748046875
1776445011554060800,16.316060791015627,-34.331634521484375,14.053375244140625,23.676620483398438
1776445011579081700,16.341081787109374,-34.10296630859375,13.830718994140625,24.068801879882812
1776445011604098800,16.366098876953124,-35.056243896484375,13.489898681640625,24.219802856445312
1776445011629116000,16.391115966796875,-35.403472900390625,12.267166137695312,24.621994018554688
1776445011654132700,16.4161328125,-35.499176025390625,10.738739013671875,25.163528442382812
1776445011679149800,16.44114990234375,-35.83599853515625,9.752822875976562,25.219085693359375
1776445011704167000,16.4661669921875,-36.34722900390625,8.612274169921875,25.383041381835938
1776445011729184000,16.49118408203125,-36.710693359375,7.88323974609375,25.451736450195312
1776445011754200800,16.516200927734374,-36.711029052734375,6.952667236328125,25.409912109375
1776445011779218000,16.541218017578124,-36.808074951171875,6.5482635498046875,25.7010498046875
1776445011804234800,16.56623486328125,-37.06182861328125,6.06463623046875,25.60882568359375
1776445011829251800,16.591251953125,-36.868438720703125,5.226654052734375,26.130630493164062
1776445011854268700,16.6162685546875,-36.815765380859375,4.2678375244140625,26.369308471679688
1776445011879285800,16.64128564453125,-36.604766845703125,3.22796630859375,26.610015869140625
1776445011904302800,16.666302734375,-37.067108154296875,2.014892578125,26.658767700195312
1776445011929320000,16.69131982421875,-37.453948974609375,1.08087158203125,26.8583984375
1776445011954336800,16.716336669921876,-37.38848876953125,-0.1005401611328125,27.09381103515625
1776445011979353900,16.741353759765627,-37.0206298828125,-0.7003936767578125,26.959304809570312
1776445012004371000,16.766370849609373,-37.463958740234375,-1.6151123046875,26.405624389648438
1776445012029388000,16.791387939453124,-37.822357177734375,-2.5534515380859375,25.818649291992188
1776445012054404900,16.81640478515625,-38.063507080078125,-3.144287109375,25.681777954101562
1776445012079421700,16.841421630859376,-37.960601806640625,-4.0611419677734375,25.337265014648438
1776445012104438800,16.866438720703126,-38.1600341796875,-4.95379638671875,25.149703979492188
1776445012129455900,16.891455810546876,-38.45263671875,-5.630859375,24.741836547851562
1776445012154472700,16.91647265625,-38.307403564453125,-6.60430908203125,24.52386474609375
1776445012179489800,16.94148974609375,-37.97906494140625,-7.2816009521484375,25.098709106445312
1776445012204507000,16.9665068359375,-38.716156005859375,-8.105621337890625,24.593276977539062
1776445012229524000,16.99152392578125,-38.664581298828125,-8.40899658203125,24.285324096679688
1776445012254540800,17.016540771484376,-39.1204833984375,-9.279861450195312,22.8773193359375
1776445012279558000,17.041557861328126,-39.8123779296875,-9.7088623046875,21.795440673828125
1776445012304575000,17.066574951171877,-40.260223388671875,-10.500564575195312,20.25286865234375
1776445012329591800,17.091591796875,-40.471038818359375,-11.108932495117188,19.625762939453125
1776445012354609000,17.11660888671875,-40.355072021484375,-12.16424560546875,19.656463623046875
1776445012379625700,17.141625732421875,-40.301483154296875,-13.461929321289062,19.4078369140625
1776445012404642800,17.166642822265626,-39.53240966796875,-15.394210815429688,18.563125610351562
1776445012429660000,17.191659912109376,-39.178680419921875,-16.6766357421875,17.595108032226562
1776445012454677000,17.216677001953126,-39.270660400390625,-17.815963745117188,16.186508178710938
1776445012479693800,17.24169384765625,-39.720306396484375,-18.409835815429688,15.207122802734375
1776445012504711000,17.2667109375,-39.773284912109375,-19.910293579101562,13.520675659179688
1776445012529728000,17.29172802734375,-39.54644775390625,-20.419540405273438,12.300567626953125
1776445012554744800,17.316744873046876,-39.265411376953125,-21.581405639648438,11.128631591796875
1776445012579757800,17.3417578125,-39.35137939453125,-22.07037353515625,10.611404418945312
1776445012604775000,17.36677490234375,-38.800384521484375,-22.988388061523438,9.538101196289062
1776445012629792000,17.3917919921875,-39.328582763671875,-23.162338256835938,8.629043579101562
1776445012654808800,17.416808837890624,-39.06201171875,-23.307373046875,7.3339385986328125
1776445012679825700,17.44182568359375,-39.296356201171875,-23.746475219726562,6.42059326171875
1776445012704842800,17.4668427734375,-39.116302490234375,-23.924575805664062,5.47137451171875
1776445012729859800,17.49185986328125,-39.413116455078125,-23.771102905273438,4.7013092041015625
1776445012754877000,17.516876953125,-39.240447998046875,-23.269500732421875,4.08099365234375
1776445012779893800,17.541893798828124,-38.86309814453125,-23.010345458984375,3.93756103515625
1776445012804910800,17.566910888671874,-39.73175048828125,-22.92059326171875,3.2374725341796875
1776445012829928000,17.591927978515624,-39.50518798828125,-22.4263916015625,3.1612548828125
1776445012854945000,17.616945068359374,-40.307769775390625,-22.15216064453125,2.191070556640625
1776445012879961900,17.6419619140625,-40.011138916015625,-21.569992065429688,1.8238677978515625
1776445012904978700,17.666978759765627,-40.472625732421875,-20.988418579101562,1.0146026611328125
1776445012929995800,17.691995849609373,-40.80560302734375,-20.19952392578125,0.9992218017578125
1776445012955012900,17.717012939453124,-41.0738525390625,-19.482742309570312,0.6876983642578125
1776445012980029700,17.74202978515625,-40.87353515625,-19.8074951171875,0.583251953125
1776445013005046800,17.767046875,-40.76580810546875,-20.23382568359375,0.596588134765625
1776445013030063900,17.79206396484375,-39.8662109375,-21.528610229492188,0.5966949462890625
1776445013055081000,17.8170810546875,-39.289154052734375,-22.193130493164062,0.0992584228515625
1776445013080097800,17.842097900390623,-38.950225830078125,-23.59503173828125,-1.7437744140625
1776445013105115000,17.867114990234374,-38.81842041015625,-23.776641845703125,-3.450225830078125
1776445013130132000,17.892132080078124,-38.0303955078125,-23.255218505859375,-5.38665771484375
1776445013155148800,17.917148681640626,-37.61395263671875,-23.533477783203125,-7.1032257080078125
1776445013180166000,17.942165771484376,-37.271270751953125,-23.2044677734375,-8.561935424804688
1776445013205182700,17.9671826171875,-37.548187255859375,-23.032455444335938,-9.106689453125
1776445013230199800,17.99219970703125,-37.9312744140625,-22.415695190429688,-9.4779052734375
1776445013255217000,18.017216796875,-38.05206298828125,-21.650375366210938,-10.008575439453125
1776445013280234000,18.04223388671875,-37.992401123046875,-20.335678100585938,-10.745086669921875
1776445013305250800,18.067250732421876,-38.442474365234375,-19.235122680664062,-11.422286987304688
1776445013330268000,18.092267822265626,-38.788421630859375,-18.735733032226562,-12.463470458984375
1776445013355285000,18.117284912109376,-38.837646484375,-17.8912353515625,-12.75750732421875
1776445013380302000,18.142302001953126,-39.21038818359375,-16.824951171875,-13.293228149414062
1776445013405319000,18.16731884765625,-39.086181640625,-16.22119140625,-14.065216064453125
1776445013430335700,18.192335693359375,-39.53515625,-15.48162841796875,-14.419845581054688
1776445013455352800,18.217352783203125,-39.963165283203125,-15.10882568359375,-14.500198364257812
1776445013480370000,18.242369873046876,-39.55859375,-15.017623901367188,-14.6944580078125
1776445013505386800,18.26738671875,-39.755584716796875,-14.656478881835938,-15.234771728515625
1776445013530403800,18.29240380859375,-39.54083251953125,-13.645233154296875,-15.9405517578125
1776445013555421000,18.3174208984375,-39.0030517578125,-13.39532470703125,-16.251602172851562
1776445013580441600,18.342441650390626,-38.94952392578125,-12.927032470703125,-16.943466186523438
1776445013605458700,18.367458740234376,-39.022247314453125,-12.361831665039062,-17.139556884765625
1776445013630475800,18.392475830078126,-38.923126220703125,-11.507049560546875,-17.629638671875
1776445013655492900,18.417492919921877,-38.840057373046875,-10.8343505859375,-17.626052856445312
1776445013680509700,18.442509765625,-38.522705078125,-9.996978759765625,-17.924774169921875
1776445013705526800,18.46752685546875,-39.233184814453125,-9.477310180664062,-18.148788452148438
1776445013730543900,18.4925439453125,-39.0057373046875,-8.686370849609375,-18.5521240234375
1776445013755560700,18.517560791015626,-38.558197021484375,-7.988128662109375,-18.766433715820312
1776445013780577500,18.54257763671875,-39.132171630859375,-7.223724365234375,-19.322006225585938
1776445013805594600,18.5675947265625,-38.478851318359375,-7.1005706787109375,-19.547576904296875
1776445013830611700,18.59261181640625,-38.769287109375,-6.2130126953125,-19.769027709960938
1776445013855628800,18.61762890625,-38.46026611328125,-6.0726165771484375,-19.96551513671875
1776445013880645600,18.642645751953125,-38.65264892578125,-5.10284423828125,-20.339920043945312
1776445013905662700,18.667662841796876,-38.1602783203125,-4.479156494140625,-20.34765625
1776445013930679800,18.6926796875,-38.819305419921875,-3.3740997314453125,-20.19940185546875
1776445013955697000,18.71769677734375,-38.609283447265625,-3.0727386474609375,-20.709579467773438
1776445013980713700,18.742713623046875,-38.405120849609375,-1.746826171875,-20.7401123046875
1776445014005730600,18.76773046875,-38.530303955078125,-0.692138671875,-20.59161376953125
1776445014030747600,18.79274755859375,-37.67919921875,1.303558349609375,-20.713836669921875
1776445014055764700,18.8177646484375,-37.613494873046875,2.3165435791015625,-21.559341430664062
1776445014080781800,18.84278173828125,-36.879364013671875,3.6422119140625,-21.919921875
1776445014105798700,18.867798583984374,-36.600372314453125,4.682464599609375,-22.0328369140625
1776445014130815700,18.892815673828125,-36.0301513671875,6.4129486083984375,-22.585861206054688
1776445014155832800,18.917832763671875,-35.098052978515625,7.4476318359375,-23.336212158203125
1776445014180849700,18.942849609375,-34.22015380859375,8.4697265625,-24.075973510742188
1776445014205866800,18.96786669921875,-34.49053955078125,8.670059204101562,-23.37200927734375
1776445014230883800,18.9928837890625,-35.545074462890625,7.938690185546875,-21.756240844726562
1776445014255900700,19.017900634765624,-35.997528076171875,7.3451690673828125,-21.542343139648438
1776445014280917800,19.042917724609374,-37.041961669921875,6.609344482421875,-20.537979125976562
1776445014305935600,19.067935546875,-36.766448974609375,6.3386993408203125,-20.3721923828125
1776445014330951700,19.09295166015625,-36.263092041015625,6.285675048828125,-21.799331665039062
1776445014355968800,19.11796875,-35.913543701171875,5.983184814453125,-22.619033813476562
1776445014380985900,19.14298583984375,-35.264404296875,6.34942626953125,-23.303787231445312
1776445014406002700,19.168002685546874,-35.580474853515625,7.2371978759765625,-22.839218139648438
1776445014431020800,19.193020751953124,-36.03375244140625,9.0350341796875,-21.539260864257812
1776445014456036900,19.218036865234374,-35.857635498046875,10.082855224609375,-20.182907104492188
1776445014481054000,19.243053955078125,-36.312652587890625,12.134445190429688,-18.555145263671875
1776445014506070800,19.26807080078125,-36.530029296875,13.32623291015625,-17.962432861328125
1776445014531089000,19.2930888671875,-36.473114013671875,14.444137573242188,-16.519073486328125
1776445014556104700,19.318104736328124,-36.408203125,15.422637939453125,-15.254440307617188
1776445014581118700,19.34311865234375,-36.5213623046875,16.638015747070312,-13.828018188476562
1776445014606135800,19.3681357421875,-35.967041015625,17.7568359375,-13.230819702148438
1776445014631153000,19.39315283203125,-35.892913818359375,18.558624267578125,-11.391952514648438
1776445014656170000,19.418169921875,-36.7454833984375,18.641281127929688,-10.213531494140625
1776445014681186600,19.4431865234375,-36.75872802734375,19.379806518554688,-7.9292144775390625
1776445014706203600,19.46820361328125,-36.65765380859375,20.004348754882812,-6.672454833984375
1776445014731221800,19.4932216796875,-36.922454833984375,20.743850708007812,-5.3237457275390625
1776445014756237800,19.51823779296875,-36.590179443359375,20.833541870117188,-4.113006591796875
1776445014781254700,19.543254638671876,-36.19635009765625,21.4171142578125,-3.1258392333984375
1776445014806271700,19.568271728515626,-36.17193603515625,21.657546997070312,-2.566192626953125
1776445014831288800,19.593288818359376,-35.769805908203125,22.038650512695312,-1.4837646484375
1776445014856306000,19.618305908203126,-35.753570556640625,22.045913696289062,-0.9818267822265625
1776445014881322800,19.64332275390625,-35.63189697265625,22.657791137695312,-0.6198577880859375
1776445014906339800,19.66833984375,-35.67645263671875,22.8916015625,-0.1182098388671875
1776445014931356700,19.693356689453125,-35.837493896484375,23.013137817382812,0.045440673828125
1776445014956373800,19.718373779296876,-35.28826904296875,23.499893188476562,0.4366607666015625
1776445014981390600,19.743390625,-35.135833740234375,23.421310424804688,1.1258544921875
1776445015006407700,19.76840771484375,-34.58990478515625,23.848464965820312,2.1612548828125
1776445015031424800,19.7934248046875,-34.08502197265625,23.845901489257812,2.82489013671875
1776445015056441900,19.81844189453125,-34.6513671875,23.607421875,3.388580322265625
1776445015081458700,19.843458740234375,-35.470001220703125,22.685546875,3.6986083984375
1776445015106475800,19.868475830078125,-36.05352783203125,22.042083740234375,5.090118408203125
1776445015131492900,19.893492919921876,-36.425933837890625,21.392242431640625,6.12261962890625
1776445015156510000,19.918510009765626,-36.75433349609375,20.476470947265625,8.227676391601562
1776445015181526800,19.94352685546875,-36.72149658203125,19.62158203125,10.146743774414062
1776445015206543600,19.968543701171875,-37.25006103515625,18.056976318359375,13.3392333984375
1776445015231560700,19.993560791015625,-37.1768798828125,16.969696044921875,15.457122802734375
1776445015256577800,20.018577880859375,-36.380615234375,16.335891723632812,17.916976928710938
1776445015281595000,20.043594970703126,-35.60321044921875,16.756881713867188,18.5042724609375
1776445015306611700,20.06861181640625,-35.295440673828125,17.210159301757812,18.30072021484375
1776445015331628800,20.09362890625,-35.3841552734375,17.638198852539062,17.705047607421875
1776445015356646000,20.11864599609375,-35.06201171875,18.180755615234375,17.9267578125
1776445015381662700,20.143662841796875,-35.085845947265625,17.61981201171875,18.66326904296875
1776445015406679800,20.1686796875,-34.80267333984375,16.389266967773438,20.480178833007812
1776445015431697000,20.19369677734375,-34.854522705078125,15.254501342773438,21.594024658203125
1776445015456713700,20.218713623046874,-34.268585205078125,14.37457275390625,23.239791870117188
1776445015481730800,20.243730712890624,-33.541168212890625,13.551651000976562,24.910125732421875
1776445015506747600,20.26874755859375,-33.2745361328125,11.28668212890625,26.8209228515625
1776445015531764700,20.2937646484375,-33.34356689453125,10.250259399414062,27.458145141601562
1776445015556781800,20.31878173828125,-33.362823486328125,8.483169555664062,28.273880004882812
1776445015581803000,20.343802978515626,-33.737152099609375,7.6973419189453125,28.276458740234375
1776445015606819800,20.36881982421875,-34.6173095703125,7.108734130859375,28.409393310546875
1776445015631837000,20.3938369140625,-34.443084716796875,7.0596160888671875,27.418914794921875
1776445015656854000,20.41885400390625,-34.433380126953125,6.3980255126953125,27.362335205078125
1776445015681870800,20.443870849609375,-34.84814453125,6.0173797607421875,27.937225341796875
1776445015706888000,20.468887939453126,-34.368560791015625,5.0423431396484375,27.976531982421875
1776445015731905000,20.493905029296876,-35.059844970703125,4.2222900390625,28.304336547851562
1776445015756922000,20.518922119140626,-35.234100341796875,2.6484527587890625,28.531845092773438
1776445015781939000,20.54393896484375,-35.22576904296875,1.2442474365234375,28.912017822265625
1776445015806956000,20.5689560546875,-35.644378662109375,-0.416473388671875,28.568771362304688
1776445015831973000,20.59397314453125,-35.9827880859375,-1.9021453857421875,27.9429931640625
1776445015856990200,20.618990234375,-36.138458251953125,-3.378448486328125,27.685791015625
1776445015882006800,20.6440068359375,-36.375030517578125,-3.860931396484375,27.184051513671875
1776445015907024000,20.66902392578125,-36.866363525390625,-4.9803009033203125,25.979629516601562
1776445015932041000,20.694041015625,-37.7353515625,-5.4700469970703125,25.001235961914062
1776445015957058000,20.71905810546875,-38.645660400390625,-6.0999755859375,24.017044067382812
1776445015982075000,20.744074951171875,-39.096649169921875,-6.128814697265625,22.961837768554688
1776445016007092000,20.769092041015625,-39.0225830078125,-5.8418731689453125,22.069656372070312
1776445016032109000,20.794109130859376,-39.458984375,-5.6800384521484375,21.458572387695312
1776445016057126100,20.819126220703126,-39.973602294921875,-5.580718994140625,20.4141845703125
1776445016082143000,20.84414306640625,-40.178253173828125,-5.49237060546875,20.644393920898438
1776445016107160000,20.86916015625,-39.773406982421875,-6.660186767578125,21.543502807617188
1776445016132177000,20.894177001953125,-38.70391845703125,-7.572174072265625,22.655807495117188
1776445016157194000,20.919194091796875,-38.350311279296875,-9.705169677734375,22.730392456054688
1776445016182210800,20.9442109375,-38.36651611328125,-11.077056884765625,22.614013671875
1776445016207228000,20.969227783203124,-38.816986083984375,-13.0396728515625,20.908554077148438
1776445016232245000,20.994244873046874,-39.512481689453125,-13.886993408203125,19.1658935546875
1776445016257262000,21.019261962890624,-39.6357421875,-14.9581298828125,17.660400390625
1776445016282279000,21.04427880859375,-39.299774169921875,-15.687469482421875,17.315689086914062
1776445016307296000,21.0692958984375,-39.257843017578125,-17.446426391601562,16.895660400390625
1776445016332313000,21.09431298828125,-38.513275146484375,-18.870529174804688,16.601837158203125
1776445016357330200,21.119330078125,-38.56573486328125,-19.680328369140625,15.487762451171875
1776445016382346800,21.1443466796875,-38.257659912109375,-20.3966064453125,14.743438720703125
1776445016407363800,21.16936376953125,-38.648101806640625,-20.924514770507812,12.904098510742188
1776445016432381000,21.194380859375,-38.999267578125,-21.272567749023438,11.107345581054688
1776445016457398000,21.21939794921875,-38.655303955078125,-22.236343383789062,9.998428344726562
1776445016482414800,21.244414794921877,-38.62701416015625,-22.603607177734375,8.786285400390625
1776445016507432000,21.269431884765623,-38.168731689453125,-23.871673583984375,7.6558074951171875
1776445016532449000,21.294448974609374,-37.488494873046875,-24.5235595703125,7.3877105712890625
1776445016557466000,21.319466064453124,-36.737213134765625,-25.917770385742188,7.2864227294921875
1776445016582477300,21.344477294921877,-36.698638916015625,-25.988800048828125,7.4936065673828125
1776445016607494400,21.369494384765623,-36.771942138671875,-26.305206298828125,6.23162841796875
1776445016632511500,21.394511474609374,-36.353118896484375,-26.73626708984375,5.312164306640625
1776445016657528300,21.4195283203125,-36.521331787109375,-26.617507934570312,3.9518890380859375
1776445016682545400,21.44454541015625,-36.570587158203125,-26.25445556640625,3.3549346923828125
1776445016707562500,21.4695625,-36.73895263671875,-25.649581909179688,2.28582763671875
1776445016732579600,21.49457958984375,-37.396209716796875,-25.81024169921875,0.99560546875
1776445016757596200,21.51959619140625,-38.008941650390625,-25.580459594726562,-0.275146484375
1776445016782613200,21.54461328125,-37.609771728515625,-24.892471313476562,-0.555816650390625
1776445016807630300,21.56963037109375,-37.7042236328125,-24.58154296875,-1.64373779296875
1776445016832647400,21.5946474609375,-38.123779296875,-23.659576416015625,-3.8349609375
1776445016857664300,21.619664306640626,-38.2232666015625,-23.654388427734375,-3.8190155029296875
1776445016882681300,21.644681396484376,-37.99151611328125,-23.897415161132812,-3.4709625244140625
1776445016907698400,21.669698486328127,-37.7952880859375,-24.072509765625,-3.339752197265625
1776445016932715500,21.694715576171873,-38.001312255859375,-23.679229736328125,-4.3751678466796875
1776445016957732400,21.719732421875,-37.93988037109375,-23.100967407226562,-5.5214080810546875
1776445016982749400,21.74474951171875,-38.154998779296875,-21.11468505859375,-8.177871704101562
1776445017007766300,21.769766357421876,-37.976531982421875,-20.148391723632812,-10.26177978515625
1776445017032783400,21.794783447265626,-38.238037109375,-17.897994995117188,-12.617935180664062
1776445017057800200,21.81980029296875,-38.47515869140625,-16.6312255859375,-13.748809814453125
1776445017082817300,21.8448173828125,-38.729766845703125,-14.804397583007812,-14.809524536132812
1776445017107834400,21.86983447265625,-38.68731689453125,-13.512405395507812,-15.423492431640625
1776445017132851500,21.8948515625,-39.17376708984375,-12.00115966796875,-16.126846313476562
1776445017157868300,21.919868408203126,-39.44293212890625,-11.024765014648438,-16.061294555664062
1776445017182885400,21.944885498046876,-39.133514404296875,-9.768722534179688,-16.278488159179688
1776445017207902500,21.96990234375,-39.51092529296875,-9.19500732421875,-16.391006469726562
1776445017232919600,21.99491943359375,-39.4822998046875,-8.621200561523438,-16.523086547851562
1776445017257935400,22.019935302734375,-39.54022216796875,-8.561187744140625,-16.567642211914062
1776445017282952200,22.0449521484375,-38.85406494140625,-8.387039184570312,-17.704010009765625
1776445017307969300,22.06996923828125,-38.397430419921875,-8.15350341796875,-18.55987548828125
1776445017332986400,22.094986328125,-37.584259033203125,-7.6404571533203125,-20.278244018554688
1776445017358003500,22.12000341796875,-37.16845703125,-6.97723388671875,-21.440277099609375
1776445017383020300,22.145020263671874,-35.931793212890625,-6.27886962890625,-22.764007568359375
1776445017408037400,22.170037353515625,-36.08837890625,-5.402984619140625,-23.580612182617188
1776445017433054500,22.195054443359375,-35.800506591796875,-3.986572265625,-23.721542358398438
1776445017458071600,22.220071533203125,-35.885650634765625,-2.8998870849609375,-23.306732177734375
1776445017483088100,22.245088134765624,-37.010894775390625,-2.113128662109375,-22.842666625976562
1776445017508105200,22.270105224609374,-36.48382568359375,-1.8032073974609375,-22.52679443359375
1776445017533122300,22.295122314453124,-37.1041259765625,-1.95159912109375,-22.45916748046875
1776445017558139400,22.320139404296874,-36.649566650390625,-1.803314208984375,-22.3326416015625
1776445017583157200,22.3451572265625,-36.904449462890625,-1.0297393798828125,-22.455184936523438
1776445017608174300,22.37017431640625,-36.355438232421875,-0.44317626953125,-22.455062866210938
1776445017633191400,22.39519140625,-36.7723388671875,1.1513824462890625,-22.33721923828125
1776445017658208300,22.420208251953124,-37.028228759765625,1.858978271484375,-21.892578125
1776445017683225300,22.445225341796874,-36.622314453125,3.6791534423828125,-21.257614135742188
1776445017708242200,22.4702421875,-36.4833984375,4.861480712890625,-20.810531616210938
1776445017733259300,22.49525927734375,-36.88922119140625,6.3271942138671875,-19.79046630859375
1776445017758276400,22.5202763671875,-36.987884521484375,7.074798583984375,-19.39508056640625
1776445017783293200,22.545293212890623,-37.25128173828125,8.196075439453125,-18.30072021484375
1776445017808310300,22.570310302734374,-37.2958984375,9.303817749023438,-17.484268188476562
1776445017833327400,22.595327392578124,-37.4696044921875,10.659942626953125,-15.821823120117188
1776445017858344200,22.62034423828125,-37.384979248046875,11.810272216796875,-14.32745361328125
1776445017883361300,22.645361328125,-37.387939453125,13.675399780273438,-12.432113647460938
1776445017908378400,22.67037841796875,-36.86041259765625,15.116104125976562,-11.163192749023438
1776445017933395500,22.6953955078125,-36.5159912109375,16.569808959960938,-11.414306640625
1776445017958412300,22.720412353515623,-35.903564453125,17.110015869140625,-11.63128662109375
1776445017983429000,22.74542919921875,-35.720001220703125,17.50274658203125,-11.541183471679688
1776445018008446200,22.7704462890625,-35.64520263671875,17.442367553710938,-11.106369018554688
1776445018033463300,22.79546337890625,-36.0814208984375,17.4166259765625,-11.4481201171875
1776445018058480400,22.82048046875,-36.207427978515625,17.262130737304688,-11.782089233398438
1776445018083497200,22.845497314453127,-35.796661376953125,16.863037109375,-12.008560180664062
1776445018108514300,22.870514404296873,-35.671783447265625,16.71759033203125,-12.050537109375
1776445018133531400,22.895531494140624,-35.77056884765625,17.092864990234375,-11.877853393554688
1776445018158548500,22.920548583984374,-35.3328857421875,17.147613525390625,-11.714889526367188
1776445018183565300,22.9455654296875,-35.011932373046875,17.061309814453125,-12.195755004882812
1776445018208582100,22.97058203125,-35.371826171875,17.008193969726562,-12.4937744140625
1776445018233599200,22.99559912109375,-35.0423583984375,16.943496704101562,-13.142745971679688
1776445018258616300,23.0206162109375,-35.25054931640625,17.09271240234375,-13.454696655273438
1776445018283633200,23.045633056640625,-34.29620361328125,16.809341430664062,-14.795150756835938
1776445018308650200,23.070650146484375,-33.86724853515625,16.331588745117188,-16.119064331054688
1776445018333667300,23.095667236328126,-33.29241943359375,16.628082275390625,-17.557113647460938
1776445018358684400,23.120684326171876,-32.607635498046875,16.570770263671875,-18.299514770507812
1776445018383701200,23.145701171875,-32.13946533203125,16.91876220703125,-18.690322875976562
1776445018408718300,23.17071826171875,-31.6290283203125,17.310165405273438,-19.00213623046875
1776445018433735400,23.1957353515625,-30.83868408203125,17.647079467773438,-19.946624755859375
1776445018458752500,23.22075244140625,-30.4407958984375,17.618927001953125,-21.063827514648438
1776445018483769000,23.24576904296875,-29.859283447265625,17.685562133789062,-21.543716430664062
1776445018508786200,23.2707861328125,-29.4423828125,17.631515502929688,-21.919754028320312
1776445018533803300,23.29580322265625,-28.657958984375,17.897979736328125,-22.300430297851562
1776445018558819300,23.3208193359375,-27.6302490234375,18.3729248046875,-22.812149047851562
1776445018583836400,23.34583642578125,-26.637054443359375,18.88092041015625,-23.52154541015625
1776445018608853200,23.370853271484375,-25.982818603515625,18.787002563476562,-24.348770141601562
1776445018633870300,23.395870361328125,-25.48736572265625,19.039047241210938,-24.955841064453125
1776445018658887400,23.420887451171875,-24.730865478515625,18.747909545898438,-26.144973754882812
1776445018683904500,23.445904541015626,-24.169403076171875,18.470169067382812,-26.75250244140625
1776445018708921300,23.47092138671875,-23.28802490234375,18.509750366210938,-27.471603393554688
1776445018733938400,23.4959384765625,-22.750732421875,18.334457397460938,-27.909423828125
1776445018758955500,23.52095556640625,-22.03192138671875,18.53729248046875,-27.968597412109375
1776445018783972600,23.54597265625,-21.896453857421875,18.663482666015625,-28.343307495117188
1776445018808989200,23.5709892578125,-21.67132568359375,18.49554443359375,-28.34527587890625
1776445018834006300,23.59600634765625,-21.629302978515625,18.56060791015625,-28.6810302734375
1776445018859023400,23.6210234375,-21.8037109375,18.439422607421875,-28.249603271484375
1776445018884040400,23.64604052734375,-21.6087646484375,18.616287231445312,-28.577789306640625
1776445018909057300,23.671057373046875,-21.776885986328125,18.97406005859375,-28.495040893554688
1776445018934074400,23.696074462890625,-21.43072509765625,18.607437133789062,-28.579910278320312
1776445018959091500,23.721091552734375,-21.8634033203125,18.546600341796875,-28.86749267578125
1776445018984108500,23.746108642578125,-21.483551025390625,18.665802001953125,-28.697540283203125
1776445019009125400,23.77112548828125,-20.902618408203125,19.261749267578125,-28.4652099609375
1776445019034142500,23.796142578125,-20.88336181640625,19.072723388671875,-28.500732421875
1776445019059159600,23.82115966796875,-21.378662109375,18.96905517578125,-28.269363403320312
1776445019084176400,23.84617626953125,-21.7496337890625,19.11529541015625,-28.35443115234375
1776445019109193200,23.871193115234377,-22.187744140625,19.050582885742188,-28.0908203125
1776445019134210300,23.896210205078123,-22.280914306640625,18.987747192382812,-28.154937744140625
1776445019159227400,23.921227294921874,-22.146026611328125,18.707107543945312,-28.402206420898438
1776445019184244500,23.946244384765624,-22.08587646484375,18.257720947265625,-28.76507568359375
1776445019209261300,23.97126123046875,-22.164398193359375,17.487869262695312,-29.249557495117188
1776445019234278400,23.9962783203125,-21.77099609375,17.039535522460938,-29.778823852539062
1776445019259295500,24.02129541015625,-22.085052490234375,16.4901123046875,-29.715591430664062
1776445019284312600,24.0463125,-21.941375732421875,15.970672607421875,-30.145339965820312
1776445019309329400,24.071329345703123,-21.86700439453125,15.67742919921875,-30.2996826171875
1776445019334346200,24.09634619140625,-21.738983154296875,15.205398559570312,-30.749664306640625
1776445019359363300,24.12136328125,-21.43841552734375,14.731353759765625,-31.016830444335938
1776445019384380400,24.14638037109375,-21.683807373046875,14.44781494140625,-31.19525146484375
1776445019409397200,24.171397216796876,-21.0128173828125,13.994293212890625,-31.809783935546875
1776445019434414300,24.196414306640627,-20.59619140625,13.737701416015625,-32.52752685546875
1776445019459431400,24.221431396484373,-20.357086181640625,13.538253784179688,-32.67485046386719
1776445019484448500,24.246448486328124,-20.379669189453125,13.151290893554688,-32.29020690917969
1776445019509465300,24.27146533203125,-19.8236083984375,13.059402465820312,-32.38636779785156
1776445019534482400,24.296482421875,-19.950103759765625,12.830825805664062,-33.07585144042969
1776445019559499500,24.32149951171875,-19.410430908203125,12.071090698242188,-33.17774963378906
1776445019584516400,24.346516357421876,-20.09649658203125,10.80926513671875,-33.7557373046875
1776445019609533000,24.371532958984375,-21.255279541015625,9.363784790039062,-33.56019592285156
1776445019634549500,24.396549560546877,-22.42755126953125,7.0912322998046875,-33.45640563964844
1776445019659566600,24.421566650390623,-22.793182373046875,5.77490234375,-33.42985534667969
1776445019684583700,24.446583740234374,-24.14117431640625,4.071380615234375,-33.186859130859375
1776445019709600800,24.471600830078124,-24.964447021484375,3.4403533935546875,-32.64350891113281
1776445019734617600,24.49661767578125,-26.07574462890625,3.7159271240234375,-32.06483459472656
1776445019759634700,24.521634765625,-26.66009521484375,4.0266265869140625,-31.245498657226562
1776445019784651800,24.54665185546875,-27.1363525390625,4.5673675537109375,-31.0838623046875
1776445019809668900,24.5716689453125,-26.95465087890625,5.588165283203125,-30.718841552734375
1776445019834685700,24.596685791015624,-27.13433837890625,6.3897857666015625,-31.032562255859375
1776445019859702800,24.621702880859374,-27.031524658203125,6.5301666259765625,-30.403350830078125
1776445019884719900,24.646719970703124,-26.721649169921875,7.67498779296875,-30.342926025390625
1776445019909736700,24.67173681640625,-26.662078857421875,7.8472747802734375,-30.796478271484375
1776445019934753500,24.69675341796875,-25.87835693359375,7.316436767578125,-31.527694702148438
1776445019959770600,24.7217705078125,-25.80670166015625,6.6757965087890625,-31.838943481445312
1776445019984786700,24.74678662109375,-25.088287353515625,5.789337158203125,-32.58744812011719
1776445020009803800,24.7718037109375,-25.421356201171875,5.2876739501953125,-32.23341369628906
1776445020034820900,24.79682080078125,-25.358123779296875,4.5499725341796875,-33.07237243652344
1776445020059837700,24.821837646484376,-24.938232421875,3.717071533203125,-33.283294677734375
1776445020084854800,24.846854736328126,-25.190673828125,2.2733001708984375,-32.95405578613281
1776445020109871600,24.87187158203125,-26.1021728515625,2.069580078125,-32.438812255859375
1776445020134888700,24.896888671875,-26.89093017578125,0.7345123291015625,-31.961349487304688
1776445020159905800,24.92190576171875,-27.450286865234375,0.4901580810546875,-31.051101684570312
1776445020184922600,24.946922607421875,-27.321502685546875,-0.11260986328125,-31.597396850585938
1776445020209939700,24.971939697265626,-27.00396728515625,0.3244476318359375,-31.631256103515625
1776445020234956800,24.996956787109376,-27.3896484375,1.269927978515625,-31.381317138671875
1776445020259974000,25.021973876953126,-27.738983154296875,2.11431884765625,-31.427398681640625
1776445020284990700,25.04699072265625,-28.452667236328125,3.105224609375,-30.80364990234375
1776445020310007800,25.0720078125,-27.464569091796875,3.4381866455078125,-31.125579833984375
1776445020335025000,25.09702490234375,-25.64361572265625,4.3459930419921875,-32.183624267578125
1776445020360041700,25.122041748046875,-25.089385986328125,4.998260498046875,-32.402435302734375
1776445020385058600,25.14705859375,-25.522796630859375,4.958099365234375,-32.35382080078125
1776445020410075600,25.17207568359375,-25.95501708984375,4.8294219970703125,-31.763565063476562
1776445020435092700,25.1970927734375,-26.085693359375,4.1246185302734375,-31.670303344726562
1776445020460109800,25.22210986328125,-26.35797119140625,3.5618896484375,-31.847412109375
1776445020485126700,25.247126708984375,-25.55023193359375,3.098785400390625,-32.41229248046875
1776445020510143700,25.272143798828125,-25.498626708984375,2.3025970458984375,-32.812713623046875
1776445020535160800,25.297160888671876,-24.61456298828125,1.359283447265625,-33.255096435546875
1776445020560178000,25.322177978515626,-24.971435546875,0.6685791015625,-33.36155700683594
1776445020585194800,25.34719482421875,-24.6312255859375,-0.3105926513671875,-33.80781555175781
1776445020610212000,25.372212158203126,-24.099029541015625,-0.810089111328125,-33.82511901855469
1776445020635229200,25.397229248046877,-23.577423095703125,-1.447540283203125,-34.874359130859375
1776445020660246000,25.42224609375,-23.24822998046875,-1.7334747314453125,-34.98048400878906
1776445020685263000,25.44726318359375,-22.13018798828125,-2.30902099609375,-35.507049560546875
1776445020710280200,25.4722802734375,-21.9710693359375,-3.304290771484375,-35.754241943359375
1776445020735297300,25.49729736328125,-21.173095703125,-4.422515869140625,-36.253021240234375
1776445020760314000,25.522314208984376,-20.151092529296875,-5.1030426025390625,-36.662506103515625
1776445020785331200,25.547331298828126,-18.008697509765625,-5.3468170166015625,-37.687896728515625
1776445020810348000,25.57234814453125,-16.469818115234375,-5.8272552490234375,-38.13714599609375
1776445020835365000,25.597365234375,-15.3873291015625,-6.3849945068359375,-38.552764892578125
1776445020860381200,25.622381103515625,-15.076446533203125,-6.8646240234375,-38.43113708496094
1776445020885398300,25.647398193359376,-14.745819091796875,-7.033233642578125,-38.580474853515625
1776445020910415000,25.6724150390625,-14.016937255859375,-6.9658660888671875,-39.1583251953125
1776445020935432200,25.69743212890625,-13.233795166015625,-7.433624267578125,-39.30091857910156
1776445020960449300,25.72244921875,-13.038238525390625,-7.9603729248046875,-39.47499084472656
1776445020985466400,25.74746630859375,-11.90966796875,-8.370193481445312,-39.359954833984375
1776445021010483200,25.772483154296875,-10.91558837890625,-8.991287231445312,-39.42112731933594
1776445021035500000,25.7975,-9.90728759765625,-9.32421875,-39.32365417480469
1776445021060517000,25.82251708984375,-9.5201416015625,-9.652755737304688,-39.52764892578125
1776445021085534200,25.8475341796875,-7.944915771484375,-9.475906372070312,-39.778106689453125
1776445021110551000,25.872551025390624,-6.8883056640625,-9.380340576171875,-39.88258361816406
1776445021135568100,25.897568115234375,-5.698822021484375,-9.851898193359375,-40.04170227050781
1776445021160585200,25.922585205078125,-4.68939208984375,-10.019302368164062,-40.02012634277344
1776445021185602300,25.947602294921875,-2.82159423828125,-10.624649047851562,-40.070220947265625
1776445021210619100,25.972619140625,-2.457550048828125,-10.93035888671875,-40.05778503417969
1776445021235636200,25.99763623046875,-2.904266357421875,-10.854827880859375,-39.85990905761719
1776445021260653300,26.0226533203125,-2.7689208984375,-10.884490966796875,-39.531097412109375
1776445021285670100,26.047670166015624,-1.956634521484375,-10.95556640625,-39.82624816894531
1776445021310687000,26.07268701171875,-2.078582763671875,-10.368560791015625,-39.927154541015625
1776445021335704000,26.0977041015625,-2.35052490234375,-9.781082153320312,-40.20805358886719
1776445021360721200,26.12272119140625,-2.63751220703125,-9.105728149414062,-40.14064025878906
1776445021385738200,26.14773828125,-2.683929443359375,-8.803024291992188,-40.355804443359375
1776445021410755000,26.172755126953124,-1.93109130859375,-8.349319458007812,-40.45887756347656
1776445021435772200,26.197772216796874,-1.530487060546875,-8.012542724609375,-40.65081787109375
1776445021460789200,26.222789306640625,-0.9371337890625,-7.800567626953125,-40.41923522949219
1776445021485806300,26.247806396484375,-0.054779052734375,-7.144439697265625,-40.59846496582031
1776445021510823200,26.2728232421875,0.579345703125,-6.9596405029296875,-40.690216064453125
1776445021535840000,26.297840087890624,1.226409912109375,-6.8839874267578125,-40.695556640625
1776445021560857000,26.322857177734374,0.9327392578125,-6.7748260498046875,-40.62965393066406
1776445021585874200,26.347874267578124,0.17144775390625,-7.0496063232421875,-40.79266357421875
1776445021610890800,26.372890869140626,-1.416534423828125,-8.24169921875,-40.66656494140625
1776445021635906800,26.39790673828125,-1.630889892578125,-8.247543334960938,-40.47300720214844
1776445021660923600,26.422923583984375,-2.328460693359375,-8.31817626953125,-40.51214599609375
1776445021685940700,26.447940673828125,-2.486907958984375,-8.346755981445312,-40.75541687011719
1776445021710957800,26.472957763671875,-2.14471435546875,-8.004928588867188,-40.612762451171875
1776445021735975000,26.497974853515625,-2.622711181640625,-8.1732177734375,-40.88970947265625
1776445021760991700,26.52299169921875,-1.92803955078125,-7.810455322265625,-40.839691162109375
1776445021786008800,26.5480087890625,-1.623809814453125,-7.084930419921875,-40.61192321777344
1776445021811025700,26.573025634765624,-0.80035400390625,-6.0030364990234375,-41.01237487792969
1776445021836042800,26.598042724609375,-0.558563232421875,-5.398590087890625,-41.3863525390625
1776445021861059600,26.6230595703125,-1.5574951171875,-5.1149139404296875,-41.269195556640625
1776445021886076700,26.64807666015625,-2.81842041015625,-4.7893829345703125,-41.21183776855469
1776445021911093800,26.67309375,-4.2203369140625,-4.4777984619140625,-40.857208251953125
1776445021936110800,26.69811083984375,-4.81671142578125,-3.9217987060546875,-40.80165100097656
1776445021961127700,26.723127685546874,-3.57501220703125,-2.4637603759765625,-40.92669677734375
1776445021986144800,26.748144775390625,-2.571807861328125,-1.8916778564453125,-41.14631652832031
1776445022011161900,26.773161865234375,-0.9332275390625,-1.327972412109375,-41.16932678222656
1776445022036179000,26.798178955078125,0.35943603515625,-1.8055877685546875,-41.25325012207031
1776445022061195800,26.82319580078125,1.029449462890625,-2.586639404296875,-41.45698547363281
1776445022086212600,26.848212646484374,1.653900146484375,-2.902496337890625,-41.40760803222656
1776445022111229700,26.873229736328124,2.364532470703125,-2.6970367431640625,-41.243072509765625
1776445022136246800,26.898246826171874,3.413848876953125,-2.352874755859375,-41.01649475097656
1776445022161263600,26.923263671875,6.339630126953125,-0.489898681640625,-40.51005554199219
1776445022186280700,26.94828076171875,9.040618896484375,1.3642730712890625,-39.9906005859375
1776445022211297800,26.9732978515625,11.50177001953125,4.429901123046875,-38.700836181640625
1776445022236315000,26.99831494140625,11.63714599609375,5.527862548828125,-38.3939208984375
1776445022261331700,27.023331787109374,11.6678466796875,6.87469482421875,-38.27244567871094
1776445022286347500,27.048347412109376,11.423797607421875,7.7678680419921875,-38.2869873046875
1776445022311364600,27.073364501953126,11.756622314453125,9.8592529296875,-38.066619873046875
1776445022336381700,27.098381591796876,11.996368408203125,11.358474731445312,-37.6717529296875
1776445022361398800,27.123398681640627,12.626617431640625,13.322525024414062,-36.831939697265625
1776445022386415600,27.14841552734375,13.5377197265625,14.494491577148438,-35.82940673828125
1776445022411432700,27.1734326171875,13.80059814453125,15.313201904296875,-35.44132995605469
1776445022436449800,27.19844970703125,13.764495849609375,15.173370361328125,-35.73966979980469
1776445022461467000,27.223466796875,12.933135986328125,14.372756958007812,-35.66900634765625
1776445022486483700,27.248483642578126,12.439056396484375,13.968231201171875,-36.01033020019531
1776445022511500800,27.273500732421876,11.1861572265625,13.581451416015625,-36.687469482421875
1776445022536517600,27.298517578125,9.856414794921875,13.10662841796875,-37.415802001953125
1776445022561534700,27.32353466796875,7.566864013671875,13.226760864257812,-37.74772644042969
1776445022586551600,27.348551513671875,7.1962890625,14.004425048828125,-37.625457763671875
1776445022611569200,27.373569091796874,7.17572021484375,14.861114501953125,-37.144195556640625
1776445022636586200,27.398586181640624,6.63018798828125,15.418548583984375,-36.989227294921875
1776445022661603300,27.423603271484374,4.764373779296875,15.494842529296875,-37.07554626464844
1776445022686620000,27.448619873046876,3.461090087890625,15.416473388671875,-37.52052307128906
1776445022711637000,27.473636962890627,2.528045654296875,15.337478637695312,-37.33903503417969
1776445022736654000,27.498654052734373,2.4713134765625,15.792312622070312,-37.249969482421875
1776445022761671200,27.523671142578124,3.106201171875,16.503616333007812,-36.79194641113281
1776445022786688000,27.54868798828125,3.243438720703125,16.898727416992188,-36.775054931640625
1776445022811705000,27.573705078125,3.14886474609375,16.995590209960938,-36.5594482421875
1776445022836722200,27.59872216796875,3.25286865234375,17.020889282226562,-36.64558410644531
1776445022861739300,27.6237392578125,1.288787841796875,17.113510131835938,-36.7105712890625
1776445022886756000,27.648756103515623,-0.66436767578125,16.743896484375,-36.89341735839844
1776445022911772000,27.67377197265625,-3.81231689453125,16.055252075195312,-37.11143493652344
1776445022936789000,27.6987890625,-4.856170654296875,15.90765380859375,-37.224639892578125
1776445022961806000,27.72380615234375,-5.031402587890625,16.467071533203125,-37.05726623535156
1776445022986823200,27.7488232421875,-4.0223388671875,17.348541259765625,-36.50653076171875
1776445023011840000,27.773840087890626,-1.98846435546875,18.894638061523438,-36.07347106933594
1776445023036857000,27.798857177734376,-1.8515625,20.103195190429688,-35.380950927734375
1776445023061874200,27.823874267578127,-2.937255859375,21.3221435546875,-34.72711181640625
1776445023086891300,27.848891357421873,-3.634613037109375,21.571640014648438,-34.4271240234375
1776445023111908000,27.873908203125,-5.935150146484375,22.132858276367188,-33.924652099609375
1776445023136925200,27.89892529296875,-6.4254150390625,22.4781494140625,-33.53453063964844
1776445023161942000,27.92394189453125,-6.722900390625,22.55377197265625,-33.31451416015625
1776445023186959000,27.948958984375,-6.84857177734375,23.181869506835938,-32.833038330078125
1776445023211976000,27.973975830078125,-7.24420166015625,23.5618896484375,-32.908111572265625
1776445023236993000,27.998992919921875,-8.261688232421875,23.961639404296875,-32.17988586425781
1776445023262010000,28.024010009765625,-8.852569580078125,24.204010009765625,-31.295166015625
1776445023287027200,28.049027099609376,-9.09112548828125,24.4156494140625,-31.720016479492188
1776445023312044000,28.0740439453125,-9.99151611328125,24.033218383789062,-31.670562744140625
1776445023337061000,28.09906103515625,-11.236175537109375,23.418975830078125,-31.757888793945312
1776445023362078200,28.124078125,-11.880767822265625,23.311782836914062,-31.77294921875
1776445023387095300,28.14909521484375,-12.342803955078125,23.204864501953125,-31.957015991210938
1776445023412112000,28.17411181640625,-13.39508056640625,22.974990844726562,-31.7393798828125
1776445023437129000,28.19912890625,-14.119171142578125,23.001480102539062,-31.17303466796875
1776445023462146000,28.22414599609375,-14.260040283203125,23.372665405273438,-30.897109985351562
1776445023487163100,28.2491630859375,-16.0167236328125,23.34210205078125,-30.143386840820312
1776445023512179200,28.27417919921875,-17.767913818359375,23.328506469726562,-29.380615234375
1776445023537196000,28.299196044921874,-18.900238037109375,23.468917846679688,-28.626602172851562
1776445023562213000,28.324213134765625,-19.95526123046875,23.251876831054688,-28.06591796875
1776445023587230200,28.349230224609375,-22.029144287109375,22.819488525390625,-27.313552856445312
1776445023612246800,28.374246826171873,-22.242767333984375,22.596221923828125,-26.962265014648438
1776445023637263600,28.399263671875,-22.961761474609375,22.504501342773438,-27.099990844726562
1776445023662280400,28.424280517578126,-22.7205810546875,22.24462890625,-26.935211181640625
1776445023687297500,28.449297607421876,-24.23681640625,22.055435180664062,-26.287582397460938
1776445023712314600,28.474314697265626,-24.20330810546875,22.113006591796875,-26.115615844726562
1776445023737331700,28.499331787109377,-23.9427490234375,22.543975830078125,-25.870712280273438
1776445023762348500,28.5243486328125,-24.346710205078125,22.749984741210938,-25.472137451171875
1776445023787365600,28.54936572265625,-25.82159423828125,22.285751342773438,-24.711334228515625
1776445023812382700,28.5743828125,-26.6629638671875,21.898818969726562,-24.0982666015625
1776445023837399800,28.59939990234375,-28.794158935546875,21.216629028320312,-23.387069702148438
1776445023862416600,28.624416748046876,-29.128326416015625,20.916732788085938,-22.468490600585938
1776445023887433700,28.649433837890626,-30.441070556640625,20.127304077148438,-21.290557861328125
1776445023912450600,28.674450439453125,-31.6763916015625,19.670257568359375,-19.9080810546875
1776445023937467600,28.699467529296875,-33.77471923828125,18.54425048828125,-18.908721923828125
1776445023962484500,28.724484375,-34.60711669921875,17.590225219726562,-18.195770263671875
1776445023987500500,28.74950048828125,-36.21728515625,15.719467163085938,-16.874786376953125
1776445024012517600,28.774517578125,-37.334930419921875,14.46051025390625,-15.969436645507812
1776445024037534700,28.79953466796875,-38.533294677734375,13.016998291015625,-15.734237670898438
1776445024062551800,28.8245517578125,-38.38116455078125,12.79400634765625,-16.051300048828125
1776445024087568600,28.849568603515625,-37.388946533203125,13.034927368164062,-17.319808959960938
1776445024112585500,28.87458544921875,-36.8046875,13.609786987304688,-18.011428833007812
1776445024137602600,28.8996025390625,-36.295654296875,14.4183349609375,-18.50872802734375
1776445024162619600,28.92461962890625,-36.650909423828125,14.568466186523438,-18.436874389648438
1776445024187636700,28.94963671875,-36.8250732421875,13.962234497070312,-18.176925659179688
1776445024212653600,28.974653564453124,-36.98651123046875,12.762710571289062,-18.491897583007812
1776445024237670700,28.999670654296875,-37.474822998046875,11.970733642578125,-18.598983764648438
1776445024262687700,29.024687744140625,-37.399017333984375,11.4521484375,-18.88916015625
1776445024287704800,29.049704833984375,-37.814544677734375,10.724822998046875,-19.230728149414062
1776445024312721700,29.0747216796875,-37.781524658203125,10.2928466796875,-19.06170654296875
1776445024337738800,29.09973876953125,-37.981048583984375,9.961166381835938,-19.6541748046875
1776445024362755600,29.124755615234374,-38.01629638671875,9.77044677734375,-19.872848510742188
1776445024387772700,29.149772705078124,-37.506195068359375,9.899810791015625,-20.450851440429688
1776445024412789500,29.17478955078125,-36.985321044921875,9.905868530273438,-20.6907958984375
1776445024437806600,29.199806640625,-37.170654296875,10.381179809570312,-20.802520751953125
1776445024462823700,29.22482373046875,-37.7977294921875,9.628280639648438,-20.006561279296875
1776445024487839700,29.24983984375,-39.70672607421875,8.578018188476562,-17.326644897460938
1776445024512856800,29.27485693359375,-40.6939697265625,7.9434356689453125,-15.657516479492188
1776445024537873700,29.299873779296874,-41.60552978515625,7.0267181396484375,-13.796112060546875
1776445024562890800,29.324890869140624,-41.59832763671875,6.5345916748046875,-13.591537475585938
1776445024587907600,29.349907470703126,-41.957183837890625,6.2440185546875,-13.934371948242188
1776445024612928500,29.374928466796874,-41.685821533203125,5.41107177734375,-14.381011962890625
1776445024637945000,29.399945068359376,-41.642974853515625,4.9916839599609375,-15.32373046875
1776445024662962200,29.424962158203126,-41.258941650390625,4.5767974853515625,-15.990280151367188
1776445024687979300,29.449979248046876,-41.153656005859375,3.6256866455078125,-17.091629028320312
1776445024712996400,29.474996337890627,-40.822479248046875,2.483062744140625,-16.97222900390625
1776445024738013200,29.50001318359375,-40.99951171875,1.2981414794921875,-17.304962158203125
1776445024763030300,29.5250302734375,-41.161590576171875,0.7637176513671875,-17.597976684570312
1776445024788047400,29.55004736328125,-41.05517578125,-0.042633056640625,-17.790435791015625
1776445024813064400,29.575064453125,-41.013824462890625,-0.8695526123046875,-18.404586791992188
1776445024838081300,29.600081298828126,-41.0836181640625,-1.446044921875,-18.081008911132812
1776445024863098400,29.625098388671876,-41.607025146484375,-2.13909912109375,-18.244277954101562
1776445024888115200,29.650115234375,-41.329071044921875,-3.0348663330078125,-17.862274169921875
1776445024913132300,29.67513232421875,-41.862274169921875,-3.4175262451171875,-17.540115356445312
1776445024938149000,29.700149169921875,-41.630584716796875,-4.9546356201171875,-17.581405639648438
1776445024963166200,29.725166259765626,-41.057159423828125,-6.2844390869140625,-17.624801635742188
1776445024988182300,29.750182373046876,-41.211700439453125,-8.82366943359375,-17.550811767578125
1776445025013199400,29.775199462890626,-40.529876708984375,-10.474868774414062,-17.421524047851562
1776445025038216400,29.800216552734376,-40.216644287109375,-13.050399780273438,-17.148971557617188
1776445025063233300,29.8252333984375,-40.16986083984375,-14.809127807617188,-16.722793579101562
1776445025088250000,29.85025,-39.762847900390625,-17.890472412109375,-16.195114135742188
1776445025113267200,29.87526708984375,-38.6431884765625,-20.000930786132812,-16.290695190429688
1776445025138284300,29.9002841796875,-36.976165771484375,-22.5699462890625,-15.970474243164062
1776445025163301000,29.925301025390624,-35.858428955078125,-24.28057861328125,-15.9976806640625
1776445025188318200,29.950318115234374,-34.08392333984375,-27.059768676757812,-16.398193359375
1776445025213335300,29.975335205078125,-32.754608154296875,-28.3006591796875,-16.575531005859375
1776445025238352400,30.000352294921875,-30.291015625,-30.427581787109375,-16.54852294921875
1776445025263369200,30.025369140625,-28.91156005859375,-32.10417175292969,-16.708541870117188
1776445025288386300,30.05038623046875,-25.892181396484375,-33.432037353515625,-17.815216064453125
1776445025313403400,30.0754033203125,-23.917877197265625,-34.645660400390625,-18.61883544921875
1776445025338420500,30.10042041015625,-20.611053466796875,-36.02650451660156,-19.081253051757812
1776445025363437000,30.12543701171875,-18.228363037109375,-36.645965576171875,-20.005279541015625
1776445025388454100,30.1504541015625,-14.45880126953125,-37.32672119140625,-21.437942504882812
1776445025413471200,30.17547119140625,-11.693939208984375,-37.24302673339844,-22.561965942382812
1776445025438488300,30.20048828125,-6.78662109375,-36.80412292480469,-23.859176635742188
1776445025463504400,30.22550439453125,-4.063629150390625,-36.24934387207031,-25.51275634765625
1776445025488521200,30.250521240234374,-1.50885009765625,-35.39897155761719,-26.552810668945312
1776445025513538300,30.275538330078124,1.525421142578125,-33.37736511230469,-28.13726806640625
1776445025538555400,30.300555419921874,3.09033203125,-32.41914367675781,-29.104202270507812
1776445025563572200,30.325572265625,5.25592041015625,-30.887100219726562,-30.305252075195312
1776445025588589300,30.35058935546875,6.1038818359375,-29.6790771484375,-31.080322265625
1776445025613602300,30.375602294921876,8.01239013671875,-27.802459716796875,-32.2802734375
1776445025638619400,30.400619384765626,8.737213134765625,-26.9146728515625,-33.17411804199219
1776445025663636500,30.425636474609377,10.018951416015625,-25.22021484375,-33.777435302734375
1776445025688653600,30.450653564453123,11.352630615234375,-24.04315185546875,-33.97369384765625
1776445025713670100,30.475670166015625,12.69781494140625,-22.7060546875,-34.51069641113281
1776445025738687200,30.500687255859376,13.612701416015625,-21.556381225585938,-34.83436584472656
1776445025763704300,30.525704345703126,14.759765625,-19.073715209960938,-35.31050109863281
1776445025788721400,30.550721435546876,16.125946044921875,-17.440170288085938,-35.608245849609375
1776445025813738200,30.57573828125,17.1689453125,-15.126937866210938,-35.56999206542969
1776445025838755300,30.60075537109375,17.98211669921875,-14.01751708984375,-35.813629150390625
1776445025863772400,30.6257724609375,19.037078857421875,-12.02490234375,-36.09576416015625
1776445025888789500,30.65078955078125,19.800933837890625,-10.699462890625,-36.42652893066406
1776445025913805300,30.675805419921875,20.139251708984375,-9.230316162109375,-36.12376403808594
1776445025938822100,30.700822265625,20.899810791015625,-8.370758056640625,-36.325408935546875
1776445025963839200,30.725839111328124,21.64910888671875,-7.1755828857421875,-36.41697692871094
1776445025988856300,30.750856201171874,21.681121826171875,-6.24713134765625,-36.69580078125
1776445026013873400,30.775873291015625,22.200897216796875,-4.3786468505859375,-36.288665771484375
1776445026038890200,30.80089013671875,22.977569580078125,-3.6590728759765625,-35.78147888183594
1776445026063907300,30.8259072265625,23.81475830078125,-3.1554412841796875,-34.891204833984375
1776445026088924400,30.85092431640625,24.276275634765625,-2.7666168212890625,-34.593505859375
1776445026113941500,30.87594140625,25.120849609375,-1.7694091796875,-33.96806335449219
1776445026138958300,30.900958251953124,25.723968505859375,-0.9927825927734375,-33.56446838378906
1776445026163975400,30.925975341796875,26.73358154296875,-0.702728271484375,-33.07469177246094
1776445026188992300,30.9509921875,27.231231689453125,-0.5174407958984375,-32.68614196777344
1776445026214009300,30.97600927734375,27.74005126953125,-1.082305908203125,-32.083953857421875
1776445026239026400,31.0010263671875,28.615325927734375,-0.5513916015625,-31.454299926757812
1776445026264043300,31.026043212890624,29.071502685546875,-0.576019287109375,-30.8458251953125
1776445026289060400,31.051060302734374,29.606689453125,-0.77398681640625,-30.723526000976562
1776445026314077400,31.076077392578124,29.881072998046875,-1.03082275390625,-30.433120727539062
1776445026339094500,31.101094482421875,29.564544677734375,-1.27520751953125,-30.6746826171875
1776445026364111400,31.126111328125,29.180419921875,-0.623443603515625,-31.450851440429688
1776445026389127200,31.151127197265627,28.054901123046875,0.34686279296875,-32.06134033203125
1776445026414144300,31.176144287109373,26.064788818359375,3.0306549072265625,-33.06977844238281
1776445026439161300,31.201161376953124,25.63128662109375,4.3333282470703125,-33.43577575683594
1776445026464178400,31.226178466796874,25.031005859375,6.388946533203125,-33.90266418457031
1776445026489195300,31.2511953125,24.899627685546875,7.200347900390625,-33.61585998535156
1776445026514212400,31.27621240234375,24.868988037109375,8.308578491210938,-33.31309509277344
1776445026539229400,31.3012294921875,24.51043701171875,8.544967651367188,-33.31776428222656
1776445026564246500,31.32624658203125,25.047698974609375,8.650924682617188,-33.19453430175781
1776445026589263400,31.351263427734374,24.59552001953125,8.461669921875,-33.3214111328125
1776445026614280700,31.37628076171875,24.402374267578125,9.837631225585938,-33.30523681640625
1776445026639297800,31.4012978515625,24.085601806640625,10.9383544921875,-33.488250732421875
1776445026664314600,31.426314697265624,22.750152587890625,13.579208374023438,-32.90130615234375
1776445026689331700,31.451331787109375,21.9971923828125,15.225189208984375,-32.69850158691406
1776445026714348800,31.476348876953125,19.599578857421875,17.739761352539062,-32.902099609375
1776445026739366000,31.501365966796875,18.15875244140625,19.381195068359375,-32.79931640625
1776445026764382700,31.5263828125,15.676025390625,21.524261474609375,-32.879150390625
1776445026789399600,31.551399658203124,13.053070068359375,22.012542724609375,-33.32481384277344
1776445026814415600,31.57641552734375,8.887847900390625,21.977630615234375,-34.40834045410156
1776445026839432700,31.6014326171875,6.9761962890625,22.088516235351562,-34.96394348144531
1776445026864449800,31.62644970703125,4.555938720703125,22.02960205078125,-35.24102783203125
1776445026889467000,31.651466796875,4.20599365234375,22.256607055664062,-35.34556579589844
1776445026914483700,31.676483642578123,3.95306396484375,22.64947509765625,-35.3070068359375
1776445026939500800,31.701500732421874,3.641357421875,22.91845703125,-34.58807373046875
1776445026964518000,31.726517822265624,2.306976318359375,23.326080322265625,-34.7916259765625
1776445026989534700,31.75153466796875,1.41448974609375,23.684539794921875,-34.485443115234375
1776445027014551600,31.776551513671876,0.571563720703125,23.474502563476562,-34.75115966796875
1776445027039568600,31.801568603515626,0.4114990234375,23.29046630859375,-34.626312255859375
1776445027064585700,31.826585693359377,-1.31884765625,23.232574462890625,-34.78509521484375
1776445027089602800,31.851602783203123,-2.109954833984375,22.926376342773438,-34.94377136230469
1776445027114619600,31.87661962890625,-2.576995849609375,22.756271362304688,-35.10795593261719
1776445027139636700,31.90163671875,-2.33221435546875,23.206710815429688,-34.831756591796875
1776445027164653800,31.92665380859375,-2.34014892578125,24.13836669921875,-34.27178955078125
1776445027189671000,31.9516708984375,-1.425933837890625,24.847366333007812,-33.47468566894531
