time,seconds_elapsed,z,y,x
1776444995368042800,0.130042724609375,1.3949254751205444,0.37153661251068115,-0.2848127782344818
1776444995393059600,0.1550595703125,1.5930382013320923,0.4148193299770355,-0.28726890683174133
1776444995418076400,0.180076416015625,1.9575001001358032,0.596909761428833,-0.23826362192630768
1776444995443093500,0.205093505859375,2.486396312713623,0.802778422832489,-0.2746521234512329
1776444995468110600,0.230110595703125,2.919584035873413,0.8095576763153076,-0.3624889850616455
1776444995493127700,0.255127685546875,3.2836673259735107,0.8438577651977539,-0.44519877433776855
1776444995518144500,0.28014453125,3.45776104927063,0.7583742141723633,-0.4109417498111725
1776444995543161600,0.30516162109375,3.295269250869751,0.7502874135971069,-0.2682896554470062
1776444995568179000,0.330178955078125,2.7259979248046875,0.8968638777732849,-0.1642061322927475
1776444995593194800,0.35519482421875,2.085890769958496,1.0213311910629272,-0.11113997548818588
1776444995618211800,0.3802119140625,1.820496678352356,0.8097925186157227,-0.14956754446029663
1776444995643228700,0.405228759765625,1.6275255680084229,0.052674759179353714,-0.17343111336231232
1776444995668245800,0.430245849609375,1.1306720972061157,-0.08544013649225235,-0.11311422288417816
1776444995693262800,0.455262939453125,0.7140188813209534,-0.6653422117233276,-0.31237053871154785
1776444995718280000,0.480280029296875,0.29424789547920227,-0.5305224657058716,-0.24319477379322052
1776444995743296800,0.505296875,0.12806227803230286,-0.227484792470932,-0.1104009747505188
1776444995768313900,0.53031396484375,0.5891121029853821,-0.3058100938796997,0.001974742393940687
1776444995793330700,0.55533056640625,1.2490960359573364,-0.7341222167015076,-0.01753200963139534
1776444995818347800,0.58034765625,1.8872301578521729,-0.5809410214424133,0.07024320960044861
1776444995843364600,0.605364501953125,2.1203207969665527,-0.4368489384651184,0.014797274023294449
1776444995868381700,0.630381591796875,2.3285703659057617,-0.6046981811523438,-0.2270456701517105
1776444995893398800,0.655398681640625,2.345364809036255,-0.6458443999290466,-0.46858811378479004
1776444995918416000,0.680415771484375,1.866784691810608,-0.287043035030365,-0.38086748123168945
1776444995943432700,0.7054326171875,1.3051341772079468,0.08703873306512833,-0.2862755060195923
1776444995968449800,0.73044970703125,1.3159350156784058,0.08091314136981964,-0.2212291657924652
1776444995993467000,0.755466796875,1.645918369293213,-0.175557479262352,-0.12728048861026764
1776444996018484000,0.78048388671875,1.7153599262237549,-0.05993346869945526,0.0032192026264965534
1776444996043500500,0.80550048828125,1.499467134475708,0.19185186922550201,0.17138813436031342
1776444996068517600,0.830517578125,1.1447793245315552,0.27253851294517517,0.1540544331073761
1776444996093534700,0.85553466796875,1.1337732076644897,0.21819482743740082,0.014912033453583717
1776444996118551800,0.8805517578125,1.217900037765503,0.1872166097164154,-0.13873927295207977
1776444996143568600,0.905568603515625,1.0422950983047485,0.1614477038383484,-0.34740111231803894
1776444996168585700,0.930585693359375,0.7424241900444031,-0.26924803853034973,-0.3837250769138336
1776444996193602800,0.955602783203125,0.5535475611686707,-0.43386921286582947,-0.19890689849853516
1776444996218620000,0.980619873046875,0.7603157162666321,-0.4988898038864136,0.06285957992076874
1776444996243636700,1.00563671875,1.2200791835784912,-0.36148127913475037,0.19395984709262848
1776444996268653800,1.03065380859375,1.4927220344543457,0.1381646990776062,0.3463442921638489
1776444996293671000,1.0556708984375,2.0664126873016357,0.602546751499176,0.4976838529109955
1776444996318687700,1.080687744140625,2.3579132556915283,0.40322157740592957,0.4068489968776703
1776444996343704600,1.10570458984375,2.2716994285583496,0.6312030553817749,0.38222360610961914
1776444996368721700,1.1307216796875,2.5744636058807373,0.5618618130683899,0.485331267118454
1776444996393738800,1.15573876953125,2.49301815032959,0.5357838273048401,0.33240124583244324
1776444996418755800,1.180755859375,2.4246931076049805,0.2984049916267395,0.10012143105268478
1776444996443772700,1.205772705078125,2.467949390411377,0.25838014483451843,0.17266154289245605
1776444996468789800,1.230789794921875,2.222909688949585,0.2589304745197296,0.0941363275051117
1776444996493806800,1.255806884765625,2.004570960998535,0.15300066769123077,-0.003980015870183706
1776444996518824000,1.280823974609375,1.9662737846374512,-0.024029746651649475,-0.05183367431163788
1776444996543840800,1.3058408203125,1.8193641901016235,0.1466297060251236,-0.17278480529785156
1776444996568857900,1.33085791015625,1.741288661956787,0.27289360761642456,-0.19165371358394623
1776444996593875000,1.355875,1.6522225141525269,0.24647751450538635,-0.3412797152996063
1776444996618892000,1.38089208984375,1.5590088367462158,0.37725284695625305,-0.36717161536216736
1776444996643908900,1.405908935546875,1.5981848239898682,0.3343731760978699,-0.3691260516643524
1776444996668925700,1.43092578125,1.3646312952041626,0.5285302996635437,-0.4707908630371094
1776444996693942800,1.45594287109375,1.3635057210922241,0.09500277787446976,-0.38518571853637695
1776444996718959900,1.4809599609375,1.3904863595962524,-0.05630507320165634,-0.32929936051368713
1776444996743976700,1.505976806640625,1.1666597127914429,0.42227795720100403,-0.5794417858123779
1776444996768993800,1.530993896484375,1.0800588130950928,0.43401899933815,-0.7482038140296936
1776444996794011000,1.556010986328125,0.9636815786361694,0.32098647952079773,-0.5648429989814758
1776444996819028000,1.581028076171875,0.9341838955879211,0.253427118062973,-0.18357230722904205
1776444996844044800,1.606044921875,0.973074197769165,0.07532613724470139,-0.14415507018566132
1776444996869062000,1.631061767578125,0.8756834864616394,-0.07645498216152191,-0.33589866757392883
1776444996894079000,1.656078857421875,0.7549285292625427,-0.21396353840827942,-0.22602547705173492
1776444996919095800,1.681095703125,0.6779773831367493,-0.2695717215538025,0.20881208777427673
1776444996944113000,1.70611279296875,0.720503032207489,-0.03315908834338188,0.3557147681713104
1776444996969129700,1.731129638671875,0.9287182688713074,0.3801659941673279,0.22662612795829773
1776444996994146800,1.756146728515625,1.187150001525879,0.361863374710083,0.2910924553871155
1776444997019164000,1.781163818359375,1.0250070095062256,-0.10684709995985031,0.16098016500473022
1776444997044181000,1.806180908203125,0.6925584077835083,-0.10498036444187164,-0.2221563458442688
1776444997069197800,1.83119775390625,0.7862710356712341,0.011702417396008968,-0.4054167866706848
1776444997094215000,1.85621484375,1.1430251598358154,-0.18036575615406036,-0.5547893047332764
1776444997119232000,1.88123193359375,1.1199698448181152,-1.1844741106033325,-0.8028801679611206
1776444997144249000,1.9062490234375,0.5569705963134766,-1.51199471950531,-0.8958834409713745
1776444997169265700,1.931265625,0.4099932610988617,-0.36829063296318054,-0.44533565640449524
1776444997194282800,1.95628271484375,0.514082133769989,0.2293597161769867,-0.08840535581111908
1776444997219299800,1.9812998046875,0.5422722101211548,0.041617538779973984,-0.02482726238667965
1776444997244317000,2.00631689453125,0.5300024151802063,-0.018267186358571053,0.11507191509008408
1776444997269333800,2.031333740234375,0.5512356758117676,0.09286347031593323,0.27597376704216003
1776444997294350800,2.056350830078125,0.5281338095664978,0.04596449062228203,0.2995883822441101
1776444997319368000,2.081367919921875,0.5372285842895508,-0.1909874677658081,-0.03627447783946991
1776444997344385000,2.106385009765625,0.9163171648979187,-0.4817942678928375,-0.274665892124176
1776444997369401900,2.13140185546875,1.3561996221542358,-0.2603982388973236,-0.08517110347747803
1776444997394419000,2.1564189453125,2.1202492713928223,-0.07168665528297424,0.12017623335123062
1776444997419436000,2.18143603515625,2.578857421875,-0.15342438220977783,0.2461189329624176
1776444997444452900,2.206452880859375,2.5841968059539795,-0.15777549147605896,0.24795731902122498
1776444997469469700,2.2314697265625,2.059572696685791,-0.20907217264175415,0.2032080739736557
1776444997494486800,2.25648681640625,1.235796570777893,0.2947843074798584,0.2052028924226761
1776444997519504000,2.28150390625,0.7881008386611938,-0.0757245421409607,0.05478660762310028
1776444997544521000,2.30652099609375,0.7699853777885437,-0.5048797130584717,0.17320996522903442
1776444997569538000,2.3315380859375,1.014358401298523,-0.3304896950721741,0.227808877825737
1776444997594555100,2.35655517578125,1.423791527748108,-0.22034113109111786,0.11601489782333374
1776444997619572000,2.381572021484375,1.7619452476501465,-0.3702363967895508,-0.052002646028995514
1776444997644589000,2.406589111328125,2.1236746311187744,-0.40663787722587585,-0.12548498809337616
1776444997669606000,2.43160595703125,2.4237067699432373,-0.3841785490512848,-0.10549839586019516
1776444997694623000,2.456623046875,2.588491201400757,-0.21930313110351562,0.18993094563484192
1776444997719640000,2.48164013671875,2.5589587688446045,0.14088207483291626,0.34944209456443787
1776444997744657200,2.5066572265625,2.496255874633789,0.4502202272415161,-0.10904581844806671
1776444997769674000,2.531674072265625,2.430814743041992,0.4668244421482086,-0.4158366322517395
1776444997794691000,2.556691162109375,1.616612434387207,0.09129177033901215,-0.5550532937049866
1776444997819708200,2.581708251953125,1.9134256839752197,0.4226398169994354,-0.3489435613155365
1776444997844725200,2.606725341796875,2.0143086910247803,0.2636241018772125,-0.2644907832145691
1776444997869741800,2.631741943359375,1.6617990732192993,0.37373295426368713,-0.10264700651168823
1776444997894759000,2.656759033203125,1.0430070161819458,0.6089143753051758,0.2331802248954773
1776444997919776000,2.68177587890625,0.6964814066886902,0.6054022312164307,0.29253554344177246
1776444997944793000,2.70679296875,0.753475546836853,0.03171117231249809,0.158258855342865
1776444997969810000,2.731809814453125,1.0795358419418335,-0.1963610053062439,-0.06585469096899033
1776444997994827000,2.756826904296875,1.4783977270126343,-0.11664540320634842,-0.23967324197292328
1776444998019844000,2.781843994140625,1.8344453573226929,0.01617656648159027,-0.34141454100608826
1776444998044861200,2.806861083984375,2.0733819007873535,-0.10123433917760849,-0.2590455114841461
1776444998069878000,2.8318779296875,2.31253719329834,0.15332072973251343,-0.16409006714820862
1776444998094895000,2.85689501953125,2.3179585933685303,0.11064333468675613,-0.07591454684734344
1776444998119912000,2.881911865234375,2.121349811553955,-0.028891678899526596,-0.08218506723642349
1776444998144929000,2.906928955078125,1.834484577178955,-0.10237835347652435,-0.18678902089595795
1776444998169945900,2.93194580078125,1.5438578128814697,0.029473071917891502,-0.4751105308532715
1776444998194963000,2.956962890625,1.2988405227661133,0.3600400984287262,-0.6571364998817444
1776444998219980000,2.98197998046875,1.2683939933776855,0.33554548025131226,-0.7555282115936279
1776444998244997000,3.0069970703125,1.8416868448257446,-0.05326861888170242,-0.6253196597099304
1776444998270014000,3.032013916015625,1.8391270637512207,-0.4922627806663513,-0.28616100549697876
1776444998295031000,3.057031005859375,1.3208889961242676,0.18545515835285187,-0.1493796855211258
1776444998320048000,3.082048095703125,1.1163047552108765,0.24550586938858032,-0.08187071233987808
1776444998345065200,3.107065185546875,1.4806196689605713,-0.12750932574272156,-0.004766444675624371
1776444998370082000,3.13208203125,2.0668394565582275,0.4532158374786377,0.07675664871931076
1776444998395099000,3.157098876953125,2.1504833698272705,0.4211730360984802,-0.025127539411187172
1776444998420116000,3.182115966796875,1.231034278869629,-0.052553415298461914,-0.020076829940080643
1776444998445133000,3.207133056640625,0.6766941547393799,-0.32546257972717285,-0.2877071499824524
1776444998470150000,3.23214990234375,0.9047225117683411,-0.032081350684165955,-0.4741097390651703
1776444998495167000,3.2571669921875,1.1579583883285522,0.11717057973146439,-0.49280038475990295
1776444998520184000,3.28218408203125,1.1167268753051758,0.24180643260478973,-0.31760331988334656
1776444998545201200,3.307201171875,0.9876132011413574,0.3100344240665436,-0.2546931207180023
1776444998570217200,3.33221728515625,0.9938284754753113,-0.09002216905355453,-0.02008775994181633
1776444998595234000,3.357234130859375,1.0700587034225464,-0.5132349133491516,0.13931961357593536
1776444998620251100,3.382251220703125,1.1973559856414795,-0.6117570400238037,-0.039427775889635086
1776444998645268200,3.407268310546875,1.1687915325164795,-0.7286773920059204,-0.22558169066905975
1776444998670285300,3.432285400390625,1.2976089715957642,-0.4745357930660248,-0.12884201109409332
1776444998695302100,3.45730224609375,1.5188953876495361,0.3797140121459961,0.16225725412368774
1776444998720319000,3.482319091796875,1.7713408470153809,0.7015928626060486,0.14875569939613342
1776444998745336000,3.507336181640625,2.0315287113189697,0.5868874788284302,-0.03653264418244362
1776444998770353200,3.532353271484375,1.9716688394546509,-0.2173818200826645,-0.26227113604545593
1776444998795370000,3.557369873046875,2.002236843109131,-0.4576471149921417,-0.47142094373703003
1776444998820387000,3.582386962890625,2.3028934001922607,-0.7209547162055969,-0.9374749064445496
1776444998845404200,3.607404052734375,2.6694319248199463,-0.8088926076889038,-1.0376911163330078
1776444998870421200,3.632421142578125,2.6426210403442383,-0.6949180364608765,-0.5426561832427979
1776444998895438000,3.65743798828125,2.301340341567993,-0.644140362739563,-0.28509682416915894
1776444998920455200,3.682455078125,2.1254804134368896,-0.35222694277763367,-0.22513608634471893
1776444998945472300,3.70747216796875,1.9899016618728638,-0.10794376581907272,0.04767616093158722
1776444998970489300,3.7324892578125,1.5862940549850464,0.05504915863275528,0.24017949402332306
1776444998995506200,3.757506103515625,1.2911912202835083,-0.16659660637378693,0.25260841846466064
1776444999020523000,3.78252294921875,1.3860090970993042,-0.4979199171066284,0.3236085772514343
1776444999045541000,3.807541015625,0.9945895671844482,-0.9539631605148315,0.6797098517417908
1776444999070558000,3.832557861328125,0.682935357093811,-0.5376632213592529,0.7588249444961548
1776444999095575000,3.857574951171875,0.607739269733429,-0.14784789085388184,0.5068231225013733
1776444999120592100,3.882592041015625,0.5617685317993164,0.12923043966293335,0.49676454067230225
1776444999145609200,3.907609130859375,0.2793043553829193,0.020515309646725655,0.4503868520259857
1776444999170626000,3.9326259765625,0.3672691583633423,-0.28903084993362427,0.16730043292045593
1776444999195643100,3.95764306640625,0.3709019720554352,0.2604607045650482,-0.09293365478515625
1776444999220660200,3.98266015625,0.5269976258277893,0.32921868562698364,-0.18235763907432556
1776444999245677300,4.00767724609375,0.9273083806037903,0.40402019023895264,-0.15853822231292725
1776444999270694100,4.032694091796875,1.004747748374939,0.7434704303741455,0.035169877111911774
1776444999295711000,4.0577109375,0.8993980288505554,0.4012377858161926,-0.0867660790681839
1776444999320728000,4.08272802734375,0.984533429145813,-0.21637262403964996,-0.0803368017077446
1776444999345745200,4.1077451171875,1.3080966472625732,-0.07575622946023941,0.013687261380255222
1776444999370762000,4.132761962890625,1.460513949394226,0.011377736926078796,-0.11690104752779007
1776444999395779000,4.157779052734375,1.5189682245254517,-0.5516000390052795,-0.2566303014755249
1776444999420796200,4.182796142578125,1.4424879550933838,-0.25349363684654236,-0.17440250515937805
1776444999445813200,4.207813232421875,1.7540334463119507,0.05557475984096527,-0.057864632457494736
1776444999470830000,4.232830078125,2.1332767009735107,0.4128958284854889,-0.24277836084365845
1776444999495847200,4.25784716796875,2.053049087524414,0.4438965618610382,-0.7465023398399353
1776444999520864300,4.2828642578125,1.6069155931472778,0.35052430629730225,-1.0931813716888428
1776444999545881000,4.307881103515625,1.0669068098068237,0.09404242038726807,-1.2026822566986084
1776444999570902300,4.33290234375,0.9103735685348511,0.052348461002111435,-0.860565185546875
1776444999595919000,4.357919189453125,1.1698788404464722,-0.3101348876953125,-0.48707666993141174
1776444999620936200,4.382936279296875,1.915279746055603,-0.28349781036376953,-0.5024998188018799
1776444999645953300,4.407953369140625,2.7171976566314697,0.13370856642723083,-0.48844966292381287
1776444999670970000,4.43297021484375,2.879589557647705,-0.04735979065299034,-0.4143408536911011
1776444999695987200,4.4579873046875,2.70489239692688,0.5096967220306396,-0.399158775806427
1776444999721004300,4.48300439453125,2.8240926265716553,0.7640536427497864,-0.40878140926361084
1776444999746021400,4.508021484375,3.241832971572876,0.7364405989646912,-0.4316892921924591
1776444999771038200,4.5330380859375,3.2342140674591064,0.4202614426612854,-0.7632549405097961
1776444999796055300,4.55805517578125,2.9041659832000732,0.0062146419659256935,-1.0836223363876343
1776444999821072400,4.583072265625,2.4089629650115967,0.15820783376693726,-1.1729158163070679
1776444999846089200,4.608089111328125,1.729836106300354,0.021595031023025513,-1.1854501962661743
1776444999871106000,4.63310595703125,1.262799859046936,0.0815020501613617,-0.9780303239822388
1776444999896123100,4.658123046875,1.0120882987976074,-0.07344623655080795,-0.6839264035224915
1776444999921141200,4.683141357421875,0.6984442472457886,-0.3043088912963867,-0.22131742537021637
1776444999946158000,4.708157958984375,0.6659892201423645,-0.24493616819381714,0.267417311668396
1776444999971175200,4.733175048828125,0.8378554582595825,-0.03995662182569504,0.6477881073951721
1776444999996192300,4.758192138671875,1.0207703113555908,-0.13193410634994507,0.6431005001068115
1776445000021209300,4.783209228515625,0.9485915899276733,0.1660667508840561,0.6313910484313965
1776445000046226200,4.80822607421875,0.743738055229187,0.0241178460419178,0.5439728498458862
1776445000071243300,4.8332431640625,0.718250572681427,-0.015174230560660362,0.48281702399253845
1776445000096260400,4.85826025390625,0.6289815306663513,-0.03240093216300011,0.4531908929347992
1776445000121277400,4.88327734375,0.579668402671814,-0.2267601639032364,0.3300120234489441
1776445000146294000,4.9082939453125,0.9964332580566406,0.17851780354976654,-0.07515494525432587
1776445000171311000,4.93331103515625,1.529036521911621,0.21979470551013947,-0.06359215080738068
1776445000196328200,4.958328125,2.1815857887268066,-0.6567174196243286,0.020610691979527473
1776445000221345300,4.98334521484375,2.5238540172576904,-0.732039749622345,0.03680763393640518
1776445000246362000,5.008362060546875,2.3288440704345703,-0.37723079323768616,0.04555410146713257
1776445000271379200,5.033379150390625,2.099107503890991,-0.06609338521957397,0.13322752714157104
1776445000296396300,5.058396240234375,2.085435152053833,0.13656029105186462,0.301202654838562
1776445000321413400,5.083413330078125,2.055138349533081,0.539527952671051,0.47757789492607117
1776445000346430200,5.10843017578125,1.7760671377182007,0.6258049607276917,0.3553311228752136
1776445000371447300,5.133447265625,1.6119614839553833,0.0354074090719223,-0.05251117795705795
1776445000396464400,5.15846435546875,1.7388633489608765,-0.2683393955230713,-0.2668316960334778
1776445000421481200,5.183481201171875,1.742095947265625,-0.0037592402659356594,0.0043691592290997505
1776445000446498000,5.208498046875,1.4104613065719604,-0.05165557563304901,0.06510242074728012
1776445000471515100,5.23351513671875,1.184393048286438,-0.9544661641120911,-0.1162097156047821
1776445000496532200,5.2585322265625,1.3300777673721313,-1.4091095924377441,-0.3556627631187439
1776445000521549300,5.28354931640625,1.6070382595062256,-1.0351029634475708,-0.3328922986984253
1776445000546566100,5.308566162109375,1.8448715209960938,-0.396450936794281,-0.44074195623397827
1776445000571579100,5.3335791015625,1.9298473596572876,0.2165938764810562,-0.15834282338619232
1776445000596596000,5.358595947265625,1.7466673851013184,1.0416138172149658,0.440540075302124
1776445000621614300,5.3836142578125,2.0937399864196777,0.8223598599433899,0.6208084225654602
1776445000646631000,5.408630859375,2.5304274559020996,0.41510048508644104,0.14973820745944977
1776445000671648000,5.43364794921875,2.691141128540039,-0.021413378417491913,0.13801157474517822
1776445000696665000,5.4586650390625,2.531567335128784,0.0694146454334259,0.33948296308517456
1776445000721682200,5.48368212890625,2.3846778869628906,-0.1931483894586563,0.09157669544219971
1776445000746699000,5.508698974609375,1.7907451391220093,-0.5175949335098267,-0.2440173178911209
1776445000771716000,5.533716064453125,1.5256328582763672,-0.5232140421867371,-0.19415642321109772
1776445000796733200,5.558733154296875,1.7975726127624512,-0.18996386229991913,-0.09607479721307755
1776445000821750300,5.583750244140625,1.6030725240707397,0.41476836800575256,-0.42871934175491333
1776445000846767000,5.60876708984375,1.2127206325531006,0.1301403045654297,-0.5700507164001465
1776445000871784200,5.6337841796875,1.1886217594146729,-0.43895480036735535,-0.47933661937713623
1776445000896801000,5.658801025390625,1.160969853401184,-0.13388584554195404,-0.47984495759010315
1776445000921818000,5.683818115234375,0.916663408279419,0.07390977442264557,-0.7653186321258545
1776445000946835000,5.7088349609375,0.6884408593177795,0.08917157351970673,-0.6469635963439941
1776445000971852000,5.73385205078125,0.507602870464325,0.08462806046009064,-0.36113449931144714
1776445000996869000,5.758869140625,0.3634702265262604,0.16980382800102234,-0.38505375385284424
1776445001021886200,5.78388623046875,0.38701534271240234,-0.1959661841392517,-0.5751384496688843
1776445001046903000,5.808903076171875,0.45928940176963806,-0.2743608355522156,-0.3602450489997864
1776445001071920000,5.833920166015625,0.5704723000526428,-0.05565008893609047,-0.11173884570598602
1776445001096937200,5.858937255859375,0.6278797388076782,-0.13966789841651917,-0.2331806868314743
1776445001121954300,5.883954345703125,0.6856802105903625,-0.015969300642609596,-0.25211066007614136
1776445001146971100,5.90897119140625,0.817219614982605,-0.01520448550581932,-0.14642255008220673
1776445001171988000,5.933988037109375,0.5322988629341125,-0.7161456346511841,-0.13782216608524323
1776445001197005000,5.959005126953125,0.4123855531215668,-0.6827794909477234,0.011635052040219307
1776445001222022100,5.984022216796875,1.1588886976242065,-0.4528273940086365,0.14754126965999603
1776445001247039000,6.0090390625,1.3073861598968506,-0.9454675912857056,0.01516385842114687
1776445001272056000,6.03405615234375,1.502988576889038,-0.19159124791622162,-0.05318820849061012
1776445001297074200,6.05907421875,1.788294792175293,0.6077181696891785,0.14954183995723724
1776445001322091000,6.084091064453125,1.8878188133239746,0.7590128183364868,0.22082935273647308
1776445001347108000,6.109108154296875,1.8801552057266235,0.21198153495788574,0.030253149569034576
1776445001372125200,6.134125244140625,1.739125370979309,-0.4872671067714691,-0.19654765725135803
1776445001397142300,6.159142333984375,1.5368666648864746,-0.43284299969673157,-0.19195674359798431
1776445001422159000,6.1841591796875,1.2574044466018677,-0.8787343502044678,-0.4099681079387665
1776445001447176200,6.20917626953125,1.4809093475341797,-0.8671112656593323,-0.5740424990653992
1776445001472193000,6.234193115234375,1.4447108507156372,-0.563511848449707,-0.3261232376098633
1776445001497210000,6.259210205078125,1.2383103370666504,-0.08788799494504929,0.033390771597623825
1776445001522227000,6.28422705078125,1.3694016933441162,0.11871061474084854,0.14091672003269196
1776445001547244000,6.309244140625,1.8483474254608154,0.009210309945046902,0.09112022817134857
1776445001572265200,6.33426513671875,2.450284481048584,-0.06458929926156998,0.17561481893062592
1776445001597282000,6.359281982421875,2.7029354572296143,0.30968576669692993,0.39286327362060547
1776445001622299100,6.384299072265625,2.750701427459717,0.05529014766216278,0.46536192297935486
1776445001647316200,6.409316162109375,2.5221779346466064,-0.2471502423286438,0.6153461337089539
1776445001672333300,6.434333251953125,2.0844037532806396,0.23382753133773804,0.5823935866355896
1776445001697350100,6.45935009765625,1.7188118696212769,0.22809681296348572,0.32760196924209595
1776445001722367000,6.484366943359375,1.4815433025360107,0.1853811889886856,0.1052980124950409
1776445001747384000,6.509384033203125,1.7085081338882446,-0.026163943111896515,-0.06920700520277023
1776445001772401200,6.534401123046875,1.9982390403747559,0.2907737195491791,-0.013379533775150776
1776445001797418200,6.559418212890625,2.2390191555023193,0.4159887731075287,0.09265812486410141
1776445001822435000,6.58443505859375,2.3489489555358887,0.1364022195339203,0.17299799621105194
1776445001847452200,6.6094521484375,2.3070273399353027,0.3409028649330139,0.15209458768367767
1776445001872470000,6.634469970703125,2.3436193466186523,0.32770442962646484,0.09678522497415543
1776445001897487000,6.659487060546875,2.4282069206237793,0.4073653221130371,0.2001611441373825
1776445001922504200,6.684504150390625,2.5322353839874268,0.7696821689605713,0.025961754843592644
1776445001947521300,6.709521240234375,2.3097121715545654,0.11477810889482498,-0.4141576886177063
1776445001972538000,6.7345380859375,1.7157117128372192,0.24997922778129578,-0.5447229743003845
1776445001997555200,6.75955517578125,1.4110984802246094,0.4353215992450714,-0.7100829482078552
1776445002022572000,6.784572021484375,1.477374792098999,-0.22391626238822937,-0.9002193808555603
1776445002047589000,6.809589111328125,1.660941481590271,-0.48427921533584595,-0.5983718633651733
1776445002072606200,6.834606201171875,1.561256766319275,0.4689106345176697,-0.21502859890460968
1776445002097623000,6.859623046875,1.7710740566253662,0.6968283653259277,-0.052485134452581406
1776445002122640100,6.88464013671875,2.206702470779419,-0.10140678286552429,-0.12473167479038239
1776445002147657200,6.9096572265625,2.5096096992492676,-0.26046591997146606,-0.1665056049823761
1776445002172674300,6.93467431640625,2.701864004135132,-0.5294966697692871,-0.30877962708473206
1776445002197691100,6.959691162109375,2.465836524963379,-1.2464343309402466,-0.5005664229393005
1776445002222708200,6.984708251953125,1.9585751295089722,-0.8830679059028625,-0.6651721596717834
1776445002247725300,7.009725341796875,1.5088666677474976,-0.843570351600647,-0.7324219942092896
1776445002272742100,7.0347421875,1.2763601541519165,-1.0026201009750366,-0.8709529638290405
1776445002297759000,7.059759033203125,1.4638358354568481,-1.1502050161361694,-0.9233970046043396
1776445002322776000,7.084776123046875,1.7467877864837646,-0.5011324286460876,-0.7477694749832153
1776445002347793200,7.109793212890625,1.9527032375335693,0.0033138832077383995,-0.4619617164134979
1776445002372811000,7.13481103515625,2.1302871704101562,-0.3692420721054077,-0.31820398569107056
1776445002397828000,7.159828125,1.9149457216262817,-0.3701057732105255,-0.08389046788215637
1776445002422845200,7.18484521484375,1.735682725906372,-0.08123162388801575,0.48451027274131775
1776445002447862300,7.2098623046875,1.6634474992752075,0.8849152326583862,0.6109031438827515
1776445002472879000,7.234879150390625,1.315100908279419,0.5210340619087219,0.41152316331863403
1776445002497896200,7.259896240234375,1.4647796154022217,0.20544734597206116,0.10351961851119995
1776445002522913300,7.284913330078125,1.9354525804519653,0.3608362376689911,-0.09723103791475296
1776445002547930400,7.309930419921875,2.0923385620117188,-0.4273879826068878,-0.3470693528652191
1776445002572943600,7.334943603515625,2.436227321624756,-0.800163209438324,-0.5361846089363098
1776445002597960700,7.359960693359375,2.889608860015869,-0.1830819845199585,-0.4233173727989197
1776445002622977800,7.384977783203125,2.829528570175171,0.2304723560810089,-0.13605277240276337
1776445002647995000,7.409994873046875,2.566624402999878,0.17735731601715088,-0.34275078773498535
1776445002673011700,7.43501171875,2.596392869949341,-0.02469722181558609,-0.7582926750183105
1776445002698028800,7.46002880859375,2.5715949535369873,-0.5454842448234558,-0.634233832359314
1776445002723046000,7.4850458984375,2.3613767623901367,-0.10887071490287781,0.04168955236673355
1776445002748063000,7.51006298828125,1.911027431488037,-0.21038617193698883,0.022749386727809906
1776445002773079600,7.53507958984375,1.773241400718689,-0.3415883779525757,-0.20987382531166077
1776445002798096600,7.5600966796875,1.7458486557006836,-0.27867352962493896,0.06335382908582687
1776445002823113700,7.58511376953125,1.535520315170288,0.00961377751082182,0.547513484954834
1776445002848131600,7.610131591796875,1.185858964920044,0.2914552390575409,0.6259196400642395
1776445002873148700,7.635148681640625,1.0756186246871948,0.23223033547401428,0.27831435203552246
1776445002898165800,7.660165771484375,1.2460355758666992,-0.09932487457990646,0.25850430130958557
1776445002923182800,7.685182861328125,1.196889042854309,-0.6422896981239319,0.5132964849472046
1776445002948199700,7.71019970703125,0.9808549284934998,-0.9598409533500671,0.48553267121315
1776445002973216800,7.735216796875,0.969508171081543,-0.8239731788635254,0.3514782786369324
1776445002998233900,7.76023388671875,0.9235639572143555,-0.6099628210067749,0.49919232726097107
1776445003023251000,7.7852509765625,0.6045892238616943,-0.14312562346458435,0.7149617075920105
1776445003048267800,7.810267822265625,0.1819249391555786,0.015501080080866814,0.6160607933998108
1776445003073284600,7.83528466796875,0.1345505565404892,-0.3581249713897705,0.4479392468929291
1776445003098301700,7.8603017578125,0.4273417890071869,-0.6563830375671387,0.2549154460430145
1776445003123318800,7.88531884765625,0.7871783971786499,-0.4212336540222168,0.20510712265968323
1776445003148335600,7.910335693359375,0.7145309448242188,-0.07416094094514847,0.1554342359304428
1776445003173352700,7.935352783203125,0.07688255608081818,0.5285290479660034,0.35741129517555237
1776445003198369800,7.960369873046875,-0.5644874572753906,0.36243027448654175,0.2423192411661148
1776445003223387000,7.985386962890625,-0.4068053662776947,0.007231069728732109,0.20899459719657898
1776445003248403700,8.01040380859375,0.07153242826461792,0.5507612824440002,0.43950289487838745
1776445003273420800,8.0354208984375,0.43391650915145874,0.2731851637363434,0.4103504717350006
1776445003298438000,8.06043798828125,0.7377279996871948,-0.19922426342964172,0.187392920255661
1776445003323455700,8.085455810546875,0.9927356839179993,-0.39261606335639954,0.04783223569393158
1776445003348472800,8.110472900390626,1.0744831562042236,-0.1312524378299713,-0.14611706137657166
1776445003373489700,8.13548974609375,1.4280318021774292,0.1124911829829216,-0.4073423743247986
1776445003398506800,8.1605068359375,1.9629017114639282,0.7090849280357361,-0.18809883296489716
1776445003423523600,8.185523681640625,2.117532730102539,0.8465530872344971,-0.15972711145877838
1776445003448540700,8.210540771484375,2.0502583980560303,0.761483371257782,-0.15206868946552277
1776445003473557800,8.235557861328125,1.855239987373352,0.6626584529876709,-0.14450359344482422
1776445003498574800,8.260574951171876,1.8212388753890991,0.6772352457046509,-0.18812720477581024
1776445003523591700,8.285591796875,2.323432207107544,0.11560878902673721,-0.33739134669303894
1776445003548608800,8.31060888671875,2.9328813552856445,-0.29757124185562134,-0.29311737418174744
1776445003573625000,8.335625,3.535306215286255,-0.11414290219545364,-0.096437968313694
1776445003598642200,8.36064208984375,3.8974802494049072,-0.12832129001617432,0.0392070971429348
1776445003623659000,8.385658935546875,3.785231590270996,-0.081745944917202,-0.016932852566242218
1776445003648676000,8.410676025390625,3.347935914993286,0.41431766748428345,-0.2256489098072052
1776445003673693200,8.435693115234375,2.8933756351470947,0.9525342583656311,-0.15443472564220428
1776445003698710300,8.460710205078126,2.496439218521118,0.6226068735122681,0.0741632729768753
1776445003723727000,8.48572705078125,1.934007167816162,0.6338886618614197,0.1574547290802002
1776445003748744000,8.510743896484374,1.2505024671554565,0.832606315612793,-0.06634607166051865
1776445003773762300,8.53576220703125,0.8860297799110413,0.5492704510688782,-0.39160680770874023
1776445003798779100,8.560779052734375,1.0042980909347534,0.21046563982963562,-0.7763814926147461
1776445003823796000,8.5857958984375,1.1619895696640015,-0.39624539017677307,-1.0708574056625366
1776445003848813000,8.61081298828125,1.2028089761734009,-0.6943204402923584,-1.1224581003189087
1776445003873830100,8.635830078125,1.0820008516311646,-0.6551303863525391,-1.0214303731918335
1776445003898847000,8.660846923828124,0.8573665618896484,-0.356268972158432,-0.7560129165649414
1776445003923864000,8.685864013671875,0.8078911900520325,0.05602406710386276,-0.49835553765296936
1776445003948881200,8.710881103515625,0.8077990412712097,0.10588856041431427,-0.23446717858314514
1776445003973898200,8.735898193359375,0.6826983690261841,0.4175141453742981,0.09552522003650665
1776445003998915000,8.7609150390625,0.4454771876335144,0.26332607865333557,0.3475978970527649
1776445004023932200,8.78593212890625,0.4051458239555359,0.0034950021654367447,0.4761676788330078
1776445004048949000,8.810948974609374,0.6480039954185486,0.14939691126346588,0.6170037984848022
1776445004073966000,8.835966064453125,0.6290484666824341,-0.16791732609272003,0.7739167809486389
1776445004098983200,8.860983154296875,0.4902988374233246,-0.8195422291755676,0.7139977812767029
1776445004124000000,8.886,0.8157557249069214,0.026761692017316818,-0.17200340330600739
1776445004149017000,8.91101708984375,1.5397398471832275,0.33680543303489685,-0.4364601671695709
1776445004174034200,8.9360341796875,2.0873055458068848,-0.3911727964878082,-0.3575313687324524
1776445004199051300,8.96105126953125,2.1671619415283203,-0.5471276044845581,-0.46370041370391846
1776445004224069000,8.986069091796875,1.7213268280029297,-0.45493873953819275,-0.6608933806419373
1776445004249086200,9.011086181640625,1.264591932296753,-0.4537683129310608,-0.7926267981529236
1776445004274103000,9.03610302734375,1.3433823585510254,-0.9874846935272217,-0.6340137720108032
1776445004299120000,9.0611201171875,1.5087682008743286,-0.9848122000694275,-0.3489707410335541
1776445004324137200,9.08613720703125,1.576238751411438,-0.767772912979126,-0.2039598673582077
1776445004349154000,9.111154052734374,1.7588573694229126,-0.9448392391204834,-0.0640050545334816
1776445004374171100,9.136171142578124,1.7281168699264526,-0.7299739718437195,0.08040770143270493
1776445004399188000,9.16118798828125,1.7491021156311035,-0.1843186616897583,0.1922299861907959
1776445004424205000,9.186205078125,1.634713888168335,0.5316702723503113,0.17801092565059662
1776445004449222100,9.21122216796875,1.424770474433899,1.0018712282180786,0.27574965357780457
1776445004474239200,9.2362392578125,1.5356817245483398,1.0988658666610718,0.3123139441013336
1776445004499256000,9.261256103515626,1.9027678966522217,1.2137387990951538,0.12404090911149979
1776445004524273200,9.286273193359374,2.0469248294830322,0.8432244658470154,-0.42651110887527466
1776445004549290200,9.311290283203125,1.897849678993225,0.23070140182971954,-0.6726124882698059
1776445004574307800,9.336307861328125,1.9488872289657593,-0.34953004121780396,-0.49609312415122986
1776445004599325000,9.361324951171875,2.0020458698272705,-0.24129468202590942,-0.30186107754707336
1776445004624342000,9.386342041015626,1.9395519495010376,-0.22966063022613525,-0.5608884692192078
1776445004649359000,9.411359130859376,2.0284314155578613,-0.5015612840652466,-0.6025744080543518
1776445004674376000,9.4363759765625,2.0519676208496094,-0.2550842761993408,-0.09937113523483276
1776445004699394000,9.46139404296875,1.860274076461792,0.7544190287590027,0.5708494782447815
1776445004724411100,9.4864111328125,1.7077399492263794,1.1673756837844849,0.6493823528289795
1776445004749428000,9.511427978515625,1.8275091648101807,0.22611241042613983,0.5092439651489258
1776445004774445000,9.536445068359376,1.658310890197754,0.1209140345454216,0.577686071395874
1776445004799462100,9.561462158203126,1.2955613136291504,-0.11304046213626862,0.316580206155777
1776445004824479000,9.58647900390625,1.2578604221343994,-1.1164816617965698,-0.13576824963092804
1776445004849496000,9.61149609375,1.066908359527588,-1.4301141500473022,-0.06362949311733246
1776445004874513000,9.636512939453125,0.8576558232307434,-0.5285921096801758,0.2280716896057129
1776445004899530000,9.661530029296875,0.9293967485427856,0.05085314065217972,0.25837042927742004
1776445004924547000,9.686547119140625,1.109472393989563,0.3018301725387573,-0.0870608389377594
1776445004949564000,9.71156396484375,1.3853274583816528,0.2928457260131836,-0.07801422476768494
1776445004974581000,9.7365810546875,1.3491241931915283,0.5101996064186096,0.31002193689346313
1776445004999598000,9.76159814453125,0.8921274542808533,1.0014714002609253,0.2582058012485504
1776445005024615200,9.786615234375,0.5650685429573059,0.42510005831718445,-0.1791258007287979
1776445005049632000,9.811632080078125,0.6169230341911316,-0.6368247866630554,-0.20700141787528992
1776445005074649000,9.836649169921875,0.45021191239356995,-0.5024288296699524,0.038033708930015564
1776445005099666200,9.861666259765625,0.20067374408245087,0.02407790720462799,0.1358354687690735
1776445005124683300,9.886683349609376,-0.0846092477440834,0.050038181245326996,0.0618571862578392
1776445005149699800,9.911699951171874,-0.008134408853948116,-0.6001945734024048,0.03404310718178749
1776445005174717000,9.936717041015624,0.4950104057788849,-0.5036942362785339,0.18216845393180847
1776445005199735000,9.961735107421875,1.2135511636734009,0.36499252915382385,0.09947653114795685
1776445005224751900,9.986751953125,1.2496486902236938,-0.4527880847454071,-0.25999730825424194
1776445005249769000,10.01176904296875,1.0976448059082031,-0.2825835943222046,-0.40496736764907837
1776445005274786000,10.0367861328125,1.3406074047088623,-0.6073552370071411,-0.48086005449295044
1776445005299803100,10.06180322265625,1.3716644048690796,-1.1450103521347046,-0.5974320769309998
1776445005324820000,10.086820068359375,1.4140269756317139,-0.596534013748169,-0.46222764253616333
1776445005349837000,10.111837158203125,1.611570954322815,0.21420960128307343,-0.008402641862630844
1776445005374854100,10.136854248046875,1.8338191509246826,0.0911635309457779,0.23556163907051086
1776445005399871200,10.161871337890625,1.9246728420257568,-0.20319947600364685,0.22647826373577118
1776445005424888000,10.18688818359375,1.9234122037887573,0.11598999053239822,0.35131409764289856
1776445005449905000,10.21190478515625,2.2397372722625732,0.19571171700954437,0.46181944012641907
1776445005474922000,10.236921875,2.8148081302642822,-0.1675153523683548,0.2588644027709961
1776445005499939000,10.26193896484375,3.0308899879455566,-0.15847569704055786,0.10180926322937012
1776445005524956000,10.286955810546875,2.6955878734588623,0.11076214164495468,0.17428916692733765
1776445005549973000,10.311972900390625,2.5706021785736084,0.09919915348291397,0.16992200911045074
1776445005574994000,10.336993896484374,2.6715242862701416,-0.15298137068748474,-0.06285656988620758
1776445005600010800,10.3620107421875,2.572845697402954,-0.022036205977201462,-0.24039311707019806
1776445005625027800,10.38702783203125,2.247403860092163,0.11515043675899506,-0.25566110014915466
1776445005650045000,10.412044921875,1.995430827140808,0.4026382565498352,-0.19740413129329681
1776445005675062000,10.43706201171875,2.148484945297241,0.27304866909980774,-0.2217295616865158
1776445005700078800,10.462078857421876,2.3335068225860596,0.02613667957484722,-0.059622347354888916
1776445005725095700,10.487095703125,2.3086864948272705,0.3838595449924469,0.09724138677120209
1776445005750114000,10.512114013671875,2.3380379676818848,0.3187764585018158,0.1067662239074707
1776445005775130600,10.537130615234375,2.4222464561462402,0.2730550169944763,0.2862846553325653
1776445005800147700,10.562147705078125,2.396796941757202,0.25335928797721863,0.22122319042682648
1776445005825164800,10.587164794921875,2.26045823097229,0.33582207560539246,0.05170881748199463
1776445005850182000,10.612181884765626,2.1394405364990234,0.4905856251716614,0.11711646616458893
1776445005875198700,10.63719873046875,2.201495409011841,0.7230009436607361,0.22353269159793854
1776445005900215800,10.6622158203125,2.4476449489593506,0.38021451234817505,0.01842585578560829
1776445005925233000,10.68723291015625,2.461749792098999,0.2019067406654358,-0.2000470757484436
1776445005950250000,10.71225,1.9709901809692383,0.35607796907424927,-0.2101152390241623
1776445005975266800,10.737266845703125,1.2621289491653442,0.704285204410553,-0.10614924132823944
1776445006000284000,10.762283935546876,0.6749791502952576,0.3264451026916504,-0.06567160040140152
1776445006025300700,10.78730078125,0.45427384972572327,-0.2814796268939972,-0.22596286237239838
1776445006050317800,10.81231787109375,0.3218030035495758,-0.3107045888900757,-0.30789777636528015
1776445006075335000,10.8373349609375,0.2754109799861908,-0.24453556537628174,-0.24871918559074402
1776445006100351700,10.862351806640625,0.50593101978302,-0.26908430457115173,-0.12611599266529083
1776445006125368800,10.887368896484375,0.6782885789871216,0.05210961401462555,-0.04829549416899681
1776445006150386000,10.912385986328125,0.9223921298980713,0.3415895998477936,-0.0639108270406723
1776445006175402800,10.93740283203125,1.7695159912109375,0.2584492564201355,0.14117877185344696
1776445006200419800,10.962419921875,2.279782772064209,0.3990522027015686,0.1815163493156433
1776445006225437000,10.98743701171875,2.4469451904296875,0.9120381474494934,0.14280734956264496
1776445006250454000,11.0124541015625,2.6152844429016113,0.8858245015144348,0.08881840109825134
1776445006275470800,11.037470947265625,2.572458505630493,0.9231674671173096,0.03064011223614216
1776445006300487700,11.06248779296875,2.01737117767334,0.6253065466880798,0.21681861579418182
1776445006325506000,11.087506103515626,0.7782860398292542,-0.5231859087944031,-0.04877467080950737
1776445006350523000,11.11252294921875,0.48556309938430786,-0.38399651646614075,-0.5459746718406677
1776445006375539700,11.137539794921874,0.7627025842666626,-0.5632292628288269,-0.6844231486320496
1776445006400556800,11.162556884765625,0.9908719658851624,-0.6983088254928589,-0.4821808636188507
1776445006425574000,11.187573974609375,1.4134321212768555,-0.6102221012115479,-0.16001352667808533
1776445006450591000,11.212591064453125,1.2645999193191528,0.03846531733870506,-0.006511886604130268
1776445006475607800,11.23760791015625,0.9617279171943665,0.5193400979042053,-0.06728143244981766
1776445006500625000,11.262625,0.8794475793838501,0.10681838542222977,-0.12450774759054184
1776445006525642000,11.28764208984375,1.1729656457901,-0.25241270661354065,0.025279270485043526
1776445006550658800,11.312658935546875,1.7258473634719849,-0.0962664783000946,-0.005572579801082611
1776445006575675000,11.3376748046875,1.9400089979171753,-0.18768882751464844,-0.2908913195133209
1776445006600691700,11.362691650390625,2.3344788551330566,-0.5488801002502441,-0.11673374474048615
1776445006625708800,11.387708740234375,2.341402530670166,-0.2170252501964569,0.2687724828720093
1776445006650726000,11.412725830078125,2.2301435470581055,0.1942460536956787,0.14756956696510315
1776445006675743000,11.437742919921876,2.594332218170166,0.48489710688591003,-0.27104368805885315
1776445006700759800,11.462759765625,2.7176451683044434,0.2896871864795685,-0.3912753760814667
1776445006725776600,11.487776611328124,2.219545364379883,0.5551113486289978,-0.09675244987010956
1776445006750793700,11.512793701171875,1.757010817527771,0.7598659992218018,-0.07727871835231781
1776445006775810800,11.537810791015625,1.5453013181686401,0.44700661301612854,-0.1722390204668045
1776445006800827600,11.56282763671875,1.4057472944259644,-0.19929668307304382,0.12762747704982758
1776445006825844700,11.5878447265625,1.3069868087768555,-0.642030656337738,0.3228991627693176
1776445006850861800,11.61286181640625,1.1766778230667114,-0.7949115633964539,0.22744734585285187
1776445006875879700,11.637879638671874,0.9785603284835815,-0.6898126602172852,0.14103853702545166
1776445006900896800,11.662896728515625,0.966261625289917,-0.1675482988357544,0.21779973804950714
1776445006925913900,11.687913818359375,0.7822364568710327,0.3423529267311096,0.18756549060344696
1776445006950931000,11.712930908203125,0.7085511088371277,0.21289169788360596,0.0351572260260582
1776445006975947800,11.73794775390625,0.7106779217720032,0.03618772700428963,0.09631786495447159
1776445007000964900,11.76296484375,0.5630419254302979,-0.06310836225748062,0.15968544781208038
1776445007025981700,11.787981689453124,0.5250911116600037,0.16482385993003845,-0.01645660027861595
1776445007050998800,11.812998779296874,0.44011104106903076,0.15629294514656067,-0.06433049589395523
1776445007076015600,11.838015625,0.356344610452652,-0.1358756572008133,-0.16520246863365173
1776445007101032700,11.86303271484375,0.6553099155426025,-0.6607930064201355,-0.7715541124343872
1776445007126049800,11.8880498046875,0.7613862752914429,-0.29811182618141174,-1.0044809579849243
1776445007151067000,11.91306689453125,0.4563184380531311,0.5110175609588623,-0.6607781052589417
1776445007176083700,11.938083740234376,0.4249618947505951,0.11821836233139038,-0.3940410017967224
1776445007201100800,11.963100830078124,0.4894462525844574,0.42064368724823,-0.07049697637557983
1776445007226118000,11.988117919921875,0.6741533875465393,0.6692780256271362,0.22592544555664062
1776445007251135000,12.013135009765625,0.7189217209815979,0.4774181544780731,0.12609432637691498
1776445007276151600,12.038151611328125,0.8991515040397644,-0.2474566400051117,0.005514212884008884
1776445007301168600,12.063168701171875,1.0837903022766113,-0.7666803598403931,-0.2512201964855194
1776445007326185700,12.088185791015626,0.944620668888092,-0.8614433407783508,-0.5090572834014893
1776445007351202800,12.113202880859374,0.8696900010108948,-0.6931407451629639,-0.2790455222129822
1776445007376219600,12.1382197265625,1.032375454902649,0.19327448308467865,0.24876679480075836
1776445007401236700,12.16323681640625,1.5109524726867676,0.5131633877754211,0.666943371295929
1776445007426253800,12.18825390625,1.7320303916931152,0.781112790107727,0.5716493129730225
1776445007451271000,12.21327099609375,1.3102734088897705,1.1430894136428833,0.37238556146621704
1776445007476287700,12.238287841796875,1.0931769609451294,1.032709002494812,0.2845216989517212
1776445007501305900,12.263305908203124,0.9986193776130676,0.5006608366966248,-0.012403671629726887
1776445007526322000,12.288322021484374,1.0238783359527588,-0.14478006958961487,-0.2709023058414459
1776445007551339800,12.31333984375,1.5160359144210815,-0.240302175283432,-0.42306822538375854
1776445007576353800,12.338353759765624,2.34371280670166,-0.43565303087234497,-0.5219458341598511
1776445007601371000,12.363370849609375,2.753772258758545,-0.2582845091819763,-0.581092119216919
1776445007626387700,12.3883876953125,3.0075223445892334,-0.3991425633430481,-0.6511216759681702
1776445007651404500,12.413404541015625,3.5125772953033447,-0.49056342244148254,-0.7218085527420044
1776445007676421600,12.438421630859375,3.6908795833587646,-0.33291172981262207,-0.8102487325668335
1776445007701438700,12.463438720703126,3.2490909099578857,0.3761996328830719,-0.3343430161476135
1776445007726455800,12.488455810546874,2.6262359619140625,1.1664998531341553,0.3066459000110626
1776445007751472600,12.51347265625,1.9732345342636108,1.0369696617126465,0.5016956329345703
1776445007776489700,12.53848974609375,1.4592289924621582,1.2496877908706665,0.4574725031852722
1776445007801506800,12.5635068359375,1.2416205406188965,1.072931170463562,0.30467137694358826
1776445007826524000,12.58852392578125,0.9684206247329712,0.7310277819633484,0.11822094768285751
1776445007851540700,12.613540771484375,0.5305647850036621,0.6043343544006348,-0.22879305481910706
1776445007876557800,12.638557861328126,0.46719133853912354,-0.7104804515838623,-0.7030125856399536
1776445007901575000,12.663574951171874,1.054994821548462,-0.44680505990982056,-0.7536194920539856
1776445007926591700,12.688591796875,1.6931755542755127,-0.598831057548523,-0.7657472491264343
1776445007951608600,12.713608642578125,1.9729098081588745,-0.4866373836994171,-0.5591661930084229
1776445007976625700,12.738625732421875,1.894540548324585,-0.14511679112911224,-0.34807440638542175
1776445008001642800,12.763642822265625,1.5606837272644043,-0.03942312300205231,-0.21250267326831818
1776445008026659800,12.788659912109376,1.339942216873169,-0.7084270715713501,-0.4040766656398773
1776445008051676700,12.8136767578125,0.9375663995742798,-0.6884478330612183,-0.4680604934692383
1776445008076693800,12.83869384765625,0.4277757704257965,-0.456235408782959,-0.4177166521549225
1776445008101710800,12.8637109375,0.7742322087287903,-0.834102988243103,-0.6469501852989197
1776445008126728000,12.88872802734375,0.9204986095428467,-0.03030673786997795,-0.7028501033782959
1776445008151744800,12.913744873046875,1.1843726634979248,0.11309612542390823,-0.5999341011047363
1776445008176761600,12.93876171875,1.747697353363037,-0.12648619711399078,-0.47180411219596863
1776445008201778700,12.96377880859375,2.115593194961548,-0.6383004188537598,-0.577030599117279
1776445008226796500,12.988796630859374,2.3093466758728027,-0.26216989755630493,-0.7462817430496216
1776445008251813600,13.013813720703125,2.085080146789551,-0.3656764328479767,-0.9372990727424622
1776445008276830700,13.038830810546875,1.60447096824646,-0.6750359535217285,-1.000381350517273
1776445008301847800,13.063847900390625,1.4720362424850464,-0.9620712399482727,-1.018381953239441
1776445008326864600,13.08886474609375,1.827182650566101,-0.7509340047836304,-0.7729244828224182
1776445008351881700,13.1138818359375,2.127591371536255,-0.6082407832145691,-0.45998522639274597
1776445008376898800,13.13889892578125,1.8398325443267822,-0.22801442444324493,-0.20380690693855286
1776445008401916000,13.163916015625,1.5551846027374268,-0.2507437765598297,0.04293086379766464
1776445008426932700,13.1889326171875,1.447367787361145,-0.6995595693588257,0.15420585870742798
1776445008451949800,13.21394970703125,1.330154299736023,-1.0910700559616089,0.05425848811864853
1776445008476966700,13.238966552734375,1.4826358556747437,-1.1432429552078247,0.0569894015789032
1776445008501983700,13.263983642578125,1.6164968013763428,-0.8578009009361267,0.2748236358165741
1776445008527000600,13.28900048828125,1.7917331457138062,-0.33551928400993347,0.42963922023773193
1776445008552017700,13.314017578125,2.10793137550354,-0.47834551334381104,0.3521682918071747
1776445008577035000,13.339034912109375,2.3377559185028076,-0.12787137925624847,0.5383762717247009
1776445008602052000,13.364052001953125,2.5299081802368164,0.7395502924919128,1.0793768167495728
1776445008627069000,13.38906884765625,2.850243330001831,1.7978590726852417,1.4688453674316406
1776445008652086000,13.4140859375,3.2090704441070557,1.4942586421966553,1.031609058380127
1776445008677103000,13.43910302734375,3.3174076080322266,1.1888208389282227,0.5923052430152893
1776445008702120200,13.4641201171875,3.2279696464538574,0.48442280292510986,0.5028644800186157
1776445008727137000,13.489136962890624,2.77138090133667,-0.14002901315689087,0.5125844478607178
1776445008752153900,13.51415380859375,2.7072343826293945,-0.7280969023704529,0.16709929704666138
1776445008777171000,13.5391708984375,2.0068018436431885,-1.0049042701721191,-0.33500906825065613
1776445008802188000,13.56418798828125,1.5659716129302979,-1.0475409030914307,-0.4708899259567261
1776445008827204900,13.589204833984375,1.7204151153564453,-0.9146522283554077,-0.28228625655174255
1776445008852222000,13.614221923828126,1.6332119703292847,-0.28187310695648193,-0.3237980306148529
1776445008877239000,13.639239013671874,1.4871200323104858,-0.021280959248542786,-0.42485955357551575
1776445008902256000,13.664256103515624,1.5050231218338013,-0.06890644878149033,-0.0934753492474556
1776445008927273000,13.68927294921875,1.537971019744873,0.1988092064857483,0.24161386489868164
1776445008952290000,13.7142900390625,1.078540325164795,0.4361068904399872,-0.17642395198345184
1776445008977307100,13.73930712890625,0.4240460991859436,0.24273453652858734,-0.65110182762146
1776445009002324000,13.764323974609376,-0.17831695079803467,-0.2855706810951233,-0.5896007418632507
1776445009027342000,13.789342041015624,-0.0791301429271698,-0.4040532112121582,-0.27318045496940613
1776445009052359000,13.81435888671875,0.8536013960838318,0.7705087065696716,0.355985552072525
1776445009077376000,13.8393759765625,1.7557278871536255,0.11780599504709244,0.4204823672771454
1776445009102392800,13.864392822265625,1.6665252447128296,-1.356427550315857,-0.46005892753601074
1776445009127410000,13.889409912109375,1.26921808719635,-1.2924106121063232,-1.0667308568954468
1776445009152427000,13.914427001953126,1.111439824104309,-0.7328950762748718,-0.7855427861213684
1776445009177444000,13.939444091796876,1.1939396858215332,0.009410949423909187,-0.008545087650418282
1776445009202461000,13.9644609375,1.225153923034668,-0.44245749711990356,0.2614479959011078
1776445009227478000,13.98947802734375,1.2941937446594238,-0.3132402002811432,0.2509482204914093
1776445009252495000,14.0144951171875,1.6200071573257446,-0.19509364664554596,0.1715499460697174
1776445009277512200,14.03951220703125,1.667401671409607,-0.22263607382774353,0.465076744556427
1776445009302529000,14.064529052734375,1.4748036861419678,0.11824622750282288,0.6468777656555176
1776445009327545900,14.0895458984375,1.1038240194320679,0.09556329250335693,0.594745397567749
1776445009352563000,14.11456298828125,0.7809263467788696,0.22397226095199585,0.38747429847717285
1776445009377580000,14.139580078125,0.9079698920249939,0.13952983915805817,0.12459538877010345
1776445009402596900,14.164596923828125,1.3272868394851685,0.09020443260669708,-0.003666951786726713
1776445009427614000,14.189614013671875,1.6964366436004639,-0.05609685182571411,0.1132199838757515
1776445009452631000,14.214631103515625,2.1378462314605713,-0.10110296308994293,0.250440776348114
1776445009477648100,14.239648193359375,2.332947015762329,-0.08300528675317764,0.5430744290351868
1776445009502665000,14.2646650390625,2.260684013366699,0.31918612122535706,0.8373948931694031
1776445009527682000,14.28968212890625,2.5325570106506348,0.526138961315155,0.7979490756988525
1776445009552699100,14.31469921875,2.945514440536499,0.8818627595901489,0.7667883634567261
1776445009577719600,14.339719482421875,3.4842541217803955,1.202805757522583,0.9542670845985413
1776445009602736400,14.364736328125,3.9062159061431885,1.1873165369033813,1.0492448806762695
1776445009627753500,14.38975341796875,3.852365493774414,1.3340797424316406,0.8915679454803467
1776445009652770600,14.4147705078125,3.087209701538086,1.0640876293182373,0.484383761882782
1776445009677787400,14.439787353515625,2.1046175956726074,1.0296510457992554,0.03013134002685547
1776445009702804200,14.46480419921875,1.7330433130264282,0.8102392554283142,-0.46161600947380066
1776445009727821300,14.4898212890625,1.8910108804702759,-0.20480872690677643,-0.6634361147880554
1776445009752838400,14.51483837890625,1.9755417108535767,-0.3159574866294861,-0.7912573218345642
1776445009777855500,14.53985546875,1.8481262922286987,0.11756926774978638,-0.9047436118125916
1776445009802872300,14.564872314453124,1.947304606437683,0.2080315202474594,-0.9444513320922852
1776445009827889400,14.589889404296875,2.2240591049194336,0.19375614821910858,-0.9232373833656311
1776445009852906500,14.614906494140625,2.2903106212615967,0.10272008180618286,-0.9549663066864014
1776445009877923600,14.639923583984375,2.173518657684326,0.06729915738105774,-0.9921827912330627
1776445009902940400,14.6649404296875,1.7497621774673462,-0.01838897168636322,-0.873539388179779
1776445009927957200,14.689957275390626,0.9362012147903442,-0.31413716077804565,-0.7343597412109375
1776445009952975600,14.7149755859375,0.10513196885585785,-0.3816789984703064,-0.43366947770118713
1776445009977992200,14.7399921875,-0.2222355157136917,-0.048768676817417145,0.08693288266658783
1776445010003009300,14.76500927734375,-0.2704320251941681,0.14191807806491852,0.20075716078281403
1776445010028026400,14.7900263671875,0.062194596976041794,-0.47082680463790894,0.24320223927497864
1776445010053043500,14.81504345703125,1.1187126636505127,-1.0108411312103271,0.2990185618400574
1776445010078060300,14.840060302734376,1.7815916538238525,-0.43577897548675537,0.19281499087810516
1776445010103077400,14.865077392578126,2.271559953689575,0.07194243371486664,0.2265172302722931
1776445010128094500,14.890094482421874,2.6452176570892334,0.1915864199399948,0.08724039793014526
1776445010153111600,14.915111572265625,2.617276430130005,0.3189469575881958,-0.0636211559176445
1776445010178128400,14.94012841796875,1.895417332649231,0.3184444308280945,-0.38862916827201843
1776445010203145500,14.9651455078125,1.0609923601150513,-0.7878354787826538,-0.6539579629898071
1776445010228162300,14.990162353515625,0.7955779433250427,-1.2253884077072144,-0.6103339791297913
1776445010253179400,15.015179443359376,1.2814286947250366,-1.0660487413406372,-0.4574635624885559
1776445010278196200,15.0401962890625,1.8090009689331055,-0.9102216958999634,-0.3190813660621643
1776445010303213300,15.06521337890625,1.9292922019958496,-0.657002329826355,-0.2326572686433792
1776445010328230400,15.09023046875,1.8136837482452393,-0.35644614696502686,0.09665488451719284
1776445010353247500,15.11524755859375,1.6771048307418823,-0.5838633179664612,0.3470621407032013
1776445010378264300,15.140264404296875,1.5950400829315186,-1.3244054317474365,0.4226798415184021
1776445010403281400,15.165281494140626,1.4514049291610718,-0.41713935136795044,-0.049400217831134796
1776445010428298500,15.190298583984376,1.2066110372543335,-0.1670435220003128,-0.49361714720726013
1776445010453315600,15.215315673828124,1.3996944427490234,-0.1855580061674118,-0.36922287940979004
1776445010478332400,15.24033251953125,1.6241204738616943,-0.18847429752349854,-0.05448829010128975
1776445010503349200,15.265349365234375,1.6888389587402344,0.6939800977706909,0.1627752035856247
1776445010528366300,15.290366455078125,1.9926806688308716,0.18460845947265625,0.04397756606340408
1776445010553383400,15.315383544921875,2.325929641723633,0.26164814829826355,0.12258095294237137
1776445010578396700,15.340396728515625,2.681320905685425,0.6831753253936768,0.2833348214626312
1776445010603413800,15.365413818359375,2.643887996673584,0.6347927451133728,0.14169012010097504
1776445010628430800,15.390430908203125,2.336214542388916,0.07841848582029343,-0.1262490451335907
1776445010653448000,15.415447998046876,2.352353096008301,-0.6079798936843872,-0.3719088137149811
1776445010678464800,15.44046484375,2.028704881668091,-0.8202661871910095,-0.07316680252552032
1776445010703481600,15.465481689453124,1.9361965656280518,-1.7287856340408325,0.02181505225598812
1776445010728498700,15.490498779296875,2.3089334964752197,-0.8579367995262146,-0.06399763375520706
1776445010753515800,15.515515869140625,1.8822797536849976,0.7157084345817566,0.14053262770175934
1776445010778532900,15.540532958984375,1.3331245183944702,0.9987828135490417,0.47391587495803833
1776445010803549700,15.5655498046875,0.6662322282791138,1.227955937385559,0.6150449514389038
1776445010828566800,15.59056689453125,0.5068610906600952,0.8382335305213928,0.650689423084259
1776445010853584000,15.615583984375,0.4413861036300659,0.3331170976161957,0.7539352774620056
1776445010878601000,15.64060107421875,0.3890947103500366,-0.02160789631307125,0.7414460182189941
1776445010903617800,15.66561767578125,0.7868499755859375,-0.3744875192642212,0.2871095538139343
1776445010928635000,15.690634765625,1.2250920534133911,-0.2669190466403961,-0.012867147102952003
1776445010953651700,15.715651611328125,0.9546801447868347,0.5103373527526855,-0.09187458455562592
1776445010978668800,15.740668701171876,0.4881324768066406,0.9762876033782959,0.06736652553081512
1776445011003685600,15.765685546875,0.7839600443840027,0.3587099611759186,-0.037592049688100815
1776445011028702700,15.79070263671875,0.9986677169799805,0.7975882887840271,-0.07263769954442978
1776445011053719800,15.8157197265625,1.0765769481658936,0.6716102957725525,0.3877888023853302
1776445011078737000,15.84073681640625,1.0322562456130981,0.9520828723907471,0.6410146951675415
1776445011103753700,15.865753662109375,1.0339404344558716,0.9275119304656982,0.3084704875946045
1776445011128770800,15.890770751953125,0.9855425953865051,0.3570176362991333,-0.18259412050247192
1776445011153788000,15.915787841796876,0.7728182077407837,0.0719609186053276,-0.20573002099990845
1776445011178805000,15.940804931640624,0.4514734148979187,0.23939840495586395,-0.02582429349422455
1776445011203822800,15.96582275390625,0.5198329091072083,0.151267871260643,-0.10459107160568237
1776445011228840000,15.99083984375,1.2711609601974487,-0.29774266481399536,-0.24055804312229156
1776445011253856800,16.015856689453123,1.663970708847046,-0.163173645734787,-0.3322822153568268
1776445011278873600,16.04087353515625,1.5859577655792236,-0.07752057909965515,-0.3091394603252411
1776445011303890700,16.065890625,1.2419383525848389,-0.3777986168861389,-0.3142252564430237
1776445011328907800,16.09090771484375,1.0486172437667847,-0.17866960167884827,-0.23195122182369232
1776445011353924900,16.1159248046875,1.570321798324585,0.13683128356933594,-0.21588556468486786
1776445011378941700,16.140941650390626,2.259976625442505,0.47315579652786255,-0.28145602345466614
1776445011403958800,16.165958740234377,2.911440134048462,1.0344836711883545,-0.299284428358078
1776445011428975900,16.190975830078123,3.0854642391204834,1.0618174076080322,-0.4942639470100403
1776445011453993000,16.215992919921874,2.800642728805542,0.8710804581642151,-0.6649712324142456
1776445011479009800,16.241009765625,2.4056239128112793,0.4726972281932831,-0.7859520316123962
1776445011504027000,16.26602685546875,1.9590563774108887,0.29500147700309753,-0.7730228900909424
1776445011529043700,16.291043701171876,1.550811529159546,0.31778571009635925,-0.8292450904846191
1776445011554060800,16.316060791015627,1.2953274250030518,-0.0719575360417366,-0.7678328156471252
1776445011579081700,16.341081787109374,1.3837158679962158,-0.7055688500404358,-0.566118597984314
1776445011604098800,16.366098876953124,2.048595905303955,-0.425744891166687,-0.17281106114387512
1776445011629116000,16.391115966796875,2.426157236099243,-0.565951406955719,0.010080641135573387
1776445011654132700,16.4161328125,2.2263965606689453,-0.6454160809516907,-0.08466489613056183
1776445011679149800,16.44114990234375,2.0529775619506836,-0.6019246578216553,-0.22327107191085815
1776445011704167000,16.4661669921875,1.7863832712173462,-0.5944766998291016,-0.21438755095005035
1776445011729184000,16.49118408203125,1.3686987161636353,-0.5690141320228577,-0.18905214965343475
1776445011754200800,16.516200927734374,1.1557248830795288,-0.22183367609977722,-0.07214092463254929
1776445011779218000,16.541218017578124,1.2293035984039307,-0.1384868323802948,-0.03752630203962326
1776445011804234800,16.56623486328125,1.441294550895691,-0.21319511532783508,-0.16617345809936523
1776445011829251800,16.591251953125,1.7390395402908325,0.05635909363627434,-0.22133128345012665
1776445011854268700,16.6162685546875,2.003467321395874,0.11644439399242401,-0.2275160402059555
1776445011879285800,16.64128564453125,2.056981086730957,-0.08972672373056412,-0.16630494594573975
1776445011904302800,16.666302734375,1.7815582752227783,-0.1916375756263733,-0.11263853311538696
1776445011929320000,16.69131982421875,1.7858991622924805,-0.16546043753623962,-0.1817857325077057
1776445011954336800,16.716336669921876,1.993908405303955,0.017333194613456726,-0.4196052849292755
1776445011979353900,16.741353759765627,1.8455702066421509,-0.4201246500015259,-0.3907187581062317
1776445012004371000,16.766370849609373,1.5014454126358032,-0.6408665776252747,-0.1700594574213028
1776445012029388000,16.791387939453124,1.3001505136489868,-0.29103073477745056,0.030670544132590294
1776445012054404900,16.81640478515625,1.290216326713562,-0.16250048577785492,-0.05505070835351944
1776445012079421700,16.841421630859376,1.2581568956375122,-0.1557164490222931,-0.009042834863066673
1776445012104438800,16.866438720703126,1.3437875509262085,-0.3930462896823883,0.07070694863796234
1776445012129455900,16.891455810546876,1.2675130367279053,-0.04097510129213333,0.2076483964920044
1776445012154472700,16.91647265625,1.0070676803588867,0.43238747119903564,0.23229588568210602
1776445012179489800,16.94148974609375,1.0004664659500122,-0.01126765925437212,0.03173042833805084
1776445012204507000,16.9665068359375,1.067676305770874,-0.35164350271224976,-0.0800398662686348
1776445012229524000,16.99152392578125,1.2008804082870483,-0.6713168025016785,-0.0482587032020092
1776445012254540800,17.016540771484376,1.1999270915985107,-1.1707175970077515,-0.04548756778240204
1776445012279558000,17.041557861328126,1.1259329319000244,-1.2388520240783691,-0.055241186171770096
1776445012304575000,17.066574951171877,1.0989848375320435,-0.5676172971725464,0.16173946857452393
1776445012329591800,17.091591796875,1.3310645818710327,-0.03280327096581459,0.3826978802680969
1776445012354609000,17.11660888671875,1.5907680988311768,0.25022387504577637,0.6137011647224426
1776445012379625700,17.141625732421875,1.8696404695510864,0.16218021512031555,0.780170738697052
1776445012404642800,17.166642822265626,2.625966787338257,-0.22360087931156158,0.6514556407928467
1776445012429660000,17.191659912109376,2.7282819747924805,-0.2206926941871643,0.17327719926834106
1776445012454677000,17.216677001953126,2.6757688522338867,0.03603622689843178,-0.0658218115568161
1776445012479693800,17.24169384765625,2.9161489009857178,-0.06590380519628525,-0.11525760591030121
1776445012504711000,17.2667109375,2.862633228302002,-0.17302395403385162,-0.022552842274308205
1776445012529728000,17.29172802734375,2.2606401443481445,-0.19873878359794617,0.1491222381591797
1776445012554744800,17.316744873046876,1.9366488456726074,0.019051630049943924,0.49655643105506897
1776445012579757800,17.3417578125,1.9661476612091064,0.369500070810318,0.553432822227478
1776445012604775000,17.36677490234375,1.9152477979660034,0.1489485502243042,0.004424517508596182
1776445012629792000,17.3917919921875,2.003136396408081,-0.03060385026037693,-0.0849943533539772
1776445012654808800,17.416808837890624,2.113497495651245,0.004154831171035767,0.2213171273469925
1776445012679825700,17.44182568359375,2.0954389572143555,0.40569111704826355,-0.025004593655467033
1776445012704842800,17.4668427734375,1.8276780843734741,0.17784689366817474,-0.5091100335121155
1776445012729859800,17.49185986328125,1.3548437356948853,-0.1660636067390442,-0.48351600766181946
1776445012754877000,17.516876953125,1.1355137825012207,0.3975885510444641,-0.23990029096603394
1776445012779893800,17.541893798828124,1.0740300416946411,0.3562827408313751,-0.43013012409210205
1776445012804910800,17.566910888671874,0.8862444758415222,0.0376359224319458,-0.6166305541992188
1776445012829928000,17.591927978515624,0.7492357492446899,-0.3547988831996918,-0.4701385796070099
1776445012854945000,17.616945068359374,0.664552628993988,-0.27904847264289856,-0.2633253037929535
1776445012879961900,17.6419619140625,0.6703423857688904,-0.29765111207962036,-0.443771630525589
1776445012904978700,17.666978759765627,1.012984037399292,0.3274160325527191,-0.8544801473617554
1776445012929995800,17.691995849609373,0.9660522937774658,0.2884332537651062,-1.0194226503372192
1776445012955012900,17.717012939453124,0.7471105456352234,-0.07185087352991104,-0.11538215726613998
1776445012980029700,17.74202978515625,0.9521175026893616,0.3148461580276489,0.750464141368866
1776445013005046800,17.767046875,1.4775818586349487,0.7103639841079712,1.048238754272461
1776445013030063900,17.79206396484375,2.257493734359741,0.4249853193759918,1.289780616760254
1776445013055081000,17.8170810546875,2.8756377696990967,0.3042934238910675,1.2357017993927002
1776445013080097800,17.842097900390623,3.291186809539795,-0.11660628765821457,0.7983570694923401
1776445013105115000,17.867114990234374,3.5002281665802,-0.0806046724319458,0.5026758909225464
1776445013130132000,17.892132080078124,3.36844801902771,-0.15748845040798187,0.4206291437149048
1776445013155148800,17.917148681640626,2.3837926387786865,-0.33951011300086975,0.575636625289917
1776445013180166000,17.942165771484376,1.5343466997146606,0.1267777681350708,0.3185281753540039
1776445013205182700,17.9671826171875,1.0459632873535156,0.10545352846384048,-0.2848065495491028
1776445013230199800,17.99219970703125,0.961482048034668,0.01624894142150879,-0.550625205039978
1776445013255217000,18.017216796875,1.2365763187408447,-0.2078096717596054,-0.6856093406677246
1776445013280234000,18.04223388671875,1.5589016675949097,-0.08564339578151703,-0.6322891712188721
1776445013305250800,18.067250732421876,1.8804548978805542,0.07034064829349518,-0.42157259583473206
1776445013330268000,18.092267822265626,2.176506280899048,0.3465416133403778,-0.2348162829875946
1776445013355285000,18.117284912109376,2.3137590885162354,0.4018903970718384,-0.07479393482208252
1776445013380302000,18.142302001953126,2.2932822704315186,0.47908180952072144,0.09178248047828674
1776445013405319000,18.16731884765625,2.134014129638672,0.41226881742477417,0.10571697354316711
1776445013430335700,18.192335693359375,1.844421625137329,0.43047359585762024,0.13737770915031433
1776445013455352800,18.217352783203125,1.6164532899856567,0.3800415098667145,0.26206138730049133
1776445013480370000,18.242369873046876,1.3406275510787964,-0.06317435950040817,0.20984657108783722
1776445013505386800,18.26738671875,1.0615164041519165,-0.21399912238121033,-0.03468204662203789
1776445013530403800,18.29240380859375,0.9895549416542053,-0.2694458067417145,-0.20389260351657867
1776445013555421000,18.3174208984375,1.1172466278076172,-0.17628349363803864,-0.12696532905101776
1776445013580441600,18.342441650390626,1.337470293045044,-0.18178875744342804,0.07089197635650635
1776445013605458700,18.367458740234376,1.5479505062103271,-0.021073706448078156,0.09005377441644669
1776445013630475800,18.392475830078126,1.8454129695892334,0.11503436416387558,0.06982265412807465
1776445013655492900,18.417492919921877,2.083174228668213,0.23914006352424622,0.2199021577835083
1776445013680509700,18.442509765625,1.9955742359161377,0.1824740469455719,0.3061788082122803
1776445013705526800,18.46752685546875,1.6490510702133179,-0.034531109035015106,0.15155452489852905
1776445013730543900,18.4925439453125,1.2532877922058105,-0.07135067880153656,-0.14297546446323395
1776445013755560700,18.517560791015626,0.7766779661178589,-0.24639123678207397,-0.2945748567581177
1776445013780577500,18.54257763671875,0.38902047276496887,-0.4097527265548706,-0.2037518322467804
1776445013805594600,18.5675947265625,0.3637489080429077,-0.11803626269102097,-0.16140934824943542
1776445013830611700,18.59261181640625,0.672986626625061,-0.1330755650997162,-0.2488478273153305
1776445013855628800,18.61762890625,0.9153364896774292,-0.29557034373283386,-0.3778877258300781
1776445013880645600,18.642645751953125,0.8270046710968018,-0.13321112096309662,-0.46431058645248413
1776445013905662700,18.667662841796876,0.8333094716072083,0.3807942271232605,-0.48316511511802673
1776445013930679800,18.6926796875,1.1503313779830933,-0.1856163740158081,-0.25403958559036255
1776445013955697000,18.71769677734375,1.6519509553909302,-0.2898388206958771,-0.003323094453662634
1776445013980713700,18.742713623046875,2.227586507797241,0.09321634471416473,-0.06896021962165833
1776445014005730600,18.76773046875,2.2171425819396973,-0.09765636175870895,-0.4182009696960449
1776445014030747600,18.79274755859375,1.4203318357467651,-0.6661735773086548,-0.679395318031311
1776445014055764700,18.8177646484375,0.6398744583129883,-0.6385297179222107,-0.7076689004898071
1776445014080781800,18.84278173828125,0.9120706915855408,-0.41524410247802734,-0.6372473835945129
1776445014105798700,18.867798583984374,1.5788179636001587,-0.6641547083854675,-0.8772188425064087
1776445014130815700,18.892815673828125,1.3409490585327148,-1.3697589635849,-0.9486550092697144
1776445014155832800,18.917832763671875,1.1742502450942993,-1.3748095035552979,-0.20635230839252472
1776445014180849700,18.942849609375,0.8742040991783142,0.05806874483823776,0.23875023424625397
1776445014205866800,18.96786669921875,0.5904211401939392,1.164024829864502,0.8573204278945923
1776445014230883800,18.9928837890625,0.5796567797660828,0.8541021943092346,1.0127960443496704
1776445014255900700,19.017900634765624,1.0701475143432617,0.46767348051071167,1.6947911977767944
1776445014280917800,19.042917724609374,1.7900149822235107,0.03813342750072479,1.8296427726745605
1776445014305935600,19.067935546875,1.5809491872787476,-1.2875146865844727,0.9212182760238647
1776445014330951700,19.09295166015625,0.9661213159561157,-1.6635291576385498,0.7569371461868286
1776445014355968800,19.11796875,1.220596194267273,-1.0613220930099487,0.693763792514801
1776445014380985900,19.14298583984375,2.019198179244995,-0.2089647352695465,0.4876973032951355
1776445014406002700,19.168002685546874,2.6261022090911865,0.42528584599494934,0.361240416765213
1776445014431020800,19.193020751953124,3.219367027282715,0.5498316287994385,0.12438727170228958
1776445014456036900,19.218036865234374,3.5080068111419678,0.3475915789604187,0.01792655885219574
1776445014481054000,19.243053955078125,3.2140064239501953,0.023505868390202522,0.14443357288837433
1776445014506070800,19.26807080078125,3.0831151008605957,-0.1852823942899704,0.273171067237854
1776445014531089000,19.2930888671875,3.0665149688720703,0.024071093648672104,0.24494315683841705
1776445014556104700,19.318104736328124,2.8345510959625244,0.07139743864536285,0.010955141857266426
1776445014581118700,19.34311865234375,2.419975757598877,-0.18610011041164398,-0.20208559930324554
1776445014606135800,19.3681357421875,1.9409717321395874,0.024558881297707558,-0.11061364412307739
1776445014631153000,19.39315283203125,2.109312057495117,0.7501283884048462,0.10138846188783646
1776445014656170000,19.418169921875,1.9915802478790283,1.103949785232544,-0.03745288401842117
1776445014681186600,19.4431865234375,1.520532488822937,0.813004732131958,-0.3975650370121002
1776445014706203600,19.46820361328125,1.2971359491348267,0.35124826431274414,-0.48524078726768494
1776445014731221800,19.4932216796875,1.2947673797607422,0.481941282749176,-0.1979614794254303
1776445014756237800,19.51823779296875,1.0409860610961914,0.49543869495391846,-0.18211497366428375
1776445014781254700,19.543254638671876,0.8485711216926575,0.3094906210899353,-0.42550966143608093
1776445014806271700,19.568271728515626,0.9468069672584534,0.18629764020442963,-0.3287370800971985
1776445014831288800,19.593288818359376,0.9580520391464233,0.3668588399887085,-0.012038161978125572
1776445014856306000,19.618305908203126,1.0279841423034668,-0.16273809969425201,-0.22558948397636414
1776445014881322800,19.64332275390625,1.071608543395996,-0.3376404941082001,-0.4210415184497833
1776445014906339800,19.66833984375,1.3816587924957275,-0.5221384167671204,-0.30774828791618347
1776445014931356700,19.693356689453125,1.2966554164886475,-0.433472216129303,-0.15256305038928986
1776445014956373800,19.718373779296876,1.6229588985443115,-0.9167248606681824,-0.26193520426750183
1776445014981390600,19.743390625,1.8480733633041382,-0.29081353545188904,-0.357553631067276
1776445015006407700,19.76840771484375,0.9675322771072388,0.05837791785597801,-0.34094876050949097
1776445015031424800,19.7934248046875,0.5843871831893921,0.24694405496120453,0.13709844648838043
1776445015056441900,19.81844189453125,0.8032041788101196,0.08702966570854187,0.7903947830200195
1776445015081458700,19.843458740234375,1.07285475730896,0.08681122213602066,1.02676260471344
1776445015106475800,19.868475830078125,1.192530632019043,0.459420382976532,0.7164409160614014
1776445015131492900,19.893492919921876,1.554337739944458,0.9973750114440918,0.598320484161377
1776445015156510000,19.918510009765626,2.1503024101257324,1.0398168563842773,0.6648024916648865
1776445015181526800,19.94352685546875,2.5498206615448,1.5166571140289307,0.8155806660652161
1776445015206543600,19.968543701171875,2.06366229057312,1.5390912294387817,0.5723004341125488
1776445015231560700,19.993560791015625,1.2845999002456665,1.7632845640182495,0.2320713847875595
1776445015256577800,20.018577880859375,0.25909143686294556,1.3197216987609863,-0.19677317142486572
1776445015281595000,20.043594970703126,-0.4778214395046234,0.2674557864665985,-0.3802681863307953
1776445015306611700,20.06861181640625,-0.3023611307144165,-0.8305226564407349,-0.6938172578811646
1776445015331628800,20.09362890625,0.8477020859718323,-0.6654942631721497,-0.724425196647644
1776445015356646000,20.11864599609375,2.0658037662506104,-0.16919223964214325,-0.47363463044166565
1776445015381662700,20.143662841796875,2.621062755584717,0.00202312134206295,-0.2209937423467636
1776445015406679800,20.1686796875,2.7416622638702393,0.12920689582824707,-0.07113843411207199
1776445015431697000,20.19369677734375,2.4714534282684326,0.45835036039352417,-0.2127649039030075
1776445015456713700,20.218713623046874,2.4098944664001465,0.6839438676834106,-0.4459560811519623
1776445015481730800,20.243730712890624,3.1048007011413574,0.8305450677871704,-0.48985469341278076
1776445015506747600,20.26874755859375,3.3937699794769287,-0.2616496980190277,-0.5948532819747925
1776445015531764700,20.2937646484375,3.1151840686798096,-0.5301967263221741,-0.5106483697891235
1776445015556781800,20.31878173828125,2.393770694732666,-0.46806085109710693,-0.5210456848144531
1776445015581803000,20.343802978515626,1.7123887538909912,-0.6514643430709839,-0.7170214056968689
1776445015606819800,20.36881982421875,1.3079379796981812,-1.0634822845458984,-0.8744531869888306
1776445015631837000,20.3938369140625,1.2314889430999756,-0.5194939374923706,-0.7111011147499084
1776445015656854000,20.41885400390625,1.2928436994552612,-0.09590347856283188,-0.40789151191711426
1776445015681870800,20.443870849609375,1.470255732536316,-0.12484274804592133,-0.1878378689289093
1776445015706888000,20.468887939453126,1.7823185920715332,-0.18052588403224945,-0.18669873476028442
1776445015731905000,20.493905029296876,2.1431007385253906,-0.08724026381969452,-0.1734798550605774
1776445015756922000,20.518922119140626,2.33349609375,0.0021721255034208298,-0.04142225161194801
1776445015781939000,20.54393896484375,2.298921823501587,-0.32128846645355225,0.1340344101190567
1776445015806956000,20.5689560546875,2.062971353530884,-0.829309344291687,0.2248723953962326
1776445015831973000,20.59397314453125,1.988784670829773,-0.5965428352355957,-0.061029184609651566
1776445015856990200,20.618990234375,1.9106557369232178,-0.0006884327158331871,-0.3532874584197998
1776445015882006800,20.6440068359375,2.0580687522888184,-0.9568096399307251,-0.5643255710601807
1776445015907024000,20.66902392578125,2.4178409576416016,-1.3040047883987427,-0.7522470951080322
1776445015932041000,20.694041015625,2.352140426635742,-0.9080196022987366,-0.937371551990509
1776445015957058000,20.71905810546875,1.9924896955490112,-0.7628637552261353,-1.0748364925384521
1776445015982075000,20.744074951171875,1.5933854579925537,-0.8391252160072327,-1.0445224046707153
1776445016007092000,20.769092041015625,1.3500218391418457,-0.5534688830375671,-0.9276642203330994
1776445016032109000,20.794109130859376,1.3911305665969849,-0.5908069014549255,-0.9838732481002808
1776445016057126100,20.819126220703126,1.612607717514038,-0.24461695551872253,-0.8945025205612183
1776445016082143000,20.84414306640625,1.8309272527694702,0.9643717408180237,-0.47863972187042236
1776445016107160000,20.86916015625,2.082310199737549,1.48139226436615,0.11175329983234406
1776445016132177000,20.894177001953125,2.2332394123077393,0.9204071760177612,0.5324114561080933
1776445016157194000,20.919194091796875,2.1897454261779785,0.12491603195667267,0.78658127784729
1776445016182210800,20.9442109375,2.0336225032806396,-0.6823309659957886,0.7402910590171814
1776445016207228000,20.969227783203124,1.8514578342437744,-1.3462390899658203,0.326895147562027
1776445016232245000,20.994244873046874,1.4637800455093384,-1.1998835802078247,0.09736166894435883
1776445016257262000,21.019261962890624,1.3476060628890991,-0.2900095582008362,0.4508179724216461
1776445016282279000,21.04427880859375,1.4764764308929443,0.26536792516708374,0.7987837195396423
1776445016307296000,21.0692958984375,2.0733001232147217,0.6912373900413513,0.9111327528953552
1776445016332313000,21.09431298828125,2.2687833309173584,0.30633819103240967,0.4172273278236389
1776445016357330200,21.119330078125,2.3124918937683105,-0.1997455507516861,0.19776715338230133
1776445016382346800,21.1443466796875,2.1076290607452393,-0.040992263704538345,0.05699344351887703
1776445016407363800,21.16936376953125,1.6651049852371216,-1.1867918968200684,-0.48429709672927856
1776445016432381000,21.194380859375,1.8146497011184692,-0.037621937692165375,0.31200850009918213
1776445016457398000,21.21939794921875,1.8862500190734863,-0.6680231094360352,0.3924713730812073
1776445016482414800,21.244414794921877,1.8397088050842285,-0.10950092226266861,0.6458879709243774
1776445016507432000,21.269431884765623,1.654176950454712,0.5696143507957458,1.0416088104248047
1776445016532449000,21.294448974609374,1.7442257404327393,0.9662050008773804,0.9754531383514404
1776445016557466000,21.319466064453124,2.0023295879364014,1.0930547714233398,0.43482035398483276
1776445016582477300,21.344477294921877,2.0396273136138916,0.858988881111145,-0.12021403759717941
1776445016607494400,21.369494384765623,2.0907528400421143,0.16183911263942719,-0.018524326384067535
1776445016632511500,21.394511474609374,1.7689789533615112,-0.23460085690021515,-0.034176453948020935
1776445016657528300,21.4195283203125,1.1821850538253784,-0.19799120724201202,-0.39071255922317505
1776445016682545400,21.44454541015625,0.8181207776069641,-0.49589934945106506,-0.5079691410064697
1776445016707562500,21.4695625,0.8645114302635193,-0.8005334734916687,-0.42560359835624695
1776445016732579600,21.49457958984375,1.1789982318878174,-0.4869948625564575,-0.37785977125167847
1776445016757596200,21.51959619140625,1.4821871519088745,0.3639095723628998,-0.3933524787425995
1776445016782613200,21.54461328125,1.4573882818222046,0.04737083986401558,-0.32982826232910156
1776445016807630300,21.56963037109375,0.6729166507720947,-2.0338940620422363,-0.9100339412689209
1776445016832647400,21.5946474609375,0.59192955493927,-0.20234942436218262,-0.13124611973762512
1776445016857664300,21.619664306640626,1.187700867652893,1.0896037817001343,0.5527700781822205
1776445016882681300,21.644681396484376,1.6879150867462158,1.1175528764724731,0.5088101625442505
1776445016907698400,21.669698486328127,1.9688867330551147,0.3996768593788147,0.1628899872303009
1776445016932715500,21.694715576171873,2.3672873973846436,0.10301239788532257,-0.22519101202487946
1776445016957732400,21.719732421875,3.1897456645965576,-0.687126100063324,-0.7792773842811584
1776445016982749400,21.74474951171875,3.731093406677246,-0.8669760823249817,-0.7316622734069824
1776445017007766300,21.769766357421876,3.9081647396087646,-0.2805192172527313,-0.6184625625610352
1776445017032783400,21.794783447265626,3.887430429458618,-0.012520363554358482,-0.5841020941734314
1776445017057800200,21.81980029296875,3.6609573364257812,0.2150898575782776,-0.4376663863658905
1776445017082817300,21.8448173828125,3.24493145942688,0.24628832936286926,-0.24448294937610626
1776445017107834400,21.86983447265625,2.8111839294433594,0.053055718541145325,-0.18739628791809082
1776445017132851500,21.8948515625,2.562689781188965,0.4440009891986847,-0.015183193609118462
1776445017157868300,21.919868408203126,2.512866258621216,0.4916972517967224,0.17075029015541077
1776445017182885400,21.944885498046876,2.474303960800171,0.6381857991218567,0.3475453853607178
1776445017207902500,21.96990234375,2.515777349472046,0.477827250957489,0.4710524380207062
1776445017232919600,21.99491943359375,2.6088738441467285,0.06119881942868233,0.6410343050956726
1776445017257935400,22.019935302734375,2.461811065673828,-0.2569115459918976,0.9209840297698975
1776445017282952200,22.0449521484375,2.30085825920105,-0.7961680889129639,1.0939146280288696
1776445017307969300,22.06996923828125,2.4081573486328125,-1.270708680152893,0.9657647013664246
1776445017332986400,22.094986328125,2.4991118907928467,-1.3655402660369873,0.8068172931671143
1776445017358003500,22.12000341796875,2.6965253353118896,-0.811558187007904,0.8594825863838196
1776445017383020300,22.145020263671874,2.688035726547241,-0.5223045349121094,0.603206217288971
1776445017408037400,22.170037353515625,2.442251682281494,-0.31876760721206665,0.11642815172672272
1776445017433054500,22.195054443359375,2.0052835941314697,0.5790854096412659,-0.019376397132873535
1776445017458071600,22.220071533203125,1.5265910625457764,0.5248465538024902,0.16251437366008759
1776445017483088100,22.245088134765624,1.0807563066482544,0.44550415873527527,0.45742276310920715
1776445017508105200,22.270105224609374,0.8590579628944397,0.20704364776611328,0.409781277179718
1776445017533122300,22.295122314453124,0.7786991000175476,0.17281220853328705,0.23030108213424683
1776445017558139400,22.320139404296874,0.879714846611023,-0.0524105504155159,-0.016233893111348152
1776445017583157200,22.3451572265625,1.0941447019577026,-0.22509755194187164,-0.2095796763896942
1776445017608174300,22.37017431640625,1.3690459728240967,0.0950254574418068,-0.33032849431037903
1776445017633191400,22.39519140625,1.5209696292877197,0.35325875878334045,-0.43054744601249695
1776445017658208300,22.420208251953124,1.6429784297943115,0.25133389234542847,-0.4975040853023529
1776445017683225300,22.445225341796874,1.684658169746399,0.3210257589817047,-0.5225781202316284
1776445017708242200,22.4702421875,1.8147642612457275,0.6417383551597595,-0.478859007358551
1776445017733259300,22.49525927734375,2.308011770248413,0.21426667273044586,-0.06424807012081146
1776445017758276400,22.5202763671875,2.17694354057312,0.1302875280380249,0.16803033649921417
1776445017783293200,22.545293212890623,2.167790174484253,0.5516531467437744,0.01209023967385292
1776445017808310300,22.570310302734374,2.004253625869751,0.9073883891105652,-0.38162314891815186
1776445017833327400,22.595327392578124,1.670008897781372,1.1636813879013062,-0.6103832125663757
1776445017858344200,22.62034423828125,1.762022614479065,1.116327166557312,-1.0046069622039795
1776445017883361300,22.645361328125,2.005547046661377,0.8836485147476196,-1.4227211475372314
1776445017908378400,22.67037841796875,1.6689358949661255,-0.2762925326824188,-1.1537725925445557
1776445017933395500,22.6953955078125,1.8472483158111572,-1.7734469175338745,-0.3950228691101074
1776445017958412300,22.720412353515623,1.8090529441833496,-1.2419931888580322,0.3775169849395752
1776445017983429000,22.74542919921875,1.8303824663162231,-0.6907964944839478,0.6979479789733887
1776445018008446200,22.7704462890625,1.8703809976577759,-0.8369577527046204,0.5770894885063171
1776445018033463300,22.79546337890625,1.6183419227600098,-1.5053929090499878,0.4745407700538635
1776445018058480400,22.82048046875,1.174709439277649,-1.1689038276672363,0.7187730669975281
1776445018083497200,22.845497314453127,0.9427759051322937,-0.4533786177635193,0.6675590872764587
1776445018108514300,22.870514404296873,1.088633418083191,-0.2400689274072647,0.4230268597602844
1776445018133531400,22.895531494140624,1.4616024494171143,-0.9800689816474915,0.2100447118282318
1776445018158548500,22.920548583984374,1.608603596687317,-1.2819807529449463,0.4199792742729187
1776445018183565300,22.9455654296875,1.5487691164016724,-1.2665578126907349,0.846886932849884
1776445018208582100,22.97058203125,1.560585618019104,-1.1882495880126953,0.8911280035972595
1776445018233599200,22.99559912109375,1.4750443696975708,-1.3069547414779663,0.7314333915710449
1776445018258616300,23.0206162109375,1.28559410572052,-1.6364234685897827,0.6875458359718323
1776445018283633200,23.045633056640625,1.0558176040649414,-2.391411304473877,0.6984069347381592
1776445018308650200,23.070650146484375,1.0819473266601562,-2.4392216205596924,0.7682317495346069
1776445018333667300,23.095667236328126,1.0895026922225952,-2.041350841522217,0.4973967373371124
1776445018358684400,23.120684326171876,1.3377885818481445,-1.1879172325134277,0.5315049886703491
1776445018383701200,23.145701171875,1.5350582599639893,-1.3120956420898438,0.592817485332489
1776445018408718300,23.17071826171875,1.2280153036117554,-1.9591636657714844,0.5612857341766357
1776445018433735400,23.1957353515625,0.9091812968254089,-1.906521201133728,0.4511958956718445
1776445018458752500,23.22075244140625,0.6210323572158813,-1.5038414001464844,0.4626834988594055
1776445018483769000,23.24576904296875,0.8888574838638306,-1.0898950099945068,0.7108637690544128
1776445018508786200,23.2707861328125,1.3041625022888184,-1.3586835861206055,0.7103264331817627
1776445018533803300,23.29580322265625,1.2536773681640625,-1.7640999555587769,0.6696466207504272
1776445018558819300,23.3208193359375,1.0768948793411255,-1.9542906284332275,0.5012202858924866
1776445018583836400,23.34583642578125,0.9407840967178345,-1.8556126356124878,0.36321794986724854
1776445018608853200,23.370853271484375,0.6125356554985046,-1.9521245956420898,0.5003256797790527
1776445018633870300,23.395870361328125,0.3517110049724579,-1.8731712102890015,0.778459906578064
1776445018658887400,23.420887451171875,0.44328224658966064,-1.5108236074447632,0.8974690437316895
1776445018683904500,23.445904541015626,0.425285279750824,-1.4927735328674316,0.7774860858917236
1776445018708921300,23.47092138671875,0.3515070080757141,-1.3729281425476074,0.68769770860672
1776445018733938400,23.4959384765625,0.4619704782962799,-1.026890516281128,0.6229012608528137
1776445018758955500,23.52095556640625,0.4051552414894104,-0.5590900778770447,0.4381372332572937
1776445018783972600,23.54597265625,0.21519887447357178,-0.4129617214202881,0.1318424493074417
1776445018808989200,23.5709892578125,0.008972308598458767,-0.3739614486694336,0.08379965275526047
1776445018834006300,23.59600634765625,0.1470121592283249,-0.23823921382427216,0.1774558573961258
1776445018859023400,23.6210234375,0.27360838651657104,-0.20707948505878448,0.16417449712753296
1776445018884040400,23.64604052734375,0.10930052399635315,-0.2753649353981018,0.12080127745866776
1776445018909057300,23.671057373046875,0.03462916240096092,-0.1630810797214508,0.15613165497779846
1776445018934074400,23.696074462890625,0.19948861002922058,-0.21311607956886292,0.20533041656017303
1776445018959091500,23.721091552734375,0.3214123845100403,-0.332001268863678,0.31504377722740173
1776445018984108500,23.746108642578125,0.5146214962005615,-0.30065593123435974,0.4230484068393707
1776445019009125400,23.77112548828125,0.6364456415176392,-0.28946125507354736,0.5156580209732056
1776445019034142500,23.796142578125,0.6029290556907654,-0.23163394629955292,0.5754200220108032
1776445019059159600,23.82115966796875,0.44608044624328613,-0.1799526810646057,0.6791831254959106
1776445019084176400,23.84617626953125,0.2511223256587982,-0.28004664182662964,0.7374858260154724
1776445019109193200,23.871193115234377,0.18279962241649628,-0.34090450406074524,0.6413355469703674
1776445019134210300,23.896210205078123,0.138961061835289,-0.2974322736263275,0.5667849779129028
1776445019159227400,23.921227294921874,-0.07480892539024353,-0.3087137043476105,0.5427786111831665
1776445019184244500,23.946244384765624,-0.40425771474838257,-0.45466282963752747,0.5525090098381042
1776445019209261300,23.97126123046875,-0.512178361415863,-0.49191316962242126,0.5014790892601013
1776445019234278400,23.9962783203125,-0.41920706629753113,-0.4331580102443695,0.5354068875312805
1776445019259295500,24.02129541015625,-0.026559682562947273,-0.31006258726119995,0.7451076507568359
1776445019284312600,24.0463125,0.23783065378665924,-0.5937854051589966,0.7744619846343994
1776445019309329400,24.071329345703123,-0.08886868506669998,-0.7611911296844482,0.5773531794548035
1776445019334346200,24.09634619140625,-0.4473740756511688,-0.37094369530677795,0.36455845832824707
1776445019359363300,24.12136328125,-0.4294694662094116,-0.18397952616214752,0.3267473578453064
1776445019384380400,24.14638037109375,-0.3104049861431122,-0.5272710919380188,0.25804242491722107
1776445019409397200,24.171397216796876,-0.1375436931848526,-1.051055669784546,0.4666884243488312
1776445019434414300,24.196414306640627,0.2912593185901642,-0.8537435531616211,1.1715906858444214
1776445019459431400,24.221431396484373,0.603543221950531,-0.46780461072921753,1.5279450416564941
1776445019484448500,24.246448486328124,0.6086999773979187,-0.6268724799156189,1.4484649896621704
1776445019509465300,24.27146533203125,0.4508805572986603,-1.008846402168274,1.3107140064239502
1776445019534482400,24.296482421875,0.05815138667821884,-0.6857794523239136,1.5151023864746094
1776445019559499500,24.32149951171875,-0.49988478422164917,-0.2665085196495056,1.622593641281128
1776445019584516400,24.346516357421876,-0.7404295206069946,0.24391013383865356,2.044154405593872
1776445019609533000,24.371532958984375,-0.5669965147972107,0.37672311067581177,2.623540163040161
1776445019634549500,24.396549560546877,-0.14301668107509613,0.4068327248096466,3.052161455154419
1776445019659566600,24.421566650390623,0.14954861998558044,0.5290667414665222,2.8820505142211914
1776445019684583700,24.446583740234374,0.7402525544166565,0.5974293947219849,2.0416994094848633
1776445019709600800,24.471600830078124,1.4924236536026,0.6605787873268127,2.046827554702759
1776445019734617600,24.49661767578125,2.191051721572876,0.7552967071533203,2.193225860595703
1776445019759634700,24.521634765625,2.467905044555664,0.08600442111492157,1.907625436782837
1776445019784651800,24.54665185546875,2.256862163543701,-0.39252546429634094,1.5948692560195923
1776445019809668900,24.5716689453125,1.7736846208572388,-0.22382380068302155,1.0280122756958008
1776445019834685700,24.596685791015624,1.3787741661071777,-0.07559069246053696,0.6464710235595703
1776445019859702800,24.621702880859374,1.1774288415908813,-0.17551803588867188,0.37370848655700684
1776445019884719900,24.646719970703124,0.6230899095535278,-0.7343630790710449,0.2075585424900055
1776445019909736700,24.67173681640625,-0.11801154911518097,-0.90919029712677,0.3179495930671692
1776445019934753500,24.69675341796875,-0.517678439617157,-0.8227102160453796,0.366166353225708
1776445019959770600,24.7217705078125,-0.49084746837615967,-0.5797566175460815,0.6780598759651184
1776445019984786700,24.74678662109375,-0.3374730050563812,0.14795251190662384,0.6487292647361755
1776445020009803800,24.7718037109375,-0.5888496041297913,-0.21377646923065186,0.7148375511169434
1776445020034820900,24.79682080078125,-0.6374250650405884,-0.8541480302810669,0.7021307349205017
1776445020059837700,24.821837646484376,-0.18696856498718262,0.03978002816438675,1.2189030647277832
1776445020084854800,24.846854736328126,0.18903514742851257,0.9913811087608337,1.39665687084198
1776445020109871600,24.87187158203125,0.13598604500293732,0.7240387797355652,1.5954338312149048
1776445020134888700,24.896888671875,0.056062761694192886,1.5652827024459839,1.1492881774902344
1776445020159905800,24.92190576171875,0.2957603931427002,-0.48864221572875977,0.6323820352554321
1776445020184922600,24.946922607421875,0.43895047903060913,-0.6421118378639221,0.049945227801799774
1776445020209939700,24.971939697265626,0.45963311195373535,0.1725175678730011,-0.5696330666542053
1776445020234956800,24.996956787109376,0.4725990891456604,0.729099452495575,-1.1116101741790771
1776445020259974000,25.021973876953126,0.8923782110214233,0.6229298710823059,0.15159200131893158
1776445020284990700,25.04699072265625,1.3231327533721924,-0.914547324180603,0.6439454555511475
1776445020310007800,25.0720078125,1.240229845046997,-1.6550589799880981,0.29119908809661865
1776445020335025000,25.09702490234375,0.7323242425918579,-1.363311767578125,0.06254377216100693
1776445020360041700,25.122041748046875,0.4262387156486511,0.12684868276119232,0.4186342656612396
1776445020385058600,25.14705859375,0.6708557605743408,0.8755812644958496,1.0037999153137207
1776445020410075600,25.17207568359375,0.47171980142593384,0.21321848034858704,1.3936777114868164
1776445020435092700,25.1970927734375,0.39018669724464417,-0.27935945987701416,1.438516616821289
1776445020460109800,25.22210986328125,0.16335514187812805,-0.48508724570274353,1.2773454189300537
1776445020485126700,25.247126708984375,0.04766717180609703,-0.6944898962974548,1.5103577375411987
1776445020510143700,25.272143798828125,0.4141691029071808,-0.8754298686981201,1.9669067859649658
1776445020535160800,25.297160888671876,0.8155195116996765,-0.47852760553359985,2.3314409255981445
1776445020560178000,25.322177978515626,0.9118595719337463,-0.37907499074935913,2.401843547821045
1776445020585194800,25.34719482421875,0.6121076941490173,-0.824650228023529,2.184260845184326
1776445020610212000,25.372212158203126,0.595440685749054,-0.9494959115982056,2.2540440559387207
1776445020635229200,25.397229248046877,0.982756495475769,-0.6544486880302429,2.576340675354004
1776445020660246000,25.42224609375,0.7813006043434143,-0.5233129262924194,2.0781407356262207
1776445020685263000,25.44726318359375,0.2236252874135971,-0.5287579894065857,1.7623673677444458
1776445020710280200,25.4722802734375,-0.01843438297510147,-0.6803070306777954,1.949187159538269
1776445020735297300,25.49729736328125,0.05790189281105995,-1.1177608966827393,1.8469668626785278
1776445020760314000,25.522314208984376,0.2611578404903412,-1.6831728219985962,1.2266286611557007
1776445020785331200,25.547331298828126,0.23747172951698303,-1.996767282485962,1.1913342475891113
1776445020810348000,25.57234814453125,0.0004553901089821011,-0.9820149540901184,1.7024953365325928
1776445020835365000,25.597365234375,-0.12972041964530945,-0.228334441781044,1.569162368774414
1776445020860381200,25.622381103515625,0.13312624394893646,-0.28400492668151855,1.0208404064178467
1776445020885398300,25.647398193359376,0.4309101104736328,-0.33095985651016235,0.9269958734512329
1776445020910415000,25.6724150390625,0.23475980758666992,-0.18328414857387543,1.3923207521438599
1776445020935432200,25.69743212890625,-0.024200957268476486,-0.5154731869697571,1.7364323139190674
1776445020960449300,25.72244921875,-0.11602783203125,-0.8708328008651733,2.0073165893554688
1776445020985466400,25.74746630859375,0.11507155746221542,-0.6417713165283203,2.30876088142395
1776445021010483200,25.772483154296875,0.10150507837533951,-0.2786204218864441,2.3302388191223145
1776445021035500000,25.7975,-0.06309467554092407,-0.250197172164917,2.1520211696624756
1776445021060517000,25.82251708984375,0.2716731131076813,-0.7301875352859497,1.8852648735046387
1776445021085534200,25.8475341796875,0.5247103571891785,-1.0319173336029053,1.9139472246170044
1776445021110551000,25.872551025390624,0.13879132270812988,-0.5991391539573669,2.1193227767944336
1776445021135568100,25.897568115234375,-0.014569759368896484,-0.8596279621124268,2.2100396156311035
1776445021160585200,25.922585205078125,-0.2679150104522705,-1.0776077508926392,2.5427889823913574
1776445021185602300,25.947602294921875,-0.4178157448768616,-0.20872169733047485,1.8266388177871704
1776445021210619100,25.972619140625,-0.06508166342973709,0.616524875164032,0.9780838489532471
1776445021235636200,25.99763623046875,-0.022360485047101974,0.4645390212535858,1.008013129234314
1776445021260653300,26.0226533203125,0.03228171914815903,-0.20424647629261017,1.1766597032546997
1776445021285670100,26.047670166015624,0.5910850167274475,0.22599013149738312,1.1477078199386597
1776445021310687000,26.07268701171875,0.7402158379554749,0.4445263147354126,1.0607813596725464
1776445021335704000,26.0977041015625,0.6091716885566711,0.4074572026729584,1.4796624183654785
1776445021360721200,26.12272119140625,0.49040353298187256,0.22310857474803925,1.5393673181533813
1776445021385738200,26.14773828125,0.28506699204444885,-0.2182423174381256,1.2782375812530518
1776445021410755000,26.172755126953124,0.32445016503334045,-0.2601049542427063,1.2094769477844238
1776445021435772200,26.197772216796874,0.4101908504962921,-0.7432838082313538,0.9416933655738831
1776445021460789200,26.222789306640625,0.3909473419189453,-0.6616060137748718,0.48881208896636963
1776445021485806300,26.247806396484375,0.24053598940372467,-0.41245415806770325,0.15968191623687744
1776445021510823200,26.2728232421875,0.0702454149723053,-0.479745477437973,-0.009089001454412937
1776445021535840000,26.297840087890624,0.3505345284938812,-0.24670206010341644,-0.2200263887643814
1776445021560857000,26.322857177734374,-0.28306707739830017,1.2218492031097412,-0.20429526269435883
1776445021585874200,26.347874267578124,-0.9515979886054993,0.9979336261749268,0.2357092797756195
1776445021610890800,26.372890869140626,-0.3869275450706482,1.0148122310638428,1.05083429813385
1776445021635906800,26.39790673828125,0.09261506050825119,1.0346046686172485,1.2988461256027222
1776445021660923600,26.422923583984375,0.19729970395565033,0.17820405960083008,1.5777703523635864
1776445021685940700,26.447940673828125,0.16002266108989716,-0.12336550652980804,1.4913438558578491
1776445021710957800,26.472957763671875,-0.034831609576940536,0.5786515474319458,1.0013364553451538
1776445021735975000,26.497974853515625,0.19285453855991364,0.33816099166870117,0.6114881038665771
1776445021760991700,26.52299169921875,0.792418897151947,-0.5877179503440857,0.1983104795217514
1776445021786008800,26.5480087890625,0.8236467242240906,-0.7332272529602051,-0.009992693550884724
1776445021811025700,26.573025634765624,0.9297981858253479,-1.0232330560684204,0.10370954126119614
1776445021836042800,26.598042724609375,-0.03227664902806282,1.5293115377426147,0.36732998490333557
1776445021861059600,26.6230595703125,0.31912291049957275,0.7114039659500122,-0.12520690262317657
1776445021886076700,26.64807666015625,0.28513985872268677,1.71757972240448,-0.3417793810367584
1776445021911093800,26.67309375,0.4517498016357422,0.6967660188674927,-0.34100624918937683
1776445021936110800,26.69811083984375,0.8166050910949707,-0.5799403786659241,-0.2216632217168808
1776445021961127700,26.723127685546874,0.8946214914321899,-1.305863857269287,0.07110510766506195
1776445021986144800,26.748144775390625,0.7966588139533997,-2.2283453941345215,0.5549089908599854
1776445022011161900,26.773161865234375,-0.2528423070907593,-1.2268638610839844,0.8712055087089539
1776445022036179000,26.798178955078125,-0.6573091745376587,-0.9313839077949524,0.7764183878898621
1776445022061195800,26.82319580078125,-0.5802715420722961,-0.5951048135757446,0.6938679218292236
1776445022086212600,26.848212646484374,0.01695355772972107,-0.41732650995254517,0.5474134087562561
1776445022111229700,26.873229736328124,0.3092789053916931,-0.9147933721542358,0.7332104444503784
1776445022136246800,26.898246826171874,1.0803630352020264,-2.215804100036621,1.1182568073272705
1776445022161263600,26.923263671875,1.9601019620895386,-2.8077828884124756,2.064486265182495
1776445022186280700,26.94828076171875,1.8833348751068115,-3.026198625564575,2.5005736351013184
1776445022211297800,26.9732978515625,1.7000203132629395,-0.9044710993766785,0.6818152666091919
1776445022236315000,26.99831494140625,0.9103837609291077,0.3953438103199005,-0.06379364430904388
1776445022261331700,27.023331787109374,1.1083184480667114,0.43567657470703125,-0.08498118072748184
1776445022286347500,27.048347412109376,1.6420032978057861,-0.05410085618495941,0.34807881712913513
1776445022311364600,27.073364501953126,1.5521647930145264,-0.639581024646759,0.914775550365448
1776445022336381700,27.098381591796876,1.172537922859192,-0.9966437220573425,1.5353339910507202
1776445022361398800,27.123398681640627,1.2247058153152466,-1.639143705368042,1.8492817878723145
1776445022386415600,27.14841552734375,0.30979886651039124,-1.5639839172363281,1.7136350870132446
1776445022411432700,27.1734326171875,-0.7023930549621582,-0.5897229909896851,1.2881673574447632
1776445022436449800,27.19844970703125,-0.7692223787307739,-0.23575276136398315,1.1515989303588867
1776445022461467000,27.223466796875,-0.6706152558326721,0.5456719994544983,0.8232048153877258
1776445022486483700,27.248483642578126,-0.7920225262641907,1.0683810710906982,0.4733754098415375
1776445022511500800,27.273500732421876,-0.6235595941543579,1.334235429763794,0.36397746205329895
1776445022536517600,27.298517578125,-0.08207637071609497,1.4979535341262817,0.43339475989341736
1776445022561534700,27.32353466796875,0.5224065184593201,0.809867262840271,0.8562021255493164
1776445022586551600,27.348551513671875,0.8729386925697327,-0.25485092401504517,1.224916934967041
1776445022611569200,27.373569091796874,0.7778258919715881,-0.32630789279937744,1.3895825147628784
1776445022636586200,27.398586181640624,0.07610442489385605,0.546244204044342,1.3555219173431396
1776445022661603300,27.423603271484374,-0.3996618986129761,1.2457220554351807,1.3061202764511108
1776445022686620000,27.448619873046876,-0.17026887834072113,0.5940486788749695,1.6981502771377563
1776445022711637000,27.473636962890627,0.47114259004592896,-0.48394662141799927,1.0263105630874634
1776445022736654000,27.498654052734373,0.44019514322280884,-0.7036421298980713,0.6759024262428284
1776445022761671200,27.523671142578124,0.0946168527007103,-0.7308914065361023,0.7365149855613708
1776445022786688000,27.54868798828125,0.18847888708114624,-0.3749099671840668,0.7747807502746582
1776445022811705000,27.573705078125,0.2428884506225586,-0.47356265783309937,0.7563568353652954
1776445022836722200,27.59872216796875,-0.0985831543803215,0.13658323884010315,1.1094202995300293
1776445022861739300,27.6237392578125,-0.38178175687789917,2.0985846519470215,1.6051132678985596
1776445022886756000,27.648756103515623,-0.4445120394229889,2.1228928565979004,1.7277799844741821
1776445022911772000,27.67377197265625,-0.43063676357269287,1.0809299945831299,1.7310400009155273
1776445022936789000,27.6987890625,0.522231936454773,-0.02548898011445999,1.2731852531433105
1776445022961806000,27.72380615234375,1.2539669275283813,-1.7092235088348389,0.7503506541252136
1776445022986823200,27.7488232421875,1.4870874881744385,-2.461319923400879,0.7685613632202148
1776445023011840000,27.773840087890626,1.4119930267333984,-1.4656364917755127,1.1830148696899414
1776445023036857000,27.798857177734376,1.1486929655075073,-0.3069418668746948,1.627041220664978
1776445023061874200,27.823874267578127,0.9615858197212219,0.07813180983066559,1.9860414266586304
1776445023086891300,27.848891357421873,0.7626610994338989,0.09221227467060089,2.4753823280334473
1776445023111908000,27.873908203125,0.7143480777740479,-0.3612960875034332,2.515732526779175
1776445023136925200,27.89892529296875,0.6115735769271851,-0.42905738949775696,1.9245346784591675
1776445023161942000,27.92394189453125,0.921019971370697,-1.0820765495300293,1.4612728357315063
1776445023186959000,27.948958984375,1.0605782270431519,-1.2313218116760254,2.022446632385254
1776445023211976000,27.973975830078125,1.036422848701477,-0.8006001114845276,2.713493585586548
1776445023236993000,27.998992919921875,0.9551709294319153,-0.5802704691886902,2.0303094387054443
1776445023262010000,28.024010009765625,0.7079404592514038,-1.2459272146224976,1.72871994972229
1776445023287027200,28.049027099609376,0.014663311652839184,-0.596427857875824,2.1964309215545654
1776445023312044000,28.0740439453125,-0.19229763746261597,0.20293745398521423,1.8915249109268188
1776445023337061000,28.09906103515625,0.2480538785457611,-0.49412718415260315,1.7002830505371094
1776445023362078200,28.124078125,0.5040030479431152,-1.0900629758834839,1.9539085626602173
1776445023387095300,28.14909521484375,0.610368013381958,-0.720422625541687,2.0612053871154785
1776445023412112000,28.17411181640625,0.8686420321464539,-0.10443257540464401,1.8839155435562134
1776445023437129000,28.19912890625,1.0551999807357788,-0.5103065967559814,1.6071805953979492
1776445023462146000,28.22414599609375,0.8477254509925842,-0.3083626925945282,1.9369736909866333
1776445023487163100,28.2491630859375,0.8754941821098328,0.9690139293670654,2.0703351497650146
1776445023512179200,28.27417919921875,1.0168875455856323,0.29823943972587585,1.7145403623580933
1776445023537196000,28.299196044921874,0.9161086082458496,-0.18768885731697083,1.4965609312057495
1776445023562213000,28.324213134765625,0.6572453379631042,0.7265247106552124,1.4610800743103027
1776445023587230200,28.349230224609375,0.5559664368629456,0.5536558032035828,1.2168338298797607
1776445023612246800,28.374246826171873,0.44789615273475647,-0.5580543875694275,0.8991556763648987
1776445023637263600,28.399263671875,0.4574735462665558,-0.41643017530441284,0.9095067977905273
1776445023662280400,28.424280517578126,0.5168759226799011,0.04804974049329758,1.0944868326187134
1776445023687297500,28.449297607421876,0.9209524989128113,0.09742908179759979,0.7979303002357483
1776445023712314600,28.474314697265626,0.9164979457855225,-0.9986957907676697,0.325541228055954
1776445023737331700,28.499331787109377,0.8058175444602966,-0.22011835873126984,0.6476446986198425
1776445023762348500,28.5243486328125,0.20427639782428741,0.8325088620185852,1.0821137428283691
1776445023787365600,28.54936572265625,-0.11404036730527878,1.128983736038208,0.8618659973144531
1776445023812382700,28.5743828125,-0.024872159585356712,1.0361577272415161,0.5323767066001892
1776445023837399800,28.59939990234375,0.3505935072898865,1.2507822513580322,0.6235576272010803
1776445023862416600,28.624416748046876,0.394171804189682,1.2901958227157593,1.0378910303115845
1776445023887433700,28.649433837890626,0.4512297809123993,1.2998266220092773,1.278783917427063
1776445023912450600,28.674450439453125,0.3048045337200165,0.9643877148628235,1.4264097213745117
1776445023937467600,28.699467529296875,0.1587832123041153,1.2349683046340942,1.44780433177948
1776445023962484500,28.724484375,0.025647277012467384,1.122206687927246,1.5533462762832642
1776445023987500500,28.74950048828125,-0.13291412591934204,1.2141444683074951,1.9506442546844482
1776445024012517600,28.774517578125,-0.289757639169693,0.8285460472106934,1.558257818222046
1776445024037534700,28.79953466796875,0.08894907683134079,-0.44016456604003906,0.5615624785423279
1776445024062551800,28.8245517578125,0.3091914653778076,-1.0338612794876099,-0.17101263999938965
1776445024087568600,28.849568603515625,0.28585827350616455,-1.2306408882141113,-0.45631349086761475
1776445024112585500,28.87458544921875,0.8585498332977295,-0.9941751956939697,-0.5455615520477295
1776445024137602600,28.8996025390625,1.3569843769073486,-0.4441585838794708,0.3088284134864807
1776445024162619600,28.92461962890625,0.6756092309951782,-0.18000583350658417,1.175548791885376
1776445024187636700,28.94963671875,0.03476238623261452,-0.22740057110786438,1.2036769390106201
1776445024212653600,28.974653564453124,-0.27938875555992126,-0.24936151504516602,0.7393940091133118
1776445024237670700,28.999670654296875,-0.3113090991973877,-0.13198652863502502,0.48007720708847046
1776445024262687700,29.024687744140625,-0.16215293109416962,-0.1103992909193039,0.5309463739395142
1776445024287704800,29.049704833984375,0.11363904923200607,-0.08230054378509521,0.8125814199447632
1776445024312721700,29.0747216796875,0.05169689655303955,-0.08714839071035385,0.557370662689209
1776445024337738800,29.09973876953125,0.0560845285654068,-0.4712967872619629,-0.003915082197636366
1776445024362755600,29.124755615234374,0.09725797921419144,-0.5818933248519897,-0.001804156694561243
1776445024387772700,29.149772705078124,0.1264379620552063,-0.5746582746505737,0.11302713304758072
1776445024412789500,29.17478955078125,0.1371208131313324,-0.7176743149757385,0.12004502862691879
1776445024437806600,29.199806640625,1.3963061571121216,0.4164091646671295,0.8379860520362854
1776445024462823700,29.22482373046875,2.6811113357543945,1.3155646324157715,2.488523244857788
1776445024487839700,29.24983984375,3.4587507247924805,1.4625439643859863,2.538090944290161
1776445024512856800,29.27485693359375,3.4035587310791016,0.42933905124664307,2.1898725032806396
1776445024537873700,29.299873779296874,2.2494752407073975,0.11645037680864334,1.5655633211135864
1776445024562890800,29.324890869140624,0.5257740616798401,-0.2195688933134079,0.8681742548942566
1776445024587907600,29.349907470703126,-0.15839117765426636,-0.5388725399971008,0.45033395290374756
1776445024612928500,29.374928466796874,0.15712033212184906,-0.8070311546325684,0.44480326771736145
1776445024637945000,29.399945068359376,0.5716189742088318,-0.981817901134491,0.809199869632721
1776445024662962200,29.424962158203126,0.8979621529579163,-1.0121545791625977,1.2463306188583374
1776445024687979300,29.449979248046876,0.9525130391120911,-0.486684113740921,1.4367139339447021
1776445024712996400,29.474996337890627,0.664688766002655,-0.08350585401058197,1.5050231218338013
1776445024738013200,29.50001318359375,0.5300966501235962,-0.32326599955558777,1.271648645401001
1776445024763030300,29.5250302734375,0.611350417137146,-0.3075866103172302,1.0231624841690063
1776445024788047400,29.55004736328125,0.6319551467895508,-0.4349569082260132,1.0261739492416382
1776445024813064400,29.575064453125,0.7936370968818665,-0.14546296000480652,1.0653915405273438
1776445024838081300,29.600081298828126,0.8247184157371521,0.0409691259264946,1.1150137186050415
1776445024863098400,29.625098388671876,0.8625218272209167,0.3761993944644928,1.133661150932312
1776445024888115200,29.650115234375,0.8943459987640381,0.3367933928966522,1.1824891567230225
1776445024913132300,29.67513232421875,0.6821787357330322,-0.0023479508236050606,1.3509842157363892
1776445024938149000,29.700149169921875,0.7378559708595276,-0.17277415096759796,2.0267341136932373
1776445024963166200,29.725166259765626,0.6817520260810852,0.21620546281337738,2.4446098804473877
1776445024988182300,29.750182373046876,0.642467737197876,0.23304933309555054,2.4957146644592285
1776445025013199400,29.775199462890626,0.72735595703125,0.32789885997772217,2.4537272453308105
1776445025038216400,29.800216552734376,0.8988485336303711,0.7531460523605347,2.798793077468872
1776445025063233300,29.8252333984375,1.0836076736450195,0.9697051048278809,3.0374512672424316
1776445025088250000,29.85025,1.1098514795303345,0.3924787640571594,3.1308164596557617
1776445025113267200,29.87526708984375,1.0996358394622803,0.8064547777175903,3.30952787399292
1776445025138284300,29.9002841796875,1.0690641403198242,0.8593069911003113,3.167287588119507
1776445025163301000,29.925301025390624,0.9549345374107361,0.29528579115867615,2.901115894317627
1776445025188318200,29.950318115234374,0.844433069229126,0.16306205093860626,2.9625656604766846
1776445025213335300,29.975335205078125,1.1035311222076416,0.9717438817024231,3.3390486240386963
1776445025238352400,30.000352294921875,1.2889485359191895,0.953076183795929,3.321214437484741
1776445025263369200,30.025369140625,1.2791932821273804,0.33244481682777405,3.3178298473358154
1776445025288386300,30.05038623046875,1.1722263097763062,0.6744171380996704,3.2964723110198975
1776445025313403400,30.0754033203125,1.0630998611450195,0.27234765887260437,3.3248133659362793
1776445025338420500,30.10042041015625,1.126457929611206,-0.012649886310100555,3.5617260932922363
1776445025363437000,30.12543701171875,1.5545923709869385,0.5337682962417603,3.826118230819702
1776445025388454100,30.1504541015625,1.7722276449203491,0.6039296388626099,4.326003551483154
1776445025413471200,30.17547119140625,1.705816626548767,0.02071962133049965,4.3190598487854
1776445025438488300,30.20048828125,1.7167816162109375,-0.1835639774799347,3.919443368911743
1776445025463504400,30.22550439453125,1.8116203546524048,0.16782748699188232,3.6708645820617676
1776445025488521200,30.250521240234374,1.6877131462097168,-0.13540227711200714,3.2096331119537354
1776445025513538300,30.275538330078124,1.5237592458724976,-0.18413245677947998,2.6500558853149414
1776445025538555400,30.300555419921874,1.4144699573516846,-0.08398209512233734,2.3083534240722656
1776445025563572200,30.325572265625,1.3064757585525513,-0.11415190994739532,1.9828051328659058
1776445025588589300,30.35058935546875,1.175554633140564,0.11018987745046616,2.010242462158203
1776445025613602300,30.375602294921876,1.1679128408432007,0.05667678639292717,1.8368028402328491
1776445025638619400,30.400619384765626,1.1264020204544067,-0.16693992912769318,1.6104236841201782
1776445025663636500,30.425636474609377,0.9426279067993164,-0.16563107073307037,1.478569746017456
1776445025688653600,30.450653564453123,0.8600887060165405,-0.31779009103775024,1.2997310161590576
1776445025713670100,30.475670166015625,0.9968896508216858,-0.3090490698814392,1.7585947513580322
1776445025738687200,30.500687255859376,1.1579716205596924,-0.24138420820236206,2.2542006969451904
1776445025763704300,30.525704345703126,1.2610079050064087,-0.19832222163677216,2.3620784282684326
1776445025788721400,30.550721435546876,1.2233474254608154,-0.412837415933609,1.9753539562225342
1776445025813738200,30.57573828125,1.0475014448165894,-0.24306625127792358,1.7248848676681519
1776445025838755300,30.60075537109375,0.8325988054275513,-0.31932294368743896,1.6839869022369385
1776445025863772400,30.6257724609375,0.7689726948738098,-0.4086434245109558,1.4732156991958618
1776445025888789500,30.65078955078125,0.8411411643028259,-0.2908478081226349,1.1715006828308105
1776445025913805300,30.675805419921875,0.7316399812698364,-0.3053332567214966,0.9738678336143494
1776445025938822100,30.700822265625,0.42132553458213806,-0.2784743309020996,1.1579383611679077
1776445025963839200,30.725839111328124,0.4645208418369293,-0.08280330896377563,1.3750430345535278
1776445025988856300,30.750856201171874,0.8004269003868103,-0.41556307673454285,1.0142730474472046
1776445026013873400,30.775873291015625,0.8734826445579529,-0.43283969163894653,0.7023060321807861
1776445026038890200,30.80089013671875,0.7204694747924805,-1.1388227939605713,0.069215789437294
1776445026063907300,30.8259072265625,0.36088287830352783,-0.9151028990745544,0.19482415914535522
1776445026088924400,30.85092431640625,0.3674449026584625,-0.6839521527290344,0.9315887689590454
1776445026113941500,30.87594140625,0.07488488405942917,-0.7996142506599426,1.2863314151763916
1776445026138958300,30.900958251953124,-0.32454660534858704,-0.7139885425567627,0.9534891247749329
1776445026163975400,30.925975341796875,-0.4261259436607361,-0.6558716893196106,0.6024355292320251
1776445026188992300,30.9509921875,-0.31142696738243103,-0.6079360246658325,0.281688392162323
1776445026214009300,30.97600927734375,-0.2683108150959015,-0.865533173084259,0.37582048773765564
1776445026239026400,31.0010263671875,-0.3844085931777954,-0.8705321550369263,0.44031038880348206
1776445026264043300,31.026043212890624,-0.5232452154159546,-0.7026711702346802,0.5678335428237915
1776445026289060400,31.051060302734374,-0.6461014151573181,-0.30231770873069763,0.470417857170105
1776445026314077400,31.076077392578124,-0.7396554946899414,0.22521452605724335,0.5964640378952026
1776445026339094500,31.101094482421875,-0.4784027636051178,0.7228701114654541,0.8578140735626221
1776445026364111400,31.126111328125,-0.06684838980436325,1.3808231353759766,1.531965732574463
1776445026389127200,31.151127197265627,0.7073270082473755,1.2535970211029053,1.9124884605407715
1776445026414144300,31.176144287109373,1.2735891342163086,0.9158063530921936,1.7610256671905518
1776445026439161300,31.201161376953124,0.8875360488891602,0.5448005199432373,1.618332028388977
1776445026464178400,31.226178466796874,0.46002379059791565,0.13276712596416473,1.5073975324630737
1776445026489195300,31.2511953125,0.08211148530244827,-0.11371881514787674,1.2248889207839966
1776445026514212400,31.27621240234375,-0.22899720072746277,-0.1877596527338028,0.9286739826202393
