time,seconds_elapsed,z,y,x
1776444516244636200,0.09963623046875,-0.31661563389897346,-0.2033273275669664,-0.35371658994425087
1776444516269654000,0.124654052734375,0.02636544435620308,-0.04765201454553753,-0.2775569313820451
1776444516294673200,0.149673095703125,0.11657879924476146,0.01749722437635064,-0.03643800775767304
1776444516319691300,0.174691162109375,-0.034215573334693904,-0.010161931318510323,0.02616785769117996
1776444516344710100,0.199710205078125,-0.1836146921634674,-0.012000727585610002,0.0001161280598025769
1776444516369728000,0.22472802734375,-0.0018541034340858458,-0.09578958411831408,-0.20977201019432395
1776444516394747100,0.2497470703125,0.13015958082973955,-0.08831427980158478,-0.09092734837681055
1776444516419765000,0.274764892578125,0.18048866909742353,-0.15143320020595566,-0.14663387363282962
1776444516444784000,0.2997841796875,0.0025987843215465544,-0.23983409884506834,0.030441388558223842
1776444516469802200,0.32480224609375,0.17488193513154981,-0.15409491196218877,0.20244802398178724
1776444516494821000,0.349821044921875,0.05067746331393718,-0.13466425357153639,0.08628398868353106
1776444516519839000,0.3748388671875,-0.19328034613132475,-0.10489023374770767,0.2417209172386676
1776444516544857900,0.39985791015625,-0.08042728941142559,-0.09788472976665943,0.21932508889948948
1776444516569876200,0.424876220703125,-0.013772504764795303,-0.21413208683365956,-0.07822730428227223
1776444516594895000,0.44989501953125,-0.149698394036293,-0.3133709528893232,-0.32788481407333164
1776444516619913200,0.474913330078125,-0.2227671373784542,-0.6318577874876559,-1.354442140083015
1776444516644932000,0.49993212890625,-0.1066997947871685,-0.7292366500914096,-1.5485323412925005
1776444516669950000,0.524949951171875,0.25764731210172176,-0.3178657800905406,-0.6454244674820453
1776444516694969000,0.549968994140625,0.09935995341837406,-0.3276057779362425,-0.7090736405719071
1776444516719987200,0.5749873046875,-0.005825929674506187,-0.4995361332532018,-0.661894175441563
1776444516745006000,0.600006103515625,0.16865093178749083,-0.6470991226959973,0.35675920904316005
1776444516770024000,0.62502392578125,0.3470300613850355,-0.30875965970158575,0.14210771971158684
1776444516795043000,0.65004296875,0.356210562184453,-0.23550109287574886,0.3675182112056762
1776444516820061200,0.675061279296875,0.35186581097841263,-0.3633456747613847,0.4379841516382992
1776444516845080000,0.700080078125,0.37250001820623874,-0.34276429369933903,0.4970260501284152
1776444516870098200,0.72509814453125,0.4656763145536184,0.01227196400873363,0.18949987774454055
1776444516895117000,0.750116943359375,0.4344721979945898,0.3461703027505427,0.129717499618046
1776444516920135000,0.775135009765625,0.15495967556536197,0.47210693212300536,0.28126868191417304
1776444516945154300,0.800154296875,-0.06654372548758983,0.49523266390562054,0.6274379982840269
1776444516970172200,0.825172119140625,-0.3756616971075535,0.14084098771139977,0.3946075859222561
1776444516995191000,0.85019091796875,-0.208175717446208,0.29417050479166207,0.5628021887769922
1776444517020209200,0.875209228515625,0.05137538245022297,0.20843590275235474,0.40613052166197444
1776444517045228000,0.90022802734375,0.32257600360810756,0.5289911411225795,0.3677933018200099
1776444517070246000,0.925245849609375,0.4408616067707538,0.6033897448290139,0.18921678648684173
1776444517095265000,0.95026513671875,0.5861112047046423,0.8247069756601005,0.18246588745452463
1776444517120283100,0.975283203125,0.0875455969840288,0.6112493722882122,0.5096155191211029
1776444517145301800,1.0003017578125,-0.030955694755911825,0.7171818359646945,0.6586641805443912
1776444517170320000,1.02531982421875,-0.2637462134987116,-0.049237091779895124,0.1522435119418427
1776444517195338800,1.0503388671875,-0.21008651950359344,-0.1977740408213809,-0.1032298171216622
1776444517220356600,1.075356689453125,-0.3256891671925783,-0.5528116137037054,0.14655985854854806
1776444517245375700,1.100375732421875,-0.3307394363194704,-0.6181483380217104,0.07235967262419872
1776444517270393600,1.1253935546875,-0.7646288659900426,-0.7383168323215097,-0.8271461855057627
1776444517295412700,1.150412841796875,-1.0137199466705322,-0.8852261801611632,-1.321750853706151
1776444517320430800,1.175430908203125,-0.539234887239337,-1.2191365746669471,-1.7602423703446983
1776444517345449700,1.20044970703125,-0.4526180955380201,-1.4008198603764175,-1.2579181407429276
1776444517370467600,1.225467529296875,-0.5730944867432117,-1.9547741778418422,-0.4235002472011372
1776444517395486700,1.25048681640625,-0.17621347599625586,-1.2802516992345452,-1.0198531887285411
1776444517420504800,1.2755048828125,0.11466741266548633,-0.6946911141499876,-0.6241491128064691
1776444517445522700,1.300522705078125,-0.006585808131098747,-1.025621542996913,0.5237910151962191
1776444517470541800,1.325541748046875,0.2199789679646492,-0.7295693891771138,0.6401778720654547
1776444517495559700,1.3505595703125,0.47985155490040776,-0.3857404619209468,0.49841834473703056
1776444517520578600,1.37557861328125,0.7403595171302556,0.2838352992654778,1.3113091007992626
1776444517545596700,1.4005966796875,0.7816226708889007,0.37185543669238685,1.4147592461407184
1776444517570615800,1.42561572265625,0.5529617992967367,0.6623241643566637,0.8337970947623252
1776444517595633700,1.450633544921875,0.32317280045747754,0.6914856691721827,1.2330860434338449
1776444517620652800,1.47565283203125,0.786247408080101,0.5809119920937345,1.6821761109761892
1776444517645670700,1.500670654296875,0.8830290354430675,0.864867501939088,1.0457355257429182
1776444517670689800,1.525689697265625,-0.09302490517795085,0.21226464899396522,0.5757024772845208
1776444517695708000,1.5507080078125,-0.7612035677164792,0.17187544679194688,1.0134697713017462
1776444517720726800,1.575726806640625,-0.2955038722872734,0.1570426558518782,1.1803760513789952
1776444517745744600,1.60074462890625,0.11370412059128283,0.30433976090010256,0.34783987993057813
1776444517770763500,1.625763427734375,-0.2283487369030714,0.03173179369494319,0.29325222090296443
1776444517795781600,1.65078173828125,-0.6450269195318221,-0.4508871070269495,0.36594679717049
1776444517820800800,1.67580078125,-0.39453181727230546,-0.3577393791869283,0.5520782944604754
1776444517845819000,1.70081884765625,-0.1554161871612072,0.37831265000775455,-0.30415823032073674
1776444517870836700,1.725836669921875,0.3386825042784214,-0.6582459551323205,-1.4709477279610932
1776444517895855600,1.750855712890625,0.277328164127469,-0.5292408780999481,0.2173717080757022
1776444517920873700,1.775873779296875,0.3468839309126138,0.8766519746918231,-1.891565441995859
1776444517945892900,1.800892822265625,0.8034194921553135,0.9093951373863964,-1.092410621547699
1776444517970910700,1.82591064453125,-0.42590486065745353,1.768086946365237,-1.624935928145796
1776444517995929600,1.8509296875,0.0365641822874546,0.5882587381273507,-0.5433787090457975
1776444518020947700,1.87594775390625,0.4986994632333517,-0.00018733926564455032,-1.2890963922083376
1776444518045966600,1.900966552734375,0.6239134043544531,-0.03147051241025328,-0.9896601489081979
1776444518070984700,1.925984619140625,-0.17095219446718693,-1.6521381155870853,-0.15653649642802775
1776444518096003800,1.95100390625,-0.6126560972809791,-3.8456995683684942,0.8374559825960546
1776444518121021700,1.976021728515625,-0.8114052302122116,-2.289009785714,0.32882520019598305
1776444518146037500,2.00103759765625,-0.34092297668159005,-1.6543576913326978,0.7103705485146492
1776444518171055600,2.0260556640625,-0.23662030616402624,-0.3145202690549195,1.2471217291794716
1776444518196074500,2.051074462890625,-0.24805998406708238,0.07811433629393577,1.8230822728782892
1776444518221092400,2.07609228515625,-0.5123018721282482,-0.12283815190047025,0.23469971336498854
1776444518246110500,2.1011103515625,-0.70523325869143,-1.1044715000890195,-0.9497492865413427
1776444518271129600,2.126129638671875,-0.6409966411024332,-1.7569458130173383,-1.5689862235173582
1776444518296147700,2.151147705078125,-0.5416700054317712,-1.4248979244478046,-1.1020471955515443
1776444518321166600,2.17616650390625,0.006001286241412163,-0.9673891342587768,0.5683719882659614
1776444518346184400,2.201184326171875,0.46084991731047625,-0.2672579114140943,0.1787020048763603
1776444518371203300,2.226203369140625,0.41067046664655205,1.3423577345356343,1.1360670271184294
1776444518396221400,2.251221435546875,0.7345750885099173,-0.2892506571114063,2.0695126099169254
1776444518421240600,2.276240478515625,0.27140228120982646,0.015248239873163401,1.494947027707845
1776444518446258400,2.301258544921875,0.477266214582324,-1.305954441898316,0.46521278869509697
1776444518471277600,2.326277587890625,0.4514765242874622,-1.3071544653378426,-0.4305604313783347
1776444518496295400,2.35129541015625,0.31904315330684185,-0.49420909301154314,-0.6960004431828856
1776444518521314600,2.376314453125,0.7518260830402373,-1.2963874259993433,-0.5369989448808133
1776444518546332700,2.401332763671875,0.30020401280224324,0.22202800944894552,-1.2471619150593876
1776444518571350500,2.4263505859375,-0.1686351496964693,1.285106445789337,0.7073917518995702
1776444518596369400,2.451369384765625,0.5257113887995482,0.41342203037701547,1.7684037572294473
1776444518621387500,2.476387451171875,0.0075982000440359115,-0.8651420810967684,0.590685526882857
1776444518646406400,2.501406494140625,-0.29000352130532264,-0.49361456118449565,0.40813276486247774
1776444518671424500,2.526424560546875,-0.35146249087452885,-0.28502909389361736,-0.19036387416273354
1776444518696443600,2.551443603515625,-0.39194472338855263,-0.04637611285820603,0.08471066581904887
1776444518721461500,2.57646142578125,-0.13285714935064316,-0.795760794095695,-0.26899434328526256
1776444518746480400,2.60148046875,-1.1747808617204427,-0.060855596848577255,-1.2000858372382819
1776444518771498500,2.62649853515625,-0.6883025821566582,-0.3262061768040061,-0.13033508352711795
1776444518796517600,2.651517578125,-1.126586447393894,0.42498321576789017,1.3528602777190506
1776444518821535500,2.676535400390625,0.009382745373249053,-0.7453123172320425,1.4157633086167276
1776444518846553600,2.7015537109375,-0.049340661752223965,-0.567743188843131,1.4450807346463204
1776444518871572500,2.726572509765625,0.9263637347787618,-0.7815979017738253,0.6698879506744444
1776444518896590600,2.751590576171875,-0.6213929459661245,1.235805239264667,0.608713789395988
1776444518921609500,2.776609375,0.02497252869307995,2.042364198489487,0.43466509021818633
1776444518946627600,2.801627685546875,0.05885901620388031,1.0390914115533232,1.6359421830676495
1776444518971646500,2.826646484375,0.5053583366006612,0.18373846467360852,0.20608415199443697
1776444518996664600,2.85166455078125,0.5596130738794803,-0.15467143320851026,-0.9021956543363631
1776444519021683500,2.876683349609375,1.3077858951091765,-0.7211052199535072,-2.182573464168608
1776444519046701300,2.901701416015625,1.086147469499707,-0.9526676582060754,-1.4816013700529933
1776444519071720700,2.926720703125,0.3469482283204794,-1.173423821088299,-1.3063278052553533
1776444519096738600,2.951738525390625,-0.09911796135604381,-1.0901328128088266,-1.1069736921682953
1776444519121756700,2.976756591796875,-0.6589461392909288,-1.5103898037724195,-0.3107346130363643
1776444519146775600,3.001775634765625,-1.1072685834616423,-0.7224871758311987,-0.6895091084022075
1776444519171793700,3.026793701171875,-1.104370523932576,-1.7641821940116584,-1.307463385156542
1776444519196812500,3.0518125,-0.9869850844800472,-0.7216897418431937,-0.7392862618755549
1776444519221830700,3.07683056640625,-0.5517155986279249,0.10997677063122391,-1.5001922348849475
1776444519246849500,3.101849609375,-0.2760018839597702,-2.0332364507906138,-1.6076880023553966
1776444519271867400,3.126867431640625,-1.0789736323475838,0.7799899551205337,-0.2097076031886041
1776444519296886800,3.15188671875,-0.07793313450813293,-0.5012672678947449,-0.009194967716187238
1776444519321904600,3.176904541015625,-0.2780225761324167,-0.23860095858722924,-0.9625216743528843
1776444519346922800,3.2019228515625,-0.30248657078146934,-0.7039058094799518,-0.7170142243128269
1776444519371941600,3.226941650390625,-0.5474363138735294,-0.12942206033542752,0.6381054497055709
1776444519396959500,3.25195947265625,-0.4049485818684101,0.3405262324489653,1.2474135517328977
1776444519421978400,3.276978271484375,0.2864361842125654,-0.4311507984869182,1.2207368494704365
1776444519446996700,3.301996826171875,1.10716103143394,-0.7873786040671169,4.563405062881112
1776444519472015600,3.327015625,0.9188263250112533,-1.8781062409639357,5.796129579526186
1776444519497033500,3.352033447265625,1.5153846894502638,-1.5347542835697532,1.7611337662264703
1776444519522052600,3.377052490234375,2.2150088760882616,0.005392652823776006,0.5288261963518336
1776444519547070500,3.402070556640625,1.5429507417678832,1.065325776875764,0.6214457721319049
1776444519572088600,3.427088623046875,-1.036292428484559,-0.7689530127994716,1.3034106026344001
1776444519597107700,3.452107666015625,-0.9374930315583944,-1.2450476993843913,1.2790544522739946
1776444519622125600,3.47712548828125,-0.8400234219312668,-0.010521247883886099,-0.6646180474475025
1776444519647144400,3.50214453125,-0.12131693368256091,-0.5809632473569363,-0.9976794239085167
1776444519672162600,3.52716259765625,0.12954992449879646,-0.5120034737035631,0.9529495438873767
1776444519697181700,3.552181640625,-0.4450286633223295,-1.3011895655840635,1.477071909929812
1776444519722199600,3.577199462890625,0.3671048811644316,-0.0808203073170036,0.7747013471931219
1776444519747218700,3.60221875,0.7061094570040702,-0.37941564281359313,0.35195853076316413
1776444519772236500,3.627236572265625,0.6750450411766767,0.08339936402477323,-0.18052606023205442
1776444519797254700,3.652254638671875,0.4854360770344734,0.007200579028576612,-0.5341938608648256
1776444519822273500,3.6772734375,0.08916822974979877,0.5960658316817135,-0.8452512395821511
1776444519847291600,3.702291748046875,0.136335639116168,0.3234644403478131,-0.5150098159126937
1776444519872310500,3.727310546875,-0.17204408135712146,-0.33062918087802823,0.09786131235845387
1776444519897328600,3.75232861328125,0.1969908910870552,-0.535072945254296,-0.1139692012682557
1776444519922347500,3.777347412109375,-1.696687013018131,-1.0712320783101021,-0.445807246479392
1776444519947365600,3.80236572265625,0.1816144582569599,0.26909060673397034,-0.9020564650613814
1776444519972383500,3.827383544921875,0.3134060242027044,0.6983749902945011,-1.6195327539280056
1776444519997402600,3.852402587890625,0.32280338262319563,0.7133899694010615,-1.6641136539325116
1776444520022420700,3.877420654296875,0.6316022052913903,-0.8603118844613432,-1.1362170300483703
1776444520047439600,3.902439697265625,-1.2038491352945566,-0.6953709131076932,-1.5058556674741208
1776444520072457500,3.92745751953125,-0.4399573514074087,-0.2272136867248453,1.3682593607723712
1776444520097476600,3.9524765625,-0.15839491071105002,0.3144056296993047,1.48111782431975
1776444520122494700,3.97749462890625,0.37470191216468807,0.8537097097173333,0.18154840728342533
1776444520147512800,4.002512939453125,0.5248825367599725,1.2322756038337945,-1.0875979605689645
1776444520172531000,4.027531005859375,-0.16738368833065032,0.19657967993766068,-1.3696933390982449
1776444520197548800,4.052548828125,0.024573884764313696,0.5356102670013905,0.13176438567787407
1776444520222568000,4.07756787109375,-0.5071908127248287,-0.321006197008118,1.9912987587712705
1776444520247586000,4.1025859375,-0.5064455473154783,-0.660529316829145,1.0378462337978183
1776444520272605000,4.12760498046875,-1.01141108520627,-1.2086130617607385,-0.14540347332134843
1776444520297623000,4.152623046875,-0.5468021076232195,-1.3283800625875593,0.039605595809966324
1776444520322642000,4.177641845703125,0.21631576928198337,-1.146610925225541,0.4040548478990793
1776444520347660000,4.202659912109375,0.40778234398961066,-0.6882653188861906,0.22580431311726568
1776444520372678100,4.22767822265625,0.0680395170032978,0.4581766795132309,-0.14931713963374493
1776444520397697000,4.252697021484375,0.3348907107800245,0.9990024892058222,0.13401903273686766
1776444520422715000,4.27771484375,0.5133709626644849,1.0049282990582287,0.6269634395748377
1776444520447733800,4.302733642578125,0.43694238750040526,0.8177939083360135,0.5080402691610157
1776444520472751900,4.327751953125,-0.407371425101161,1.0518192295707762,-0.23551219879165292
1776444520497771000,4.35277099609375,-0.24723288559317588,1.0021380838178098,0.6337666898488998
1776444520522789000,4.3777890625,0.10058043512403965,0.4295226127631962,1.0942569070015102
1776444520547807000,4.402806884765625,-0.09897358444929122,-0.21231632438227532,0.4656039799697697
1776444520572825900,4.427825927734375,-0.29732407345175743,-0.5255652583271264,-0.11495748165324329
1776444520597844000,4.452843994140625,-0.2782154683560133,0.11752280209660529,-0.21422641405360773
1776444520622863000,4.477863037109375,-0.44392391695082184,0.12063669633343815,-0.6066914532555266
1776444520647881000,4.502880859375,-0.6550362723708152,0.18311273399069905,-0.9818878344062715
1776444520672899000,4.527899169921875,0.03212415401339531,0.2557378252185881,-0.2910927778467536
1776444520697918000,4.55291796875,-0.3800947111189365,-0.07289587099328637,0.10066263351477682
1776444520722935800,4.577935791015625,-0.21375380983948705,-0.3423087319515645,1.178309401172772
1776444520747955200,4.602955078125,-0.16007424210011958,-1.1810114266730845,1.6128914162173866
1776444520772973000,4.62797314453125,-0.3313970234453678,-0.29584808261506257,0.5578275056369603
1776444520797992000,4.652991943359375,0.241846516379714,0.10296448071636259,0.5029506909370423
1776444520823010000,4.678010009765625,0.43212475808560846,-0.6666899583507329,0.2719716055303812
1776444520848028000,4.70302783203125,0.3051683572113514,-0.6187947461664677,0.21097586955875158
1776444520873046800,4.728046875,0.7335884155601262,-2.323836330553889,-0.6913168154112994
1776444520898065000,4.75306494140625,1.7540356246590614,-0.36297205567602064,-1.1575935800760984
1776444520923084000,4.778083984375,1.2769342452496288,1.2372963546052573,-1.7711361048027872
1776444520948102000,4.803101806640625,1.312253395912051,1.476715643838048,-1.806802753728628
1776444520973120000,4.8281201171875,0.11553776575922965,0.05114789383728057,-2.206723570562899
1776444520998139000,4.853138916015625,0.09284604147970676,-0.742146912003681,-1.9365126910947261
1776444521023157000,4.878156982421875,-0.06011281565725803,0.6396353626865893,-1.3534391005203128
1776444521048176000,4.903176025390625,0.17203122187554834,1.2276973361328243,-0.7012528107531368
1776444521073194000,4.928194091796875,0.6072077687472105,0.1482883263089694,0.7647673976778984
1776444521098212900,4.953212890625,0.35495793177485463,-0.0521391333643347,0.7183152239087969
1776444521123231000,4.97823095703125,-0.023116087171435356,-0.1251374966177158,1.2659908264309168
1776444521148249000,5.0032490234375,-0.22879121997356414,0.11727127502094954,1.5790860311187802
1776444521173268000,5.02826806640625,-0.6278910758137702,-0.20478786510620264,2.1073821757145224
1776444521198286000,5.0532861328125,-0.6030103170573711,-0.1348895684937015,2.1613668638803065
1776444521223305000,5.078304931640625,-0.7131395017713308,-0.23044395561665296,1.9361280756913124
1776444521248323300,5.1033232421875,-0.285151989620924,-1.299023327460885,1.7081465646654366
1776444521273341200,5.128341064453125,-0.28609131629765033,-0.9097275111459195,1.2206665607132017
1776444521298360000,5.153360107421875,-0.5358236174911261,-0.42061055364161726,0.20550021462664006
1776444521323378200,5.178378173828125,-0.11736205857694149,-0.49158919283673164,-1.3220575815677642
1776444521348397000,5.20339697265625,0.42147301568984985,-1.120228529734537,-1.3109171788722276
1776444521373415000,5.228414794921875,0.7808914340049028,-0.9241367063790559,0.21863120661750435
1776444521398433300,5.253433349609375,-0.5161947879135609,0.1817224486760795,1.2929548212021589
1776444521423452200,5.2784521484375,-0.34343758985102174,-0.22110899490788577,1.4383517186522483
1776444521448470000,5.303469970703125,0.11586334445178507,-0.4101232810925692,0.9656110917355865
1776444521473489200,5.3284892578125,-0.10899988842308521,0.9176281282026321,-0.8502122960556298
1776444521498507000,5.353507080078125,-0.28725860651135443,0.4707252685062587,-0.5854196422439069
1776444521523525000,5.378525146484375,0.46966041575372214,-0.04033938997723162,-1.7061039529219268
1776444521548544300,5.403544189453125,-0.9268810366511344,4.69911497131437,-4.184420651091635
1776444521573562000,5.42856201171875,1.3651426900565624,0.941533246859908,-0.8664331438206135
1776444521598581000,5.4535810546875,1.4813175846755504,-0.7365107327476144,-0.9881715908508747
1776444521623599000,5.47859912109375,1.0233534519344567,-0.8195270157389343,-1.2183504657905548
1776444521648617000,5.503616943359375,1.0892764151751995,0.4370503779195249,-2.7446897530406713
1776444521673636000,5.528635986328125,-1.0033020130306483,-1.5383774425029755,-5.005239898598194
1776444521698654200,5.553654296875,-1.3713181638211012,-1.1859973253268747,-2.738045492720604
1776444521723673000,5.578673095703125,-0.7152677459716796,-1.6026637444525955,-0.7897913642972707
1776444521748691200,5.603691162109375,-0.015042670831084251,-1.978683022826165,0.46714770228043195
1776444521773709000,5.628708984375,-0.6978384722650051,-1.822587328968197,-0.5604220521748066
1776444521798728000,5.65372802734375,0.6145540398567915,-0.16280005033481865,-0.1588354940854013
1776444521823746300,5.678746337890625,0.08226385718882083,-0.6870609115324914,1.1358299304269253
1776444521848764200,5.70376416015625,-0.09661620766818522,-0.6626905134510248,1.6535238708570599
1776444521873783000,5.728782958984375,-0.006173720198869705,-0.22304887692928313,1.041596380111575
1776444521898801200,5.75380126953125,0.06654255644381046,-0.17995459875334052,1.1288251662313937
1776444521923820000,5.778820068359375,0.47816520924866196,0.04950710436031222,1.4523768830038606
1776444521948838000,5.803837890625,0.6744798085093497,0.20049926453419029,2.255630370942503
1776444521973856000,5.82885595703125,0.5757686743885279,0.08654555309601128,2.135993645431846
1776444521998875100,5.853875244140625,0.4070055143982172,0.44789756982214746,1.6353588302217423
1776444522023893000,5.87889306640625,0.23642332228720186,0.4617365639518946,1.4140573814816773
1776444522048912100,5.903912109375,0.21527356675267217,0.45452875146493316,2.0894474367037414
1776444522073930000,5.928929931640625,-0.008040683114528656,0.3352738648787141,3.097515348961949
1776444522098948000,5.953947998046875,0.08938859450221061,0.49929384892992673,3.1726375177025794
1776444522123967200,5.97896728515625,0.10696750581264496,0.12368724301047622,2.561125329759717
1776444522148984800,6.00398486328125,-0.17864099540412426,0.3808694948837161,1.4513848032265901
1776444522174003200,6.029003173828125,-0.5367939238280057,-0.16260887514427302,-2.7839386443674563
1776444522199022000,6.05402197265625,-0.7527011123090982,-1.0531322118654847,-2.379742634432018
1776444522224040000,6.0790400390625,-0.24109832836091516,-1.7724223452210426,-0.049042190262302755
1776444522249059000,6.10405908203125,-0.4801093290537595,1.1200305960096417,-0.1340306501094252
1776444522274077000,6.129076904296875,0.21645605453550815,1.3563633174039422,-1.0881385702516884
1776444522299095000,6.154094970703125,0.8943143995672463,0.4875564301893115,-2.9629025881156323
1776444522324114200,6.1791142578125,0.438373297086358,-1.2844136412195861,-1.5420979243308306
1776444522349132000,6.204132080078125,0.3676806352257728,-1.093307278126478,-1.0725758941344916
1776444522374150100,6.229150146484375,0.33653789346516133,-0.20433876963183284,0.36332013846132905
1776444522399169000,6.2541689453125,0.3038473377406597,-0.05134162631109357,1.0257773180805145
1776444522424187000,6.279186767578125,-0.08297054415345191,-0.6504179649204015,1.2717803696177898
1776444522449206000,6.3042060546875,-0.628322452968359,-1.3873103904619812,1.5023054276466368
1776444522474224000,6.32922412109375,-0.8957891482949256,-1.3715893819779157,1.0031967260252683
1776444522499242000,6.354241943359375,-1.1926567101508379,-0.9595226386673747,-0.0966894647006411
1776444522524261000,6.37926123046875,-1.197134147825837,-1.6788082419782877,-0.49693650868143885
1776444522549279000,6.404279052734375,-1.1629969004243612,-1.6661853456400333,-1.354183927538246
1776444522574296800,6.429296875,-1.2731383600980042,-1.4807884462349117,-2.7373808913320303
1776444522599316200,6.454316162109375,-0.5022299754470586,-1.865414224912226,-1.9633290940888224
1776444522624334000,6.479333984375,0.24757073924541473,-1.5820866742394863,0.0019833467037882655
1776444522649353000,6.50435302734375,0.07904723322987556,-1.7276953147441148,0.2985212290807627
1776444522674371000,6.52937109375,0.7812298721790313,-0.47554355550818145,-1.2904713338233529
1776444522699389000,6.554388916015625,0.7497264804124831,0.4628380223877728,-0.8580272806555033
1776444522724407800,6.57940771484375,0.22116905453205107,0.4401323426481336,1.8523735415533185
1776444522749426200,6.60442626953125,0.4761468551635742,-0.734001453340426,2.6466473119616505
1776444522774444000,6.629444091796875,0.07867723087370396,-0.6302055633012205,2.1424688327953216
1776444522799463000,6.654462890625,0.019473346754908562,-0.7652258820351213,1.339089380389452
1776444522824481000,6.67948095703125,-0.4657698380559683,0.7865346275236457,0.7513420989155769
1776444522849499000,6.704498779296875,-0.23701953461468217,0.1813094108957797,0.649538843998313
1776444522874518000,6.72951806640625,0.025537761360406874,-0.6533834636624902,0.32999373251870273
1776444522899536000,6.754535888671875,-0.18458441397845743,-0.6188768714919686,-0.026242183302715417
1776444522924555000,6.779554931640625,-0.0019715923339128495,-1.0307193045273422,-0.33731939923167226
1776444522949573000,6.804572998046875,0.010675123271346091,-1.1155516970299184,-0.4277342680417001
1776444522974591000,6.829591064453125,0.3469938210278749,-1.5537139817140995,-0.8417154666714369
1776444522999609900,6.85460986328125,0.5580401254743337,-1.162502687166631,-1.7687486251443623
1776444523024628000,6.8796279296875,1.2365969741642475,1.7422529785372316,-0.6256976574227213
1776444523049645800,6.904645751953125,1.2665075437813997,2.2324809660233558,1.0279853495188056
1776444523074665000,6.9296650390625,1.495167830851674,-0.67585022007972,1.5934171926796434
1776444523099683000,6.95468310546875,1.3493810573011635,-0.5512451315719634,1.3923632899373768
1776444523124701000,6.979700927734375,1.2525070754796266,1.029051225184649,2.7004619042575357
1776444523149720600,7.004720458984375,1.779497398173809,-0.4375629670841619,3.5787595272645354
1776444523174738700,7.02973876953125,1.02228436139822,-0.7784299392621964,2.9113556484907863
1776444523199756500,7.054756591796875,0.4922007488638162,-0.5695194047354162,2.5021067390799523
1776444523224775700,7.079775634765625,0.17325930236577985,0.1044618796672672,-0.5757555226460099
1776444523249793800,7.104793701171875,-0.0025695582270622254,-0.9420067095905542,-1.1519760324552655
1776444523274811600,7.129811767578125,-0.22582009520828722,-0.03378193115778267,-0.8653921103350818
1776444523299830800,7.154830810546875,-0.30368542517721653,-0.9685353816844522,-0.7844299103293567
1776444523324848600,7.1798486328125,-0.42203532574772834,-0.5269030828021466,-1.4194202236890792
1776444523349867800,7.20486767578125,-0.6467372305810452,-0.47483891437016423,-1.4417825698837636
1776444523374886000,7.229885986328125,-0.34262451990246773,0.0021320435926318166,-0.8803018024362623
1776444523399903700,7.25490380859375,-0.45983752539753914,-0.0033138007231056687,0.4398077868688851
1776444523424922600,7.279922607421875,-0.43500235934853554,0.13887443687878548,0.11020130010209978
1776444523449940700,7.304940673828125,-0.560544217249751,0.12339220558665692,0.18373700336888432
1776444523474958600,7.32995849609375,-0.7679489503234624,0.20751433092802762,-0.09262056216076016
1776444523499977700,7.354977783203125,-1.1552888102650642,0.12211064134351908,-0.026000629631802438
1776444523524995800,7.379995849609375,-0.4517120866090059,0.6433876278921962,-1.1518939071297645
1776444523550013700,7.405013671875,-0.1450327403128147,-0.8122196153350174,-2.1349936746090648
1776444523575032800,7.43003271484375,-0.21464871285259723,-0.1767092236239463,-0.6393365989357233
1776444523600050700,7.45505078125,0.21484277411997316,1.346008365997672,2.146324923701584
1776444523625068500,7.480068603515625,2.2356775701075793,-0.08103857144387439,5.096732771903276
1776444523650088000,7.505087890625,1.102654952186346,-2.029273538509011,6.040002633297443
1776444523675105800,7.530105712890625,0.5055214182078838,-0.02750993821620941,1.7982614276155828
1776444523700124000,7.5551240234375,-0.9665911157488822,0.14663893340043724,-0.7301072954460978
1776444523725142800,7.580142822265625,-3.9633623634576796,-0.1743855664493516,0.734528911280632
1776444523750160600,7.60516064453125,-1.132798746037483,0.8245258469395339,0.6589515461184084
1776444523775178800,7.6301787109375,1.022607017481327,-0.5438357320982963,0.8706357100769877
1776444523800197600,7.65519775390625,0.7150941429704427,0.1681959728279151,0.26755875752419234
1776444523825215700,7.6802158203125,0.5556739808648824,-0.7362977475840597,-0.26126579485982654
1776444523850233900,7.70523388671875,0.5764186627298593,-1.3507245808646082,-0.6707933750815689
1776444523875252700,7.730252685546875,-0.01872691230177879,-0.7099246313780546,-0.8180464217923581
1776444523900270600,7.7552705078125,-0.4482692526787519,-0.535166834082827,-1.2969929906770585
1776444523925288700,7.780288818359375,-0.997642087572813,-0.034941421657521274,-1.1011607681058346
1776444523950307600,7.8053076171875,-0.5690893427550793,-0.9510412260480224,-0.5668054696016013
1776444523975325700,7.83032568359375,-0.9078063338249921,-0.05513689040821045,-0.5153343716919422
1776444524000343800,7.85534375,-1.154259467217326,0.611784429012984,-0.9873417889632284
1776444524025362700,7.88036279296875,-0.40099487580657,0.19956227594502268,-0.8742895564094185
1776444524050380800,7.905380859375,-0.2673258255511522,0.49397440747283394,-1.2635226827517152
1776444524075398700,7.930398681640625,0.5520896926373243,0.09887969562076032,-0.8776716000631452
1776444524100417500,7.95541748046875,0.811290663921833,0.2616592511568218,-1.0628104330539703
1776444524125436000,7.980435791015625,0.3520090188413858,-0.044575127850845456,-0.06425539535470307
1776444524150453000,8.005452880859375,1.0408493611365557,-0.17121493705660104,1.011432858646661
1776444524175472000,8.03047216796875,0.33071956257522106,0.8210794328127056,-0.36126404618173835
1776444524200490000,8.055489990234374,-0.2820107689857483,0.7198367343876511,1.122594528213516
1776444524225508000,8.080508056640625,0.4023281702369451,0.8782861517649143,0.6303876418698579
1776444524250527000,8.10552685546875,0.41719899163246155,0.47870048516914243,-1.5204700298905371
1776444524275545000,8.130545166015626,0.5103349559694528,-1.0255290424078702,0.4969274851247668
1776444524300563200,8.155563232421875,-0.7927940532445907,-0.504054122134298,0.8884650890171527
1776444524325582000,8.18058203125,0.4859790978699922,0.8687132906470447,0.7318754741623997
1776444524350600000,8.205599853515626,0.804030317530036,0.4937052716752514,0.19732691810838876
1776444524375618000,8.2306181640625,-0.29901684884428975,-0.2914744341081008,0.2652763091428205
1776444524400636000,8.255635986328125,-0.11284838054478168,-0.001524506153538823,0.055398427421227095
1776444524425655000,8.280655029296875,-0.1359258892714977,-0.09674719537040218,-0.24387933738157153
1776444524450673200,8.305673095703124,-0.014964929419755935,-0.46535062626320867,-0.34846630473323165
1776444524475691000,8.33069091796875,-0.16730419335365296,-1.2571730214640497,-0.18878076968975363
1776444524500710000,8.3557099609375,-0.6965963632494211,-0.2988621880055405,-0.04941409231461584
1776444524525728000,8.38072802734375,0.217263863787055,-0.1461270383555442,-0.21821794964149593
1776444524550745900,8.405745849609374,-0.7585282110273838,-0.10449813829073681,-0.5415516397491097
1776444524575765000,8.430764892578125,-0.008676642930507659,-0.03378971260543912,0.3727142454788089
1776444524600783000,8.455783203125,-0.22544307858943938,0.8222154511053115,0.8070438201323151
1776444524625801000,8.480801025390624,-0.11713234147429466,0.13695709548275917,0.8133236310541629
1776444524650820000,8.505820068359375,-0.5799877533882856,0.7015866458173841,-0.06089402916282415
1776444524675838000,8.530837890625,-0.8065525294840336,0.7090149691872298,0.3299666983813047
1776444524700856000,8.55585595703125,0.3904980317115783,0.46968533099927007,0.10323400010643527
1776444524725874000,8.5808740234375,-0.8797790937364101,-0.5424325873021036,0.5366241202190518
1776444524750893000,8.60589306640625,0.4540209480732679,0.5551963168831542,-0.5101958032270894
1776444524775911200,8.6309111328125,-0.2688771466463804,-0.9201554547231644,-0.6360247709739953
1776444524800929000,8.655928955078124,0.594808305901289,0.8112440483011305,-0.41414734897688027
1776444524825948000,8.680947998046875,-0.22301263657212256,0.32101949488110837,-0.6164086547475308
1776444524850966000,8.705966064453126,0.17302549360990524,0.7989025261875241,-0.11190518141053617
1776444524875984000,8.73098388671875,-0.1523047771424055,0.3868245673632249,1.203180442252755
1776444524901003000,8.7560029296875,-0.08903963493406772,-0.8770022494342178,0.7222913609981536
1776444524926021000,8.781021240234375,0.12163082193732261,-0.6352491104263812,0.27038682055696844
1776444524951039000,8.8060390625,0.22345862677395342,-0.5448013622600585,0.0031681086421012877
1776444524976058000,8.83105810546875,0.41340252195894717,0.7154634146742522,-1.4938301525071263
1776444525001076000,8.856075927734375,0.37186698099970816,1.0951230223115533,-2.7808666895762086
1776444525026094000,8.881093994140626,-0.6088251408159733,-0.573392300646007,-2.8230189011290667
1776444525051112000,8.90611181640625,0.6292652867764235,0.21933292514607308,-2.833607515160739
1776444525076131000,8.931131103515625,0.7057903080523014,0.10904212012961506,-1.6196932051867245
1776444525101149200,8.956149169921876,0.6123942314743995,0.342262116330862,-0.061295522635802624
1776444525126167000,8.9811669921875,0.6685118400156498,-0.07245236500948667,1.3938741328917443
1776444525151186000,9.00618603515625,0.7701601966321467,-1.1323436957463622,1.6244626115456222
1776444525176204000,9.0312041015625,0.10769991174042225,-0.3723153092890978,1.6128725653864442
1776444525201222000,9.056221923828126,0.30920857251286504,-0.2612758778624236,1.7010091140009462
1776444525226240800,9.08124072265625,-0.08104220643937587,-0.6063859309703111,1.3201459027275442
1776444525251259000,9.1062587890625,0.502317069208622,-1.6960994223885237,1.522522724636644
1776444525276276700,9.13127685546875,-0.2578542328506708,-0.6883409414056688,1.2775034234397113
1776444525301294800,9.156294921875,-0.14290040445923805,-0.6148511231072247,1.201461071114242
1776444525326314000,9.18131396484375,-0.48710780963897704,-0.48560186205543576,1.018495636639744
1776444525351331800,9.206331787109375,0.0452829107940197,-0.731968778469041,1.8352419356189666
1776444525376350000,9.231349853515624,-1.1840180611431599,0.02194740871824324,2.7341268579721447
1776444525401368800,9.256368896484375,-0.3903443024545908,-0.09135879859663545,1.6971210205212235
1776444525426387000,9.281386962890625,-0.8241828787207603,3.277498114363849,-4.2395676610350606
1776444525451404800,9.30640478515625,-0.17438333795964717,1.371134770078212,-1.1526331811897457
1776444525476423000,9.3314228515625,-0.25941958247125146,0.624295681670308,-0.034685821194946766
1776444525501442000,9.356442138671875,0.1206336275935173,0.48332456477321684,0.6123134213231504
1776444525526460000,9.3814599609375,0.8251414946198463,-0.5552181633887813,-1.1863469424821436
1776444525551478000,9.40647802734375,1.8779583569258451,0.3095222415719181,-1.457757553128898
1776444525576497000,9.431496826171875,0.7277572251886129,0.25680216651447113,-1.3327424955807625
1776444525601514800,9.4565146484375,0.45740006911754605,-0.1904432595418766,-0.526577431044355
1776444525626532900,9.481532958984374,0.08047112855315208,-1.0804822833448648,-1.6364038092300295
1776444525651550700,9.50655078125,0.8976970277428626,-0.953837213442102,-1.2400541288807987
1776444525676569900,9.53156982421875,0.41371524116992947,0.8770984032850712,-0.04109473838917911
1776444525701588000,9.556587890625,1.663346468952298,1.7356623481005429,-0.59942222943753
1776444525726605800,9.581605712890624,1.3429355344235896,-0.12014113136883825,-0.16844649525657296
1776444525751624700,9.606624755859375,1.6007722316175699,-0.002914115614723414,-1.0440651083126664
1776444525776642800,9.631642822265626,-0.001197100830078125,-0.9407672309234738,-2.7176868875637648
1776444525801660700,9.65666064453125,-0.552453849774599,-1.7099797714419662,-3.1055402499854563
1776444525826679000,9.681678955078125,-1.3825766399383543,-1.9360532568894326,-2.5458739846140146
1776444525851698000,9.706697998046875,-1.0827245093137026,-1.9012242278315126,-0.45057226892411706
1776444525876715800,9.7317158203125,-1.0526268926918505,-0.9540127892047167,1.7930752571493387
1776444525901734000,9.75673388671875,-1.0352928960531949,-0.5760109221791848,0.22960151344314217
1776444525926751700,9.781751708984375,-0.9539701191067695,-0.5673056376760826,0.3698303606055677
1776444525951771000,9.80677099609375,-1.0257651892513036,-0.5825215461822226,1.57729622509256
1776444525976789000,9.8317890625,-0.6320253991395235,-0.7200640403375029,2.3422927553512154
1776444526001806800,9.856806884765625,-0.6289227569490671,-0.4146659660235047,2.2875715696044265
1776444526026826000,9.881825927734376,-0.6094155079245567,0.050488808874040836,2.4449196016110477
1776444526051843800,9.90684375,-0.48641748928725714,0.05066412890832871,2.07154645383209
1776444526076862000,9.931862060546875,-0.09008534459471702,0.25306550073679535,1.216477730721235
1776444526101879800,9.9568798828125,0.10528934346735477,0.37613680380601433,1.1653140913255513
1776444526126898700,9.981898681640626,0.5942676231533288,0.7148911677442491,1.4010795342259108
1776444526151917600,10.00691748046875,0.8322948735058308,0.7438358880039304,1.5889477921806274
1776444526176935700,10.031935791015625,0.3579378243684768,0.19882420746143906,-0.9308708369396627
1776444526201953500,10.05695361328125,0.005327332502603531,0.027896325451601294,-1.4276980765603482
1776444526226972700,10.08197265625,-0.4498457082152366,-0.4306128191526979,-1.0279254360251129
1776444526251990500,10.106990478515625,-0.6316559813052416,-0.43891555073689664,-0.5010073017843067
1776444526277008600,10.132008544921876,-0.23591771085262297,0.7043843137118965,-1.1446303458675742
1776444526302026800,10.15702685546875,0.1720510956197977,0.7988530610226094,-1.290881960450858
1776444526327045600,10.182045654296875,0.8465268124759197,-0.8793148372255265,-1.2533889728806913
1776444526352063700,10.207063720703125,0.9108668904393911,0.09017832010779529,-1.0388692932352424
1776444526377081600,10.23208154296875,0.5193348395049572,-0.2755187583516352,0.4915246031679213
1776444526402100500,10.2571005859375,0.43895781897604463,-1.290306790911406,1.6190984541639684
1776444526427118600,10.28211865234375,0.44959787093400955,-0.4717642196325585,1.2960260453410446
1776444526452136400,10.307136474609376,0.6563344954878091,-0.3154553944805637,0.6029722500693052
1776444526477154800,10.33215478515625,0.3097369803011417,-0.25127379501443353,0.26815327108493076
1776444526502173700,10.357173583984375,-0.09667933603227138,-0.5053545006757602,0.2223222066225484
1776444526527191600,10.382191650390626,0.1664788484454155,-1.3721902704805136,-0.6937366629693656
1776444526552209700,10.407209716796874,0.014346505260467528,-0.6354211790576577,-0.42624819420240817
1776444526577227500,10.4322275390625,0.19692659367918966,-1.2402616341516375,-1.729374207741767
1776444526602246400,10.457246337890625,-0.013342881175875662,-1.2372256274566054,-2.3249885693289336
1776444526627264800,10.4822646484375,0.14219313297271727,-1.6355854785844683,-1.6133846065618096
1776444526652282600,10.50728271484375,0.4363350692570209,-1.101921596410498,-0.30057580525670197
1776444526677300700,10.53230078125,1.266831368908286,-2.0359815117150544,0.9017290597379207
1776444526702319600,10.557319580078126,0.809022718989849,-0.6114338620096444,0.62999886174798
1776444526727337500,10.58233740234375,0.9249708191156387,0.6514015691302716,0.6817112210676074
1776444526752355600,10.60735546875,-0.416744818124175,1.6649904367670416,1.9562593018330632
1776444526777373400,10.63237353515625,-0.5000052851349115,-0.11451222210377454,3.385398224851489
1776444526802392800,10.657392822265624,-1.449390999060869,-0.12795374134853482,3.8056577730983494
1776444526827410700,10.68241064453125,-1.5654682785242795,-1.3332796711973844,1.339461282441765
1776444526852428800,10.7074287109375,-1.8705483729302883,-1.421295808302611,0.5991880553554744
1776444526877446700,10.73244677734375,-1.4151356782376765,-1.279069503712654,-0.46545090829990804
1776444526902465500,10.757465576171874,-1.6669973926752806,0.40457492625042796,-0.09143924342170358
1776444526927483600,10.782483642578125,-1.6587795994281769,-0.48695524942576884,-0.4385593211777508
1776444526952501500,10.80750146484375,-1.1022206524223088,-1.952012019652128,-1.0541503028668462
1776444526977519900,10.832519775390624,-0.39472354045212266,-1.2243174113709479,-1.9753592852309345
1776444527002538800,10.857538818359375,-0.31734336365163324,-0.048475386692397295,-1.4969203736074268
1776444527027556600,10.882556640625,0.2783592607408762,-0.526247139644064,-0.5952570725820958
1776444527052574700,10.90757470703125,0.09956921225488186,-0.7924982851684093,-0.5019860836885869
1776444527077592600,10.932592529296874,-0.0019137246668338775,-0.023491482655354775,-1.039312799219042
1776444527102611500,10.957611572265625,0.6004407588303089,-0.9333397112712264,-1.7650396876238286
1776444527127629600,10.982629638671876,0.9286369404077529,-0.6850681302800774,-1.376880620253831
1776444527152647200,11.007647216796874,0.823273362660408,1.2731031426541506,-0.37945312527976927
1776444527177665300,11.032665283203125,1.0931903737485409,1.2509443562075495,0.2873158165913075
1776444527202684400,11.057684326171875,1.1534417210936545,-0.33216011677235363,2.0087292015217244
1776444527227702300,11.082702392578126,-0.053042438879609105,-1.1133257646087555,3.085692809221148
1776444527252720400,11.107720458984375,1.3294775024354457,-0.11657507291771471,2.568254743248224
1776444527277738200,11.13273828125,1.730841211554408,0.9229134481944143,3.41327758090198
1776444527302757400,11.15775732421875,0.8346434824585914,0.8826028459202497,3.515495846360922
1776444527327775200,11.182775146484374,0.5926490820407867,0.13402736217379568,0.8366974923789501
1776444527352793300,11.20779345703125,0.884824102166295,0.22945655201449988,-1.3320854929767547
1776444527377811500,11.2328115234375,0.6920978827863932,-1.4491881699651479,-2.5364146668732164
1776444527402829300,11.257829345703126,0.5288882652699947,-0.8594454038251191,-1.9250059393048284
1776444527427848400,11.282848388671875,-0.40846214294731614,-0.4125693956030532,-0.8176869408302009
1776444527452866300,11.3078662109375,-0.46581952241659164,0.6814036164231598,-1.15444315322116
1776444527477884400,11.332884521484376,-0.23958617023229598,-1.5379400739990174,-2.5803487934067846
1776444527502902300,11.35790234375,-0.7105839720696211,-0.5448506812945008,-1.2540928833663463
1776444527527921400,11.38292138671875,-0.5572369923979044,0.7336203450683504,-0.45428716126140206
1776444527552939500,11.407939453125,-0.18957213926315306,0.4951979213858023,-1.1876513761442153
1776444527577957400,11.432957275390624,-0.42582068950533863,-0.42624950937665995,-0.30805129223652183
1776444527602975500,11.4579755859375,-0.5950333468288183,1.7898121637001632,0.38499154324978585
1776444527627994400,11.482994384765625,0.29104806192219257,1.2059268183514475,0.010951602125167846
1776444527653012200,11.50801220703125,0.8610755623102188,0.01456982915494591,-1.0010063763741404
1776444527678030300,11.5330302734375,0.44935354078412054,0.2638763061517849,2.4898083985209465
1776444527703048200,11.558048095703125,-1.5639689798772334,-0.872495512599498,4.05224768461287
1776444527728066600,11.583066650390625,-0.3335176688611507,-0.8229649542983621,2.934011132413149
1776444527753085400,11.60808544921875,0.9543798689514398,-0.7184079436935484,1.345077514888346
1776444527778103300,11.633103271484375,1.3869067780971527,-1.7859604567080736,2.070648920470476
1776444527803121400,11.658121337890625,0.6452092903614044,-0.9857217134807258,2.323994297594577
1776444527828139300,11.68313916015625,0.8250795352995395,0.1286273297611624,-0.5663489580057561
1776444527853158100,11.708158203125,0.3436059321552515,-0.0903971139576286,-0.779383221399039
1776444527878176500,11.733176513671875,-1.7548697373956441,-0.5050321003209799,-0.09337967343237251
1776444527903194400,11.7581943359375,-2.5740935324043033,-0.08412249066755174,-0.11199706094507127
1776444527928212500,11.78321240234375,0.26010171951651573,0.3448516213674098,2.294785154245049
1776444527953230300,11.808230224609375,-0.30809388926923276,-0.5955977027133107,2.4353007093943653
1776444527978249200,11.833249267578125,0.09352759400308132,-0.1797431844923645,0.8705726547781377
1776444528003267300,11.858267333984376,1.0167997925072907,0.1967930304273963,0.5392370791964233
1776444528028285200,11.88328515625,1.4187223045527935,1.2438655038625002,0.566766525830701
1776444528053303300,11.90830322265625,0.2434498599231243,0.7333106945972889,-0.17777396677862853
1776444528078321400,11.9333212890625,-0.1760071397691965,-0.8715528979871422,0.7481979556709527
1776444528103340300,11.95834033203125,-0.6332838747680187,-0.8677171192165464,0.8681042188379913
1776444528128358400,11.9833583984375,-0.1814882015287876,0.6777044696442782,0.15737287418693302
1776444528153380000,12.008380126953124,-0.15428805991411207,1.1034976866208017,-0.2263384565265849
1776444528178398200,12.033398193359375,-0.31823066788017745,1.0209870881292968,-0.9566768207821994
1776444528203417000,12.0584169921875,0.004721183302998542,0.6650324004020541,-1.6340123840488492
1776444528228435000,12.08343505859375,0.06000117197632789,-0.38914121027514337,-1.5694406892865895
1776444528253453000,12.108453125,-0.16319500446915625,-0.02506970545724034,-1.814721856290102
1776444528278471000,12.133470947265625,0.2238905884504318,0.2795611838765442,-2.2426583689056336
1776444528303489300,12.1584892578125,0.5260860673308372,0.431348293820396,-2.2174529082395136
1776444528328508200,12.183508056640624,0.45751463540792464,0.38449659933969377,-2.2239286801248785
1776444528353526000,12.208526123046875,0.39703649356961246,-0.18311324544735252,-2.175014280960709
1776444528378544000,12.233544189453125,0.20860475651323795,0.11229739559851586,0.9397568848371505
1776444528403562000,12.25856201171875,-0.24608780721127985,-0.292070244576782,0.5961597935754805
1776444528428580000,12.283580078125,-0.35229660361111165,-0.5534514825098216,-0.2585561705749482
1776444528453599000,12.308598876953125,0.15827157659232616,-0.7414636059146374,0.04303147860541939
1776444528478617000,12.3336171875,-0.6887935805439949,-1.739592088764906,-1.1337271859940141
1776444528503635200,12.35863525390625,-0.7605413044154643,-1.0671662901759147,0.19569990142844615
1776444528528653000,12.383653076171875,0.20593466052114962,0.06413560489993542,1.747190434939414
1776444528553671200,12.408671142578125,1.250546004539728,-0.03014035978503525,0.2552560330510139
1776444528578690000,12.43368994140625,0.6161743345350027,-1.1670831468246876,-0.28580329313650726
1776444528603708000,12.4587080078125,1.1457324618905782,-0.7694866082195192,0.047487727361917496
1776444528628726000,12.48372607421875,0.587239916473627,-0.33305684641636907,0.19076704813614487
1776444528653743900,12.508743896484376,0.539031473621726,-0.06741996033284813,0.3373974329039454
1776444528678762200,12.53376220703125,0.77524553707242,0.33005269616432487,0.6380778310462832
1776444528703781000,12.558781005859375,0.5604635532289743,0.37943474937286226,0.7219096682041883
1776444528728799200,12.58379931640625,-0.09604922143518924,0.07925711312089115,1.0381719586208462
1776444528753817000,12.608817138671874,-0.5271843839615583,0.3371887220567092,0.8869427017554641
1776444528778835000,12.6338349609375,-0.0998895302504301,0.9082659141607582,0.7248042206019163
1776444528803853000,12.65885302734375,-0.015031564915180205,0.7363202516768127,1.0046598573803902
1776444528828872200,12.6838720703125,-0.35680151381492614,0.23038725699335336,1.0660548218026757
1776444528853890300,12.708890380859375,-0.2522486679285765,0.7321328099243343,0.6416299705699086
1776444528878908200,12.733908203125,-0.472599976336956,-0.39338604477066547,0.9516744093850255
1776444528903926000,12.758926025390625,-0.12558160538971425,-0.5498318672405555,0.5270484826222062
1776444528928944000,12.783944091796876,0.6406827528476715,0.08372739040274173,1.0400658095434308
1776444528953963000,12.808962890625,0.10017419241070746,0.28248540076017375,0.6663331808023154
1776444528978981000,12.833981201171875,-0.6903443171173334,0.7728273700147866,-0.23751330948099492
1776444529003999000,12.8589990234375,-0.5261830979645252,0.5746615168642253,-0.3399881800495088
1776444529029017000,12.88401708984375,-1.6788649406015872,0.019043430905044078,-0.8523346219718456
1776444529054035200,12.90903515625,-0.8190724038392305,1.4710595177724957,1.1456444913461803
1776444529079054000,12.93405419921875,0.05583820707798004,0.12440218634679913,0.5873861930765211
1776444529104072200,12.959072265625,-0.6850853736758231,0.9825108616754412,0.8722416839689016
1776444529129090000,12.984090087890625,0.4955050511062145,-1.6523045581951736,0.33610900052860376
1776444529154104300,13.009104248046874,0.6155605865508318,-1.2261607742153107,0.5929303832001984
1776444529179122200,13.0341220703125,0.19843816728591918,-0.8831384871669113,-1.1494763245940207
1776444529204140300,13.059140380859375,-0.1170084228336811,-1.2993756480298935,-0.7993988583371042
1776444529229159200,13.0841591796875,0.9976485173135995,-0.5694932473808527,-0.388078841740638
1776444529254177300,13.10917724609375,0.8382850538313388,-0.27360709777772424,-0.3280809576999396
1776444529279195400,13.1341953125,0.38185821366012096,0.0013495149128139017,-1.035090213087946
1776444529304213200,13.159213134765626,-0.20600655671358106,-0.7250758771501481,-2.5683380376175045
1776444529329231400,13.1842314453125,-0.13149462882578372,-0.5757901555679739,-0.9680247287485748
1776444529354250200,13.209250244140625,0.44211014552712435,0.702462771064788,1.026503878789395
1776444529379268000,13.23426806640625,-0.017961188626289367,1.5607299979560076,1.2328463894590735
1776444529404286200,13.2592861328125,0.326404037463665,1.4348577390566468,0.7571862948991358
1776444529429304000,13.284303955078125,0.3120774059474468,0.8569913617365061,0.24283538128659127
1776444529454322200,13.309322265625,0.48319911176264285,-0.11208470269590616,0.3235095581311732
1776444529479340300,13.33434033203125,0.2773737568348646,-1.0101219221785664,0.38846564910113807
1776444529504359200,13.359359130859374,-0.7439736159741878,0.061224576291441915,0.3137907857365906
1776444529529377300,13.384377197265625,-0.08188976317942143,-0.7636098982058465,0.759622070678696
1776444529554395100,13.40939501953125,-0.2982055324614048,-0.4820514030322432,0.9654063629437237
1776444529579413200,13.434413330078126,0.1600350791335106,-0.9097234194926918,1.2902867710366845
1776444529604431000,13.45943115234375,0.09969429993927478,-0.8488362584620713,1.157972934782505
1776444529629449200,13.48444921875,0.21163842512071132,-1.0260551121085881,0.33826778599768875
1776444529654468400,13.50946826171875,0.9912012408703565,-0.9925283978208899,0.18483356643393634
1776444529679486200,13.534486328125,0.25061434472501276,-0.8153504607066512,0.7092445401594042
1776444529704504300,13.55950439453125,-0.603663228008151,-0.4605686161510646,0.640470133010298
1776444529729522200,13.584522216796875,0.40117724663615223,0.6219818517699838,0.059823842648044225
1776444529754540300,13.609540283203126,-2.388738718575239,4.780522211673856,-5.075509951132536
1776444529779558100,13.63455810546875,0.793007988256216,0.2059318840421736,-0.28346454799063503
1776444529804577000,13.659576904296875,0.4814928923666477,-0.35356852324306964,-0.9731749511186033
1776444529829595400,13.684595458984376,0.6117652859210968,-0.024279066536203025,-1.2265315072238445
1776444529854613200,13.70961328125,0.7230565001517534,0.23802571598254144,-1.0841313073717056
1776444529879631400,13.73463134765625,-0.3385322821527719,0.21158881382532416,-0.7425429986491799
1776444529904649200,13.759649169921875,0.026224574580788612,-0.2625749777622521,0.38984935854449865
1776444529929667300,13.784667236328126,1.0175526567012072,-0.5762147376555949,0.24114881643913685
1776444529954686200,13.809686279296875,0.9144622845828533,-0.4164819659369066,-0.5718178178709
1776444529979704000,13.8347041015625,0.4032610671728849,0.63389221592471,-1.1416546910576522
1776444530004722200,13.85972216796875,0.30520810469985005,-0.1481449540492147,-1.0656706447906792
1776444530029740300,13.884740234375,-0.056923664227128024,-0.13946787272728978,-0.9006585078969598
1776444530054758400,13.90975830078125,-0.6699515174299479,-0.3484457734018564,-0.05266089221611619
1776444530079776300,13.9347763671875,-0.5333107578873634,-0.761182671058923,0.5322318035442382
1776444530104795100,13.959795166015626,-0.5984171440482139,-0.18136106801778076,0.1572814695764333
1776444530129813200,13.984813232421875,-0.05109188933372497,-0.051194509457983074,0.45342634318098424
1776444530154831600,14.00983154296875,-0.6607575726270676,-0.7110668602157384,0.11621668793410062
1776444530179849700,14.034849609375,-0.7769459112495184,-1.2663975075356662,-2.172100731601566
1776444530204867600,14.05986767578125,-0.6343471200853585,-1.015911611495912,-1.5388403838396072
1776444530229885700,14.0848857421875,-0.26010288856029506,-0.4122080149447545,-1.8265411811605095
1776444530254904600,14.109904541015625,0.0437882883220911,-0.2024969046248123,-1.9871673580549656
1776444530279922400,14.13492236328125,0.7317822429209947,-0.12477175031155346,-0.9984149716414511
1776444530304940800,14.15994091796875,0.6060720427155495,-0.5475274627557024,-0.3583770925685763
1776444530329958700,14.184958740234375,0.1765472379952669,-0.8496122112706304,-0.9796437818065286
1776444530354976800,14.209976806640626,0.6120645611286163,0.15855094152297824,-0.5555789960578084
1776444530379994600,14.23499462890625,0.5090115984112024,0.19507420727815478,0.4428016349226236
1776444530405012500,14.260012451171875,0.26849194672107696,-0.098088362579979,1.0482225202530622
1776444530430031600,14.285031494140625,-0.019995909324288366,-0.34539548245314505,1.2064862057998775
1776444530455049500,14.310049560546876,-0.14732581968605518,-0.6484060405761003,1.0698803714402019
1776444530480067600,14.335067626953125,-0.2217699430346489,-0.3197367981268093,1.8948424178399144
1776444530505085700,14.360085693359375,-0.09840601369440555,-0.2672135242830962,2.331721823106706
1776444530530103800,14.385103759765625,-0.15510522151589393,0.030733612970449027,2.006896433136612
1776444530555121700,14.41012158203125,-0.21623510526120662,0.31248660780284554,1.9931386875495314
1776444530580139500,14.435139404296875,-0.09268763604760169,0.49206703948155045,1.7535707836262882
1776444530605158700,14.46015869140625,0.010063128852844237,0.6188306942626833,1.6264748281508683
1776444530630176500,14.485176513671876,0.07601122653484343,0.5475506975008174,1.4513964936643837
1776444530655194600,14.510194580078124,-0.05646364549994468,0.1347626176457852,1.6531721348099409
1776444530680212500,14.53521240234375,-0.03483750462532043,0.07253649962898344,1.8661282184004782
1776444530705230600,14.560230712890625,0.15381050553023815,-0.15115764380074106,1.613980088236928
1776444530730248700,14.585248779296874,0.2864005283772945,-0.20427502021323887,1.7227676490835844
1776444530755267600,14.610267578125,0.40128129153251646,-0.032689720040862444,1.777821427785605
1776444530780285700,14.63528564453125,-0.3236544464945793,0.3712463283507153,-1.8475443678312002
1776444530805303600,14.660303466796876,-0.3613695523828268,-0.21444692493649198,-2.9792008119657636
1776444530830321700,14.68532177734375,-0.45615328392684457,-1.2604293929114938,-0.9322866950869559
1776444530855339500,14.710339599609375,-1.257226505216956,-0.34606720770224925,-1.3478979791365564
1776444530880357400,14.735357421875,-1.1033633927166462,-0.11621391145512461,-1.0052390455078333
1776444530905375500,14.76037548828125,-0.6434574782580137,-0.13527396470140665,-1.4514675130739807
1776444530930393600,14.7853935546875,0.1266851827174425,-0.11861353820906952,-1.6695849249504506
1776444530955412700,14.810412841796875,0.6697007575392723,-0.45745187237001955,-0.7380038208495825
1776444530980430600,14.8354306640625,0.9608341596573591,-0.35604967253431674,-0.6031565936602652
1776444531005448700,14.86044873046875,1.1484306149333714,-0.8038811183176934,-0.37458698054812845
1776444531030466600,14.885466552734375,0.4593494496196508,-1.0248594725832343,0.7692067683648317
1776444531055484400,14.910484375,0.46798108436465263,-1.2322191974714398,1.0387774502333254
1776444531080502500,14.93550244140625,-0.10777531506419182,-0.5091602131016553,0.2413651626035571
1776444531105520400,14.960520263671874,-0.25049860939085483,-0.6954546458683908,0.2641170561050996
1776444531130539800,14.985539794921875,-0.3307067030936479,-0.544519768839702,-0.1541403585391119
1776444531155561000,15.01056103515625,-0.13721066838502882,-0.18652663408741355,-1.0625796199727804
1776444531180579000,15.0355791015625,0.20639584829211233,-0.8237073701635003,-1.038439085124433
1776444531205597000,15.060596923828125,0.08120119639337062,-1.2141912272192537,-0.6922798882897943
1776444531230614800,15.08561474609375,0.10456979702115059,-1.6807690206572412,-0.71797598201707
1776444531255633000,15.1106328125,0.18833529094457624,-1.2924024480164051,-1.0686385546855628
1776444531280650800,15.135650634765625,0.6711924574017525,-0.3852589620143175,-1.028952733246237
1776444531305669000,15.160669189453126,0.7280611765712499,-0.5773324896391481,-0.7459495191570371
1776444531330688000,15.18568798828125,0.2366138764232397,0.9595882512494921,-0.9527763792775571
1776444531355705900,15.210705810546875,0.8433557812243699,0.12471629379726945,-1.5100317841149866
1776444531380724000,15.235723876953125,0.6564812104821205,0.24233634572327137,0.0807251033142209
1776444531405741800,15.260741943359376,-0.24078970080316064,-0.039063670952990646,0.4512758140835911
1776444531430760000,15.285760009765625,0.8220178096413612,-2.032653244075179,0.3831218769203871
1776444531455777800,15.31077783203125,0.43496553446948527,-1.1834946948561818,0.21853870602846145
1776444531480796000,15.3357958984375,-0.9579723404854535,-0.31674028319194913,-0.4511261034145951
1776444531505814000,15.36081396484375,-0.7411205646306276,-1.506413739748299,0.6959929905287922
1776444531530833000,15.3858330078125,-0.04989186589419842,0.5332464604794979,2.8801369188845154
1776444531555851000,15.41085107421875,-0.7428115864574909,0.8974667261183261,3.52572819430083
1776444531580868900,15.435868896484376,-0.9619441667258739,-0.3934618499532342,3.0656521839722988
1776444531605887000,15.460886962890624,-0.29927754560708997,-0.7743235999219119,2.529290806342661
1776444531630904800,15.48590478515625,0.5656494314342737,-1.5698140526436268,1.8279580622211098
1776444531655923000,15.5109228515625,0.8191711880385876,-0.6588168138228356,1.4520087803438304
1776444531680940800,15.53594091796875,1.1590665752381086,0.4668511304866522,0.08377535773031414
1776444531705959200,15.560959228515625,0.7210656185954809,-0.006335486631840467,0.9466817887295037
1776444531730978000,15.58597802734375,-0.20742168420851229,1.1925915359601378,0.49215822489634153
1776444531755996000,15.610995849609376,0.9738923786729574,-1.261333648274839,-0.3240277367863804
1776444531781014000,15.636013916015624,-0.12953180432021616,0.0021506752278655766,-1.522785759487003
1776444531806032000,15.661031982421875,0.209917592677474,-0.8925135606903583,-1.774889758247882
1776444531831050000,15.686050048828125,-0.46909167595505713,0.3163387897189706,-0.45102432354055344
1776444531856067800,15.71106787109375,-0.5351175150483847,0.7236971361428499,-0.6941406406603753
1776444531881086000,15.7360859375,-0.17483634242415427,-1.98075734488219,-2.3615438376575706
1776444531906103800,15.761103759765625,-1.030745900273323,0.043862522602081296,-2.738054260548949
1776444531931122200,15.7861220703125,-1.0791618483960628,-0.7171097936417907,-1.0306639941435307
1776444531956141000,15.81114111328125,-1.1195037956565619,0.1186461801033467,-0.6087414080552757
1776444531981159000,15.836158935546875,-0.6316746860057115,0.2352696952726692,-0.3285495250597596
1776444532006177000,15.861177001953125,-0.4560515771180391,-0.26823483015485106,0.2778174089491367
1776444532031195000,15.88619482421875,-0.07601239557862281,-0.679675331325829,-0.11839496355494483
1776444532056213000,15.911212890625,-0.060604398566484446,0.0390255308996886,-0.0038890433277934786
1776444532081230800,15.93623095703125,0.33191315627396106,-0.06926482101455331,0.08521477941628545
1776444532106249000,15.9612490234375,0.0629810645699501,-0.615551672592014,-0.026903058364242314
1776444532131267000,15.98626708984375,-0.07821838119029999,-0.15763547064587474,-0.13474194018393754
1776444532156281000,16.011281005859374,0.16511749696433542,-0.38242618627380576,0.7267201372258365
1776444532181300000,16.036300048828124,0.7165291442096233,1.42861782175377,3.0811563348352906
1776444532206317800,16.06131787109375,0.6723965724945068,1.2476998213283716,3.440482398691773
1776444532231336000,16.0863359375,0.06518763470351696,-4.681466794160008,0.7369076231107116
1776444532256353800,16.111353759765624,1.2767688255548477,-0.7937748079102486,2.9524709182113407
1776444532281372000,16.136371826171874,0.18167349496781826,-0.7910904641970992,-0.12156199448481202
1776444532306389800,16.1613896484375,1.1071598623901604,0.4020166200697422,-0.8315442743342369
1776444532331408000,16.186407958984375,0.4394248519659042,0.0758111739180982,-1.4390896775379776
1776444532356426000,16.211426025390626,-0.17994740182757377,0.08425013563521205,-0.8576390119902789
1776444532381444000,16.236444091796876,-1.545149713116884,1.5139397513389588,0.13109189324378967
1776444532406462000,16.2614619140625,-3.766066351944208,-2.1104590989418326,0.9960608097307383
1776444532431480800,16.286480712890626,-0.24285364759564398,0.70557841886729,0.9810844821341336
1776444532456499000,16.3114990234375,0.397999785643816,1.2729017748631537,1.0735108368970454
1776444532481516800,16.336516845703127,1.2789648742944002,0.7300682786099613,0.42163638955801724
1776444532506535000,16.361534912109374,1.0475129106789827,0.3084831077825278,0.49103974226042624
1776444532531552800,16.386552734375,-0.11240706651806831,-0.22193251318521795,1.2723570004619658
1776444532556571000,16.41157080078125,-0.24763152952194212,-2.2501095616944133,0.7395107913464307
1776444532581589000,16.436589111328125,0.725276514288783,1.6399262842677533,-0.9820378373362123
1776444532606606800,16.46160693359375,0.18852116890549658,0.9162570590451359,-1.3113624384216964
1776444532631625000,16.486625,0.35414193921685216,0.44495526929255574,-0.2415954642280936
1776444532656642800,16.511642822265625,0.17599135767817498,-0.807848852904886,0.17922347146719694
1776444532681661000,16.536660888671875,0.7298807932138442,-0.3142579648569226,-0.10840338383466004
1776444532706679800,16.5616796875,0.7363730778425932,0.42189226401522756,0.016359452518075704
1776444532731698000,16.586697998046876,0.16347557497620582,0.7660887094095349,1.7570517576098441
1776444532756715800,16.6117158203125,-0.5099380656063557,-1.706431139049679,1.3441948868349194
1776444532781734000,16.63673388671875,0.5953343756020069,-1.2134303989145905,3.078665979324281
1776444532806752000,16.661751953125,1.268528820475936,-0.8533174955293535,1.5717697167560458
1776444532831769900,16.686769775390626,0.7248392919152975,-0.1468628783494234,1.565796633695811
1776444532856788000,16.7117880859375,0.2583078218370676,-0.43321817934550344,1.1600334475088865
1776444532881805800,16.736805908203124,0.7697767502725124,0.7444673908405005,0.45235133436061437
1776444532906824000,16.761823974609374,-0.4356961868315935,0.3594152034446597,0.5851106493599713
1776444532931841800,16.786841796875,0.0688543405175209,-0.12564268792718647,-0.5979766337390988
1776444532956860000,16.81185986328125,-0.46762218792438504,0.3183370508641004,-0.5526668349381536
1776444532981877800,16.836877685546874,-0.45371699669063087,0.1545097398407757,-0.8879181226588785
1776444533006897000,16.86189697265625,-0.19334639710485935,-0.13356800103373825,-0.7214771220058203
1776444533031915000,16.8869150390625,-0.30319091965854167,0.016482713571563362,-0.6113994117507711
1776444533056932900,16.911932861328125,0.0405073669552803,0.5355621170107275,-0.4979435668321326
1776444533081951000,16.936950927734376,-0.10602116487324237,0.09047569561917335,-0.2620108045408502
1776444533106968800,16.96196875,-0.37393560396730896,0.29894864244628694,0.40973409911189224
1776444533131987000,16.986987060546873,-0.5468722502499819,0.5985125307140872,0.8475536713056265
1776444533157009200,17.012009033203125,-0.7032476378321647,0.7811028847984969,0.14742811101675032
1776444533182027000,17.037027099609375,-0.6683902594625949,1.4818908545188605,-1.0580029597070066
1776444533207045000,17.062045166015626,-0.7817904286712407,0.6441380809333175,-0.9417243855178355
1776444533232063000,17.08706298828125,-1.0094564440071583,0.1617903618356213,0.27065708886571227
1776444533257081000,17.1120810546875,-0.9064625180006026,0.8942597467705606,0.45112493437081574
1776444533282099000,17.137098876953125,0.06185585993230343,0.6244044027417898,-0.4140022414177656
1776444533307117000,17.162116943359376,-0.1111439147144556,0.41105055200532076,-1.0751061432644724
1776444533332136000,17.187135986328126,-0.7060089192390442,0.19834930169237777,-0.6722717040058225
1776444533357153800,17.21215380859375,-0.7668658312618732,-1.383415574980527,-1.4032894653603434
1776444533382172200,17.237172119140624,0.3550082006573677,-1.0027945018999278,-1.2026753422748298
1776444533407190000,17.26218994140625,0.5009779295593499,-0.7855651249043643,-0.6874635740492493
1776444533432208100,17.2872080078125,0.29572072990834714,-0.4482179243503138,0.11651778977252543
1776444533457226000,17.31222607421875,0.0993622915059328,-0.656105362907052,-0.16282569623272866
1776444533482244000,17.337244140625,0.14922142417430878,0.0680864066186361,-0.48354226264450695
1776444533507262000,17.362261962890624,0.3001660188794136,0.6431272233903408,-0.7383869749482721
1776444533532280000,17.387280029296875,0.8203279568582773,0.6598972294706851,0.9096838911999017
1776444533557298000,17.4122978515625,0.5938444293051958,-0.1165098439280875,1.6451165463872253
1776444533582316000,17.43731591796875,-0.6379518665790558,0.1342381188476458,0.8753163421738892
1776444533607334000,17.462333984375,-0.4055880488157272,0.6277326703816652,0.7256359952509402
1776444533632352000,17.48735205078125,-0.4210556670606136,0.5118052477177232,1.2609458180010318
1776444533657370000,17.5123701171875,-0.5164046312719583,0.07066847726739943,0.8930329083893448
1776444533682389000,17.537388916015626,-0.6842793179899453,0.17093465881049633,0.5836467142872512
1776444533707407000,17.562406982421876,-0.6912731224000453,0.09299845556244253,0.8464700407873839
1776444533732425000,17.587425048828123,-0.5369073210746049,-0.1757499501377344,0.8755589918233454
1776444533757443000,17.612443115234374,-0.4085346236616373,-0.4772149593191221,1.1577405873313547
1776444533782461000,17.6374609375,0.7543138082027435,-0.7892885293416678,-0.007481149535626172
1776444533807478800,17.662478759765627,0.4877992990344763,-1.2724797500587999,-1.2769275232478976
1776444533832497200,17.6874970703125,0.5802063645750284,0.1828734453421086,-1.860800301375985
1776444533857515000,17.712514892578124,0.9759247612833977,0.5792420130548999,-1.9600489033743738
1776444533882533000,17.737533203125,0.6238029297173023,0.2259995068958029,-1.9920370099179445
1776444533907551000,17.762551025390625,0.6247118612557649,0.6048775722339749,-1.6134395516194402
1776444533932569000,17.787569091796875,-0.4117185143947601,0.1967836780771613,-0.7735016160145401
1776444533957587000,17.8125869140625,-0.06529343316555022,-0.1998944305088371,0.6528571017008274
1776444533982605000,17.83760498046875,-0.1423620597988367,0.4013865785378963,1.3811661886185407
1776444534007623000,17.862622802734375,0.12486030537784099,0.2706600114751607,1.216388956459239
1776444534032641000,17.88764111328125,-0.13222645023167132,0.6758504392754286,1.1206249817062168
1776444534057659000,17.912658935546876,0.13966390675604343,-0.2880421581044793,1.4206862981021404
1776444534082678000,17.937677978515627,-0.2672568519681692,0.11542171989781781,1.4019078017435966
1776444534107696000,17.962696044921874,-0.4936667297631502,-0.049855785367242056,0.7019793714620173
1776444534132714000,17.9877138671875,0.42759120630919933,-0.8125152372807264,0.3560675004519522
1776444534157728300,18.012728271484374,-0.01622691217958927,-1.3031322240844367,-0.07767568001518957
1776444534182746000,18.03774609375,-0.12324176426529884,-0.9905533714208752,0.6386477398887276
1776444534207764200,18.06276416015625,0.05483867464661598,-1.1217897146366536,0.4716502013314515
1776444534232782000,18.087781982421873,-0.6140455058127642,-0.08384696166180074,0.49606126021686936
1776444534257800200,18.11280029296875,-0.7322650580018758,0.018446341794729232,0.12471464982945471
1776444534282818300,18.137818359375,-0.18894436275362966,-0.012488017912209033,0.5941271187040954
1776444534307836400,18.16283642578125,0.7318313427597284,0.11574174563242122,-4.089871605086326
1776444534332854300,18.187854248046875,-0.7027589775323867,1.9071463113568723,-2.6430931266114115
1776444534357872000,18.2128720703125,-0.12964753965437412,3.0455019608691334,-2.056501883304864
1776444534382890200,18.23789013671875,0.4208078297793865,1.072943777598813,-1.3490261063836515
1776444534407908000,18.262908203125,0.5705529855668544,-0.6354392261710018,-0.9019524932302534
1776444534432926200,18.28792626953125,1.271197162902355,-1.096555612397939,-1.0183223989646881
1776444534457944000,18.312944091796876,0.6280377908080816,-0.3312095015166327,-1.0279087771512567
1776444534482962200,18.337962158203126,-0.26449147890806196,0.3885555558742955,-0.2960668399322778
1776444534507980000,18.36297998046875,-0.29392449414134025,-0.6397095239013433,-1.4498571552678943
1776444534532998400,18.387998291015624,0.3904863412737846,1.5561661971718073,-1.8189027952365575
1776444534558016300,18.413016357421874,0.298798237657547,0.8299614621222019,-2.1772443781003354
1776444534583035100,18.43803515625,-0.29773265425264833,-1.4447674309134482,-2.8212440004110335
1776444534608053200,18.46305322265625,0.17573416804671285,-1.8804596722222864,-4.025568352001905
1776444534633071000,18.488071044921874,0.9892647198498249,-0.9115863638203591,0.9017220454752445
1776444534658089200,18.513089111328124,0.7127420268863439,-1.1971714110963045,1.417658182452619
1776444534683107000,18.538107177734375,-0.29778935287594793,-0.7503737653400748,1.429288122230768
1776444534708125200,18.563125244140625,-0.521636686706543,-0.4908825424047187,1.0425602567076682
1776444534733143300,18.588143310546876,-0.5712257702618837,-0.24177041893620044,2.2141177724674344
1776444534758161400,18.613161376953126,-0.309324307847023,-0.49482558094207196,2.605496970927715
1776444534783179300,18.63817919921875,-0.09563421089351176,-0.0061001069733873006,1.4811650244623422
1776444534808197400,18.663197265625,-0.11783961296081542,0.12594530586926267,1.2795140326097607
1776444534833215200,18.68821533203125,-0.3442448145806789,0.11507721730908378,1.9955485251702367
1776444534858233000,18.713233154296876,-0.3166483671247959,0.005117233415879309,2.0696103712029754
1776444534883251200,18.738251220703123,-0.1178185701727867,0.06848269419353455,2.026627115653455
1776444534908269000,18.76326904296875,0.0390174206584692,0.0030298692151904103,2.1457886248677966
1776444534933287200,18.788287109375,0.2827244702130556,0.24454306198731063,2.7107795923933384
1776444534958305000,18.813304931640626,0.36069735220968724,-0.03480561164971441,2.3785830891333517
1776444534983323100,18.8383232421875,0.23039280995130537,0.9407381509594619,-2.3394664458841086
1776444535008341200,18.86334130859375,0.3130494658499956,-0.5368258533362299,-3.113487409597635
1776444535033359400,18.888359375,-0.3840636147499084,-0.15077873661890626,-2.4970795585677026
1776444535058377200,18.913377197265625,-0.4920592945665121,0.15880268779434262,-1.0856287063226102
1776444535083395300,18.938395263671875,-0.3359668155789375,-0.554027601897344,-0.6450768961533904
1776444535108413200,18.9634130859375,-0.20394144087731836,-1.228099633323401,0.09568564881980418
1776444535133431300,18.988431396484376,1.0894342360854148,-1.5409721351712942,-1.385216633053124
1776444535158449200,19.01344921875,1.5636878248482942,-1.9701222613602876,-0.8053864083141088
1776444535183467300,19.03846728515625,1.1685042656689881,-1.3479080621391535,-0.7352505035534501
1776444535208485400,19.0634853515625,0.9458259756177664,-1.2855340235516428,-0.01765679885223508
1776444535233503200,19.088503173828126,0.0889274067312479,-0.9224033067151903,1.2938564462170004
1776444535258521300,19.113521240234373,0.09960428356826305,-1.1282390369065105,1.2609198067769407
1776444535283539200,19.138539306640624,-0.022446809607744214,-1.0387427442461252,0.49080797933116554
1776444535308557300,19.163557373046874,-0.3141600574404001,-1.4487630764208732,1.1700262145392597
1776444535333575200,19.1885751953125,-0.7473918999850749,-1.4279106963977217,1.2689401777558027
1776444535358594300,19.21359423828125,-1.024248354947567,-0.9890335414424538,0.8894590684905648
1776444535383612200,19.238612060546874,-1.0483803411632775,-0.3407502504631877,-0.581777267153561
1776444535408630300,19.26363037109375,-1.0057798013210295,0.42692309778928755,-0.9252296161822974
1776444535433648400,19.2886484375,-1.7889742515712976,0.920923005029559,0.032620924554392694
1776444535458666200,19.313666259765625,-1.4679267727047205,0.5325742603063583,0.5648640166776254
1776444535483684400,19.338684326171876,-1.4611270295619965,-0.2180745956480503,1.0419270733706651
1776444535508702200,19.3637021484375,-1.345193542483449,-0.3319339068010449,1.3519608446612954
1776444535533720300,19.38872021484375,-0.8919581918299198,-0.9939116688728332,0.1582700239560567
1776444535558738200,19.41373828125,-0.6796873140245676,-1.624952879280597,-0.7782140314891934
1776444535583756300,19.43875634765625,-0.2629495101630688,0.43323944132924075,-1.1866053742226212
1776444535608774100,19.463774169921876,0.303346987003088,-1.0257625589028,-0.6662594579789787
1776444535633792300,19.488792236328123,0.6255833833932877,0.2327227142035961,-0.151638495253399
1776444535658810400,19.513810302734374,1.0930676241517066,0.0025912586022168397,-0.07717186781205236
1776444535683828500,19.538828369140624,-0.07631283982992172,2.4321651878476143,0.5384000438503921
1776444535708846300,19.563846435546875,1.5332336498737333,-0.4956939978070557,1.0597373822841794
1776444535733864200,19.5888642578125,0.855948136293888,0.853207093957439,1.7643989055022595
1776444535758882300,19.61388232421875,1.5274129808962345,-0.3951254723165184,2.193959073796868
1776444535783900200,19.638900146484374,1.1456985596209763,-1.399345403909683,2.483307346063852
1776444535808918300,19.663918212890625,0.602781184476614,-0.2840430419983342,1.387323834465444
1776444535833936100,19.68893603515625,-0.3205903827488422,0.5690773235237225,1.1235173421468585
1776444535858954200,19.713954345703126,-0.06767009916901588,-0.5188232367210089,1.633597811898589
1776444535883972000,19.73897216796875,0.33687925424873827,-1.8892054348662495,1.6215373717486858
1776444535908990200,19.763990234375,-1.0789672026067971,0.6111348790630697,0.9282062939055263
1776444535934008300,19.78900830078125,-0.2852688939988613,-0.41312494712658226,-0.6877056391768157
1776444535959026400,19.8140263671875,0.2844154920399189,-0.7762165740616619,-0.7966451026495546
1776444535984044300,19.839044189453126,0.36988369822800155,-1.1455888156361878,-1.284054598648846
1776444536009062400,19.8640625,0.10739011513888835,-1.1060950827028602,-0.7236784314423799
1776444536034080300,19.889080322265624,-0.185637137901783,-0.262351745199319,-0.42819414063841105
1776444536059098400,19.914098388671874,-0.18688509213626384,-0.17248724028104914,-1.289786128038168
1776444536084116200,19.9391162109375,-0.048072249251604075,-0.8817861227098852,-0.9319363472793251
1776444536109134000,19.964134033203123,0.0001467149943113327,0.3123230147389695,-0.8451537705570459
1776444536134152200,19.989152099609374,0.09231237299442291,-0.6954892787903547,-1.800846914064139
1776444536159170300,20.01417041015625,-0.06398585769832134,-0.5323037362692877,-1.2818898218303918
1776444536184188400,20.0391884765625,-0.10966215172410011,0.15059064843459055,-0.5871054764389991
1776444536209206300,20.064206298828125,-0.20909224776923654,-0.40456524510663,-0.3856242151301354
1776444536234224400,20.089224365234376,-0.3552466855883598,0.12545991523880512,0.1534234059087932
1776444536259242200,20.1142421875,-0.44377603291273116,0.06824322288185358,0.21712379772923884
1776444536284260400,20.13926025390625,-0.030906010395288466,-0.9706688865818083,-0.8008096019178629
1776444536309278200,20.1642783203125,-0.22611527876257895,-0.7960203218147158,-0.9234458745706826
1776444536334296300,20.18929638671875,-0.07832008799910545,-0.2956407234746963,0.02691701382435858
1776444536359314400,20.214314453125,0.2215115843594074,0.018570771891996265,0.671589128569141
1776444536384332500,20.23933251953125,1.7862310903429983,-0.6003931933615356,3.601319441857934
1776444536409350400,20.264350341796874,0.13241232819259166,-1.3871382487654684,2.7920690515920517
1776444536434368300,20.2893681640625,-0.5423702626556157,-3.6186996157258746,2.445881724641472
1776444536459386400,20.314386474609375,-0.2655710908383131,-0.9560453179456293,1.1717735696632414
1776444536484404200,20.339404296875,1.0272527974605559,2.113848010727763,1.1384307605750859
1776444536509422300,20.36442236328125,0.961576502457261,1.0454728562187403,2.6741359151288866
1776444536534440200,20.389440185546874,-1.2094891870081423,0.41669031145796176,2.358660829567164
1776444536559458300,20.414458251953125,-1.149966153937578,-0.9070926325976848,1.5360390626832843
1776444536584476200,20.43947607421875,1.7323644755989311,1.010912268838659,0.3512832618501037
1776444536609494500,20.46449462890625,1.253546939921379,0.7002449488848448,-0.07144654896780848
1776444536634512400,20.489512451171876,-0.0641097763389349,1.1056574950031937,0.6130594173848629
1776444536659530500,20.514530517578127,-0.12006021161973476,0.2561662249648012,1.3308522979199886
1776444536684548400,20.53954833984375,-0.25478432388603683,-0.9615689036726951,0.45364429678060114
1776444536709566500,20.56456640625,0.7087585102081299,-0.4912964935004711,-0.10584975382909179
1776444536734584300,20.589584228515626,-0.19492811333835125,0.4515936113284901,-0.5393864976044744
1776444536759602400,20.6146025390625,-0.2168196271508932,0.33778581116702405,0.05396647665565833
1776444536784620300,20.639620361328124,0.0020066636472940444,-0.6339002531006932,0.612411401804909
1776444536809638100,20.66463818359375,0.07947393420934677,-0.345417986545898,0.05070830597677268
1776444536834656300,20.68965625,0.46176177145838737,0.3973389836475253,-0.6471864356532693
1776444536859674400,20.71467431640625,0.494942741048336,0.714946916519478,-0.6964781436972319
1776444536884692500,20.7396923828125,0.24863690717220305,0.14661170746679417,-0.40162232352253047
1776444536909710300,20.76471044921875,0.03321837899088859,-0.08375027808798477,-0.4788412453467026
1776444536934728400,20.789728515625,0.0230704944640398,0.5492233434207737,-0.7720493713796138
1776444536959746300,20.814746337890625,0.20033084916472435,0.3436721292592585,-1.6375515179604292
1776444536984764400,20.839764404296876,0.17192308532595632,0.8341538723107427,-1.3013140687465667
1776444537009782300,20.8647822265625,-0.08152677508592605,0.2588783152014017,-0.010074819290637969
1776444537034800400,20.88980029296875,-0.24583587827682493,0.37451175988744945,0.8226328727997839
1776444537059818200,20.914818359375,-0.6096645142495631,0.18196392928175628,1.330764473506063
1776444537084836400,20.93983642578125,-0.718260498046875,0.36099264536183323,-0.7679848253544419
1776444537109854500,20.9648544921875,-0.0810059660822153,0.17908103078920393,-1.1378494535557926
1776444537134872300,20.989872314453127,-0.8625655086070299,-0.307762319227308,-1.5149623723849652
1776444537159890700,21.014890625,-0.558850857335329,0.1946396517857909,-1.181750481537357
1776444537184908500,21.039908447265624,-0.577730329850316,-0.09940598451718688,-0.2827710858337581
1776444537209926700,21.0649267578125,-0.333878903388977,0.08937697712965309,0.7925875708870589
1776444537234944500,21.089944580078125,0.08135317208468913,-0.4344824636602774,0.7450831846512853
1776444537259962600,21.114962646484376,-0.17481588415801524,-0.0465814444382675,0.6125479607313871
1776444537284980500,21.13998046875,-0.1601075598478317,0.3173573191117495,0.4893192020781338
1776444537309997600,21.16499755859375,0.12511457239985466,0.48701395734306424,0.4993123344346881
1776444537335015400,21.190015380859375,0.07712064908146858,0.011622267928346992,0.9071170363865793
1776444537360033800,21.21503369140625,-0.004040799823403358,-0.1910663598762825,0.27863661637753245
1776444537385051600,21.2400517578125,-0.038357495445013046,-0.09533011338040231,0.009742372465878724
1776444537410069800,21.26506982421875,-0.2341787582308054,0.24004596976377068,-0.06427125051096082
1776444537435087600,21.290087646484373,0.3090454909056425,0.5979072217646986,0.1539512291751802
1776444537460105700,21.315105712890624,-0.1435077227026224,0.29136056193746623,0.24164514858871697
1776444537485123600,21.34012353515625,0.22344868990182876,0.1710160534836352,0.3014473639268428
1776444537510141700,21.3651416015625,0.09355565105378627,-0.4844269730571657,-0.06517426376529037
1776444537535159600,21.39015966796875,0.005845218896865845,-0.4585729853544384,-0.05084120250828564
1776444537560177700,21.415177734375,0.2535761171400547,0.3681347356688231,0.7716038195692002
1776444537585195500,21.440195556640624,0.609209756219387,-0.3181158093288541,0.3128650491937995
1776444537610213600,21.465213623046875,-0.3913280527949333,-0.2561753398530185,0.4541073842477053
1776444537635231700,21.490231689453125,0.013200842356681824,-0.303570530093275,-0.7091372803926468
1776444537660249600,21.51524951171875,0.29697745197117326,0.25234186263736336,-0.4288872374691069
1776444537685267700,21.540267822265626,0.5861550438463687,-0.7014562243707477,-0.33600564975198355
1776444537710285600,21.56528564453125,-0.263984113907814,-0.9231796248499303,-0.09077391138076782
1776444537735303700,21.5903037109375,0.07409399473667144,0.2680357273861766,0.5109824600927532
1776444537760321500,21.615321533203126,0.24433774867355823,0.25469719359185544,0.34214619833361354
1776444537785339600,21.640339599609376,-0.5258464133560657,-0.05943240477819927,-0.4391736536838114
1776444537810357500,21.665357421875,-0.35020343072414395,0.4243980728236958,0.5831109269101172
1776444537835375600,21.690375732421874,0.39449382334947586,-1.966920396579057,2.16991593490839
1776444537860393500,21.7153935546875,1.029181135174632,-2.075345992245525,0.42885381012354046
1776444537885411800,21.740411865234375,0.4845423430651426,0.8519104782756417,-3.015469810698926
1776444537910429700,21.7654296875,0.12759294521212577,1.437573866147548,-2.7921722197055816
1776444537935447800,21.79044775390625,-0.7989765412718057,0.28511001364272087,-3.4663024841248986
1776444537960465700,21.815465576171874,0.2645031693458557,0.1219570125512313,-1.690866636301577
1776444537985483500,21.8404833984375,0.31244448569417,-0.560557697785832,-0.9156128428574651
1776444538010501600,21.865501708984375,1.0174585486769676,0.05708944011493586,0.6501930701233446
1776444538035519500,21.89051953125,0.6733762311816215,-0.298721994083561,1.1657436418492346
1776444538060536600,21.91553662109375,0.230391640907526,-0.800753487816453,1.4163909389957785
1776444538085554700,21.9405546875,-0.054554012486338614,-0.5139755774941295,1.195042947700247
1776444538110572500,21.965572509765625,-0.02022796451449394,0.3760862061299383,0.46037871960215265
1776444538135590700,21.990590576171876,0.08923954142034053,-0.985917236052826,-0.057158495896309613
1776444538160607700,22.015607666015626,0.07723521537184715,-0.7507002208154648,0.4273229838270694
1776444538185625900,22.0406259765625,-0.4357090463131666,0.24749349102443083,0.9746166012942791
1776444538210643700,22.065643798828123,-0.10371171888709067,-0.6896522431999444,1.049546754594147
1776444538235661800,22.090661865234374,-0.04972819976508617,-0.09931596814617515,0.7205335575453936
1776444538260680000,22.115679931640624,-0.13169395079016685,-0.8656200738720595,-0.12636077306866644
1776444538285698000,22.140697998046875,-0.5026379717260598,-0.6739005473166704,-0.3952705068103969
1776444538310716000,22.1657158203125,0.2222837377756834,-1.260799979789555,-0.20009996301829813
1776444538335734000,22.190734130859376,-0.39954467699825763,-0.08585724203828722,0.4655560491748154
1776444538360751900,22.215751953125,-0.5381155278205871,-0.00801843475010246,0.7602240551598369
1776444538385769700,22.240769775390625,-0.8327233280509709,-0.03363214742355049,0.2528301210783422
1776444538410787800,22.265787841796875,-0.16460604031085968,-0.10324872275153174,0.4018202207148075
1776444538435805700,22.2908056640625,-0.5152449398428202,-0.06540779852652921,0.36608605951070783
1776444538460823800,22.31582373046875,-0.9934703548461198,0.12265532441316172,-0.41896527065262196
1776444538485841700,22.340841552734375,-1.4751590620458126,-0.5831795716995373,-0.8598822608724236
1776444538510859800,22.36585986328125,-0.03888356514573097,1.9991867355421185,2.0261589136198164
1776444538535878000,22.3908779296875,0.5716162308841943,0.0010763787935487924,0.47913317749798295
1776444538560894700,22.415894775390626,-0.8441448857754469,-0.19566406293008476,0.18801307325288652
1776444538585912800,22.440912841796877,-0.5933879177093505,-0.5090853212345391,-0.22861367144957184
1776444538610931000,22.465930908203124,-0.5785656116306781,0.3837494342342019,-0.15757219615131615
1776444538635948800,22.49094873046875,-0.05910685348510742,0.11916450488902627,-0.27030805623233317
1776444538660967000,22.515966796875,0.28118191694617267,0.4072122159514576,-0.32208719717785717
1776444538685984800,22.54098486328125,-0.02305997307002544,0.30004341541305185,-0.5951387068994343
1776444538711003000,22.5660029296875,0.22753215982317923,0.029977643503993748,-0.44225905247852204
1776444538736020700,22.591020751953124,0.4137298542171716,-0.1305515027567744,-0.18989596439003945
1776444538761038800,22.616038818359375,0.18362696712315082,0.16982509013339875,-0.042159518076479434
1776444538786056700,22.641056640625,0.12142507023215293,0.007435264567285776,0.30687530725970863
1776444538811074800,22.66607470703125,0.2943611319929361,0.1499257730513811,0.4259026687003672
1776444538836093000,22.691093017578126,1.1894921086400747,-0.29403716073557734,-1.905338531282544
1776444538861111000,22.716111083984377,1.4606488906562327,-0.10219839171469211,-1.4473060094803571
1776444538886129000,22.74112890625,0.5048784441292286,-1.0045248328238725,-0.5756836264535784
1776444538911146800,22.766146728515626,0.37390579335093493,0.3114629273109138,3.817417768996954
1776444538936164900,22.791164794921876,-0.9770376909613608,-0.6450269195318221,4.165011309483647
1776444538961182700,22.8161826171875,-0.711550186753273,-0.690760788963735,2.6964319180890914
1776444538986199800,22.84119970703125,-0.8741407955884933,0.063812108566612,-0.8102639512225985
1776444539011218000,22.866218017578124,-0.03840425719618797,0.3153434220060706,-1.935891928847879
1776444539036235800,22.89123583984375,0.4109083670556545,0.09051248396560549,-1.4233074403859673
1776444539061254000,22.91625390625,-0.45494683074653147,0.4017679060056805,-1.0845672145709395
1776444539086271700,22.941271728515623,-0.4382160606980324,0.2836176196604967,-0.20078473041206596
1776444539111289900,22.966289794921874,-0.3378279332756996,-0.37215105863809583,0.9577570902995765
1776444539136308000,22.991307861328124,0.06339782867729664,-0.25976971108317376,1.5251200476534663
1776444539161326300,23.016326416015627,-0.11228139431178569,-0.4218091157764196,0.9516307894390076
1776444539186344400,23.041344482421874,0.15455401737391947,-0.24292758961468933,-0.05252648871410638
1776444539211362300,23.0663623046875,0.5892366432487964,0.1330742992326617,-0.3867807647541165
1776444539236380400,23.09138037109375,0.7870283293247222,0.31073797403722997,-0.7649959457367658
1776444539261398300,23.116398193359377,0.7243915481477975,0.4918164257213473,-0.7726203762006014
1776444539286416400,23.14141650390625,0.432315896743536,0.723051531715691,-1.5770923730835318
1776444539311433200,23.16643310546875,0.8219184409201145,0.9219421189442276,-2.6701395389690994
1776444539336451300,23.191451416015624,-0.00785012897849083,0.6631853842958808,-0.526720565842092
1776444539361469200,23.21646923828125,0.21148411134183406,1.0609431778773666,-0.1039563047653064
1776444539386487600,23.241487548828125,0.42338498679101466,1.3714113950625062,1.092283488036692
1776444539411505400,23.26650537109375,-0.1241845980733633,-0.18877718949317931,-0.41818811226766556
1776444539436523500,23.2915234375,-1.0376643013596534,0.33088293644338845,-2.8224311643689868
1776444539461541400,23.316541259765625,-0.6137497377365827,0.11585048497021197,-1.9221417820453643
1776444539486559500,23.3415595703125,-0.036761750686168666,-0.08700783684551715,-1.4165322471626103
1776444539511577300,23.366577392578126,-0.3800432731926441,-0.006630231794714927,-0.45416232930533584
1776444539536595500,23.391595458984376,-0.5220294854164124,0.5559630269393324,-0.06702060401802883
1776444539561613300,23.41661328125,-0.5336790066778659,0.6177217101074755,0.23582796847624704
1776444539586631400,23.44163134765625,-0.38313831659853453,0.629642595656216,0.4359657975532114
1776444539611649300,23.466649169921876,-0.08487667003571987,0.709784053863585,0.8544364896219223
1776444539636666400,23.491666259765626,-0.4867062431007623,0.07126943883523344,0.7090335277572274
1776444539661684200,23.516684326171877,-0.2325964574754238,-0.4020722957797348,0.37483262587226923
1776444539686702600,23.54170263671875,-0.1880412764340639,-0.7913729344002902,0.48554991267248987
1776444539711720400,23.566720458984374,0.05762801310420036,-0.8535869601204991,0.5471347736436873
1776444539736738600,23.591738525390625,-0.13420271874070167,-1.1840946335107088,0.7976148244645446
1776444539761756400,23.61675634765625,-0.26924948709011076,-1.599691304513067,0.5870008470207453
1776444539786774300,23.641774169921874,-0.35871348491609095,-1.9346734929688274,0.917929668432474
1776444539811792400,23.66679248046875,-0.2765051573067903,-2.1265018867261705,0.7523359322585165
1776444539836810200,23.691810302734375,-0.04920154554247856,-1.9635573498867451,1.6707997075676917
1776444539861828400,23.716828369140625,0.1937748516499996,-2.642418880611658,0.14756488913893698
1776444539886846200,23.74184619140625,0.52292906460464,-3.7145121057957406,-1.4278681724302469
1776444539911864300,23.7668642578125,0.8287339661538601,-3.7349718332394954,-1.8386532053671776
1776444539936882400,23.79188232421875,0.28060207123160363,-2.759382587520778,-0.6956457845263183
1776444539961899300,23.816899169921875,-0.09125088124275207,-2.0398066229611636,0.2128109760314226
1776444539986917400,23.84191748046875,-0.21359248179793355,-0.47514312148112803,0.6355488970905542
1776444540011935500,23.866935546875,-0.41693303417265415,-0.0024217837868258357,0.13632511772215367
1776444540036953300,23.891953369140627,0.6382610786587,1.8806996184580027,0.4809177228271961
1776444540061971500,23.916971435546873,0.8418962300658226,1.1823121340081095,0.7916679718241095
1776444540086989300,23.9419892578125,0.7745750904649495,1.0843869626332074,0.9484710832990706
1776444540112007400,23.96700732421875,1.2833166397631168,1.0374487589128314,0.4556966262005269
1776444540137025300,23.992025390625,2.2356232095718385,1.2050561729967593,0.6370391356483102
1776444540162047200,24.017047119140624,1.8977526061981915,1.2440187947280705,-0.012473697125911712
1776444540187065000,24.042065185546875,1.4896353311657904,0.507726015580073,0.10369520614370703
1776444540212083200,24.067083251953125,1.3630454255163669,0.8314169216275215,0.2291683827228844
1776444540237100000,24.09210009765625,1.5697089848339556,0.25405710559003053,-0.7250399290539323
1776444540262118100,24.1171181640625,1.0300520727902651,0.6227429723355918,-0.5152263812728226
1776444540287136000,24.142135986328125,1.0741121637910604,0.23803682189844547,-0.2242218662314117
1776444540312154000,24.167154052734375,0.8169295465916395,0.33928123735655097,-0.6466336240760981
1776444540337172000,24.192171875,0.6187842247724533,0.36858251596894115,-0.47375864485278724
1776444540362190000,24.217190185546876,0.4999117616325617,0.06809223813780117,-0.8250234211981297
1776444540387208000,24.2422080078125,0.14598492647111416,-0.5798948509404436,0.4464746974121779
1776444540412226300,24.267226318359373,-0.06044891574382782,0.028911183316260573,-0.010736351939290761
1776444540437244200,24.292244140625,0.8037889099895954,-0.8497913672298193,-1.4669057590939103
1776444540462262300,24.31726220703125,0.2171820307224989,0.21244879165552555,-1.1996239188149571
1776444540487279000,24.342279052734376,-0.005790273839235306,-0.13925883308649062,-0.6808641027189791
1776444540512297200,24.367297119140623,-1.1337030014008282,-2.0483416654638944,2.412939824504405
1776444540537315000,24.392315185546874,-2.851107808277011,-2.448586015164107,4.261430533275008
1776444540562333200,24.417333251953124,-1.4104858066052197,-1.105419594594091,1.7786669386990368
1776444540587351000,24.44235107421875,0.8176999464422464,-0.2612761701233685,0.016987375158071517
1776444540612369200,24.467369140625,0.772659027710557,-0.2603837513282895,0.2752703548148274
1776444540637387000,24.492386962890624,0.5977402676999568,-0.22035072388648985,0.6596319295980035
1776444540662405000,24.517405029296874,-0.4050964659065008,-0.17234569465219973,1.411466342075169
1776444540687423000,24.542423095703125,-0.8679635682582855,-0.7074512270018458,1.3811189884759485
1776444540712441000,24.567441162109375,0.23261223956644533,0.873818724027276,1.333921037840843
1776444540737458000,24.5924580078125,-0.8393687574148178,0.10908405957520008,2.0972984424650667
1776444540762476300,24.617476318359376,-0.15805881062448024,0.9496393964260816,2.1446590363159777
1776444540787494100,24.642494140625,-0.27896716350615025,0.9813003168419003,1.927444564628601
1776444540812512300,24.66751220703125,-0.25342940214574333,1.35946785929054,2.0508079094469545
1776444540837530000,24.692530029296876,-0.3403378702700138,1.6415619226455687,1.9443524448096752
1776444540862548200,24.71754833984375,-0.47847149871885775,0.7399512285903096,2.1080320179253818
1776444540887566000,24.742566162109377,0.03761164551377296,0.5400339286625385,1.3671744881451129
1776444540912584200,24.767584228515624,0.8321744619965553,1.0109367456927896,2.804191158801317
1776444540937601000,24.79260107421875,-0.35208500668704507,1.2590060821101068,-1.3102736202716827
1776444540962619100,24.817619140625,0.4122200341761112,1.1436834204062818,1.0732137536466122
1776444540987637000,24.842636962890627,1.7092507265150545,0.17742840474396943,0.3338549379914999
1776444541012655000,24.867655029296873,0.3146855426192283,1.4590841255575417,0.44085634607374663
1776444541037673000,24.8926728515625,0.12011194180697202,1.3438523570075631,-0.4570563702464103
1776444541062691000,24.917691162109374,0.3215986830085516,0.8241855090692639,-0.47040158950984473
1776444541087709200,24.942709228515625,-0.8987792700216174,0.3539752043478191,-1.8366116165369748
1776444541112727000,24.96772705078125,-1.0306909552156924,0.05646408389136195,-1.6179606823056936
1776444541137745200,24.9927451171875,1.1871850007414817,0.3522013265430927,-2.6176614559739826
1776444541162758400,25.01775830078125,0.1164049039825797,-0.4922688456639647,-5.058873873630166
1776444541187776300,25.0427763671875,0.6003180092334747,-0.32842429124489425,-3.281400090238452
1776444541212794400,25.06779443359375,0.9329302536875009,-0.6165585115469991,-2.122253435501456
1776444541237812200,25.092812255859375,1.429553202907741,-0.7218364568375051,-1.657301928091049
1776444541262830600,25.11783056640625,0.6754039376169443,-1.1905584226973354,-2.522739777263999
1776444541287848400,25.142848388671876,0.300383461022377,-0.8926897209748625,-1.2941934230864047
1776444541312866600,25.167866455078126,0.49373862595558166,-0.5130404155358672,-0.6246680221140384
1776444541337884400,25.192884521484373,0.7870262834981083,0.45143283127620815,-0.11467968762516975
1776444541362902500,25.217902587890624,0.4330938953787088,0.35095527200475335,0.09547112928628922
1776444541387919400,25.24291943359375,0.1218710604339838,0.2690928352236748,0.32613457287251946
1776444541412937500,25.2679375,-0.10529811129570006,0.5901261394344269,0.5583627815574407
1776444541437955300,25.292955322265627,-0.17980419396460054,0.6699852735690772,0.3188450003862381
1776444541462973400,25.317973388671874,-0.04543313291966915,0.8160155004866421,0.21842472425997256
1776444541487991300,25.3429912109375,-0.5869593459665775,0.7286720019459724,-0.016752981880307195
1776444541513009400,25.368009521484375,-0.11113982306122779,0.9686438104949892,0.19281506670713425
1776444541538027300,25.39302734375,-0.3583709550887346,0.026828824084252117,-0.3292003901839256
1776444541563045400,25.41804541015625,0.26764059058874845,-0.8623061270184814,-0.8653028246164322
1776444541588062200,25.443062255859374,0.2022965962797403,-0.0570261016882956,-0.7278314594686031
1776444541613080600,25.46808056640625,1.1770526060447095,-0.6186626442193984,-1.5693845751851796
1776444541638098400,25.493098388671875,-1.9206696636661886,-1.4246440958172082,-1.170125144869089
1776444541663116500,25.518116455078125,-2.1133061589360236,-0.477941337364912,-0.3527612985134125
1776444541688134400,25.543134521484376,0.5448053808480501,1.3277667529948054,0.42421968404948707
1776444541713152500,25.568152587890626,0.908414528851211,1.141779048089683,1.1780109296828507
1776444541738170400,25.59317041015625,1.5967930988535284,1.1962772387355565,1.5517793603897094
1776444541763188500,25.6181884765625,0.657507923181355,1.3037480178952217,1.2224515444338322
1776444541788206300,25.643206298828126,0.936909970973432,1.2968211412414907,0.7942524353593587
1776444541813223400,25.668223388671876,-0.0936287162899971,0.5973506838604807,-0.4874561846852302
1776444541838241300,25.6932412109375,0.7940811704456806,-0.5386886515334248,-1.4858774399369954
1776444541863259400,25.71825927734375,0.9094125999778508,-2.8588848720192908,-1.6805594695597885
1776444541888277200,25.74327734375,2.0124621044397353,-1.8745064629063009,-0.47895080666840073
1776444541913295400,25.76829541015625,1.8881556335523724,0.7651064203739166,-0.27389292898178097
1776444541938313500,25.7933134765625,-0.268553321519494,1.0698653200015424,0.26921967647373674
1776444541963331600,25.81833154296875,-0.5419526217654347,0.45788288419842715,1.473132524654269
1776444541988348400,25.843348388671874,-0.5986199731439351,0.13242606445699928,1.404604931873083
1776444542013366500,25.868366455078124,-0.50116439204216,0.39843525445163247,1.7327537671774624
1776444542038384400,25.89338427734375,-0.1970017047420144,0.49109395666569466,1.893936262780428
1776444542063402500,25.918402587890625,-1.1246152934513984,0.38716596467942,2.377821018719673
1776444542088420400,25.94342041015625,-1.014389808756113,0.3291799319177866,1.2008446927815675
1776444542113438500,25.9684384765625,-1.003981227466464,0.6176476219579577,1.240874505352974
1776444542138456300,25.993456298828125,-0.7033598660349846,1.580489906567335,1.5168419025212525
1776444542163475000,26.018474853515624,-0.8702642464160919,1.7209888028427958,1.4433856211662293
1776444542188492000,26.043491943359374,-0.36600364192426205,2.061077959048748,2.209539504766464
1776444542213510100,26.06851025390625,-1.1558955439865588,0.48922787053287026,1.2675877402335405
1776444542238528000,26.093528076171875,-0.4696317741811275,0.5776094799496233,-0.15031097297668455
1776444542263546000,26.118546142578126,-0.724122083556652,0.11584098648950457,-0.46735623046457764
1776444542288564000,26.14356396484375,-0.5056184488415718,-0.05313245525062084,-0.3666588909626007
1776444542313581800,26.168581787109375,0.9162392311275005,0.8519804017066955,-0.9786381118953228
1776444542338600000,26.193599853515625,0.07581935722455382,-0.7843361676312982,-2.484889062297344
1776444542363617000,26.218616943359375,-0.6713713210999965,-1.3196604572981596,-3.7189842827737327
1776444542388635000,26.243634765625,1.00184845322147,0.3795771900508553,-2.1711118666946887
1776444542413653000,26.268653076171876,0.3902548706054687,-1.0533814373861998,-2.486379593116045
1776444542438670800,26.2936708984375,1.3724702564656734,-0.9419003266066313,-3.369316274100542
1776444542463689000,26.31868896484375,1.3503192149341106,-1.091152876571566,-2.837561513483524
1776444542488707000,26.34370703125,0.479614239013195,-1.2158189014863223,-2.513533557501435
1776444542513725000,26.368724853515626,0.9972358448594808,-0.32132987600453194,-1.4629951615214347
1776444542538743000,26.393742919921873,1.156167346665263,-0.46790516958422956,-0.7992062583744526
1776444542563760000,26.418760009765624,0.7751438302636147,-0.8756162019032985,-0.578640430432558
1776444542588778000,26.443778076171874,0.583705897128582,-1.3894402420975267,-0.19114450314641
1776444542613796000,26.468796142578125,1.2996475968390702,-0.6995526557717472,0.8884837937176226
1776444542638814000,26.49381396484375,3.5465199301779267,-0.682716817913577,2.3509990627676247
1776444542663832000,26.51883203125,2.8894641346782444,-1.4735764690294861,2.593816470006108
1776444542688850000,26.543849853515624,-0.7077619003862142,-2.498917003127932,0.5238292283147573
1776444542713867800,26.56886767578125,-0.06147402100786566,-2.5707450987592337,-0.36405484594404697
1776444542738884900,26.593884765625,0.7746693446196615,0.5206114353120327,1.1143079805791378
1776444542763903000,26.618903076171875,1.3783162060149012,0.6487565345142037,1.474800165605545
1776444542788920800,26.6439208984375,1.5561178279854357,0.027229586904868482,0.16724632568657397
1776444542813939000,26.66893896484375,0.6230167477756738,-0.4466821296177804,-1.5401725092262029
1776444542838957000,26.69395703125,0.6652344988454133,-0.7158493452519178,-1.620132181125879
1776444542863975200,26.71897509765625,1.3060579022727905,-0.6369827292859553,-0.5132715939432382
1776444542888993000,26.743992919921876,1.4761702849149703,-0.44704058766663074,0.4481429959505796
1776444542914010000,26.769010009765626,1.7139438527673483,-0.5179493399633094,0.39481297230124474
1776444542939028000,26.794028076171877,1.1781598366342485,-0.5241193703677505,0.36829146060049534
1776444542964046000,26.819046142578124,1.0993852098006756,-0.8298058331690729,-0.4967506672531366
1776444542989064000,26.84406396484375,0.5915460892349481,-0.6839017168492079,-0.9337076678007841
1776444543014082000,26.86908203125,0.6181354054749012,-0.9973831443756819,-0.240438403147459
1776444543039100000,26.894099853515623,0.251814952686429,0.11068687339564785,-0.4254945262908935
1776444543064117000,26.919116943359374,-0.001459697289019823,0.007205346535239368,-0.5592091692537069
1776444543089134800,26.944134765625,-0.3696177407681942,-0.07430376502983271,-0.10811199967265128
1776444543114153000,26.969153076171875,-0.2788091964654624,-0.39912710917331273,0.03223170604109764
1776444543139170800,26.9941708984375,-0.3160124073088169,0.37040797783043233,0.24555238516032693
1776444543164188200,27.019188232421875,-0.3225001618929207,0.2593597420427948,0.4358125066876411
1776444543189206300,27.044206298828126,-0.5342482579331844,0.2938662246154621,0.9155582631260156
1776444543214224400,27.069224365234376,-0.7127571513902395,0.16025913368035108,1.027424646896124
1776444543239241500,27.094241455078127,-1.200793254855275,0.10893341732444241,0.6667348934710026
1776444543264259300,27.11925927734375,-1.2247474002860486,-0.595225216139108,0.21269290260970591
1776444543289277400,27.14427734375,-1.3054010457992553,-1.7115489204548298,-0.3573679155260324
1776444543314295300,27.16929541015625,-1.119498023502901,-0.9930151584245264,-0.46099897039234633
1776444543339313200,27.194313232421877,-0.961753612589836,-1.9400084242559967,-0.89641517123878
1776444543364331300,27.219331298828124,-1.1068950739741326,-1.3191131986789404,-1.064075338423252
1776444543389348400,27.244348388671874,-0.8778273751467466,-1.7602907395310698,-1.0967851833701132
1776444543414366200,27.2693662109375,-0.6595622253626585,-1.558450070325285,-0.6817389858573675
1776444543439384300,27.29438427734375,-0.45203700771443545,-0.5945658389149233,0.01897007340788841
1776444543464402200,27.319402099609373,-0.4258147712212056,-0.8516179250698536,-0.48969548804461954
1776444543489420300,27.344420166015624,1.0887842477440834,-0.9776345608759671,-0.43952772781848903
1776444543514438100,27.369438232421874,2.0947750614672898,-0.3628285555521026,-0.16141279722750185
1776444543539455200,27.394455322265625,0.9755407304018735,-0.2877228264896199,0.6073088910341262
1776444543564473000,27.41947314453125,-0.2039799827894196,0.18914938380643725,1.0415677385389803
1776444543589491500,27.444491455078126,-1.1791735437214375,-0.28836024761032314,-0.9807295312166213
1776444543614509300,27.46950927734375,-1.4741706355303525,-0.837050981991738,-1.4317302546858788
1776444543639527400,27.49452734375,-0.2116571298211813,-0.81568137316145,-0.940848771727085
1776444543664545300,27.519545166015625,0.19169742432143538,0.936148558146879,-0.7797177140504121
1776444543689563400,27.5445634765625,0.5571195400306954,1.9509923212155698,0.23585925866365431
1776444543714580200,27.569580322265626,0.16912147190868854,0.8653673412200062,1.2532570170640944
1776444543739598300,27.594598388671876,-1.3643185141921044,2.186262674075365,1.4098469241797924
1776444543764616200,27.6196162109375,-1.1944068417537956,1.5726427001982926,0.6790753196060657
1776444543789634300,27.64463427734375,0.25216975747346876,1.8728781310521065,1.1749866134256124
1776444543814652200,27.669652099609376,0.4309342331267893,1.1135141267877071,1.1552923173964023
1776444543839669200,27.694669189453126,0.2422873189497739,0.004754866376891732,0.9638093760758638
1776444543864687000,27.71968701171875,0.15201960352547467,-0.3756470109950751,0.7966776166796684
1776444543889705200,27.744705322265624,0.49191667122542854,-1.2779349467247725,-0.9459154074668884
1776444543914723000,27.76972314453125,0.9428233597356825,-1.5237066737242042,-1.2110451842784882
1776444543939741400,27.794741455078125,0.2901854537434876,-0.9407418772865086,-1.15507253716588
1776444543964759300,27.81975927734375,0.6621627632498741,-1.3513511883303522,-0.8964157557606697
1776444543989776400,27.8447763671875,0.9329435515604912,-1.080928711938113,-0.8543751878887414
1776444544014794200,27.869794189453124,0.7460122821949422,-0.1948820091743022,-0.9931272404968738
1776444544039812400,27.894812255859375,1.1797954750120638,-0.9885822905436158,-0.8654314194321632
1776444544064830200,27.919830322265625,1.2556377747207879,-0.47123124526701865,-0.6922878524005412
1776444544089848300,27.944848388671875,0.8695651582360268,0.14070990867763758,-0.6785118405044078
1776444544114866200,27.9698662109375,0.9165888482827693,-0.6493653871275484,-0.28774960489869117
1776444544139883300,27.99488330078125,0.9286047917038202,-0.24646343559063968,0.24504268207252025
1776444544164901400,28.0199013671875,0.6362975965660065,0.5198893315825611,0.19183306993246077
1776444544189919700,28.044919677734374,0.7022913600206375,-0.3816500508021563,0.014217325922846793
1776444544214937600,28.0699375,0.7535673737496137,-0.28169673460051414,0.042998599249124525
1776444544239955700,28.094955810546875,0.5244757825899868,-0.05624360954109579,-0.22386136235594747
1776444544264973600,28.1199736328125,0.5344884964298456,-0.10826083355881273,-0.19862696785628794
1776444544289991700,28.14499169921875,0.47691133673004804,-0.3327320714414119,-0.08314940785169601
1776444544315008800,28.1700087890625,0.5544312873274088,-0.4021432786567136,-0.1155617311567068
1776444544340026600,28.195026611328124,0.44698871134892104,-0.2087833279505372,-0.14492518828511236
1776444544365044500,28.22004443359375,0.4295733931023627,0.14542583128362893,0.19626608394384382
1776444544390062600,28.2450625,0.11780614908263086,0.3872547389414161,0.46777065648436544
1776444544415080400,28.27008056640625,0.07036942125558852,0.21313655472397802,0.21071429601311684
1776444544440097500,28.29509765625,0.007886807727068661,-0.38404505617991086,0.35487317610085006
1776444544465115600,28.32011572265625,-0.42599896868169307,-0.7434195622880011,0.34622634378671646
1776444544490133500,28.345133544921875,-0.5045284616477788,0.8833744878798723,0.269452316185832
1776444544515151600,28.370151611328126,-0.8034219763733446,0.11312011015824973,0.618852029311657
1776444544540169500,28.39516943359375,-0.8413128772199153,0.25831227881647645,1.094433651807904
1776444544565187600,28.4201875,-1.2003196459941565,-0.22795360010564325,1.351232238125801
1776444544590204400,28.445204345703125,-1.72955058722198,0.33104273011498153,1.1644167040944098
1776444544615222800,28.470222900390624,-1.1172593046654016,0.35737880224622787,1.2320897258728742
1776444544640240600,28.49524072265625,-0.6186655668288469,-0.16816238108556716,0.9461059616029261
1776444544665258800,28.5202587890625,-0.06517177954725921,1.0526307651493698,0.28134207594394683
1776444544690276600,28.545276611328124,-0.03752798581831157,1.5809373580738901,-0.30610125414729117
1776444544715293700,28.570293701171874,-0.17198033193852752,0.40468971173651513,-0.24661972213089464
1776444544740311600,28.5953115234375,0.3241372981080785,-0.015894360323552972,0.23435353027582168
1776444544765329700,28.62032958984375,-0.8085328896462917,0.17421861238460987,-0.525157846570015
1776444544790347500,28.645347412109373,0.07023322765529155,1.6319307554692029,-1.738137213781476
1776444544815364600,28.670364501953124,1.0283253951281308,1.2383813733629883,-1.5967138961374758
1776444544840382500,28.695382568359374,0.18071845926530658,0.41494755944386125,-0.876373669207096
1776444544865400600,28.720400634765625,0.5367834024339914,0.8562517954155803,-0.7209276714295149
1776444544890418400,28.74541845703125,1.212970672448352,0.659076487672329,0.16850187870562075
1776444544915436500,28.7704365234375,0.8403419863611459,0.4358359606284648,-0.5462888974040746
1776444544940453600,28.79545361328125,0.18195238497443497,0.6811855897583067,0.24978315459787845
1776444544965471500,28.820471435546875,0.3247785551536828,0.9153345373727381,1.3684440696895122
1776444544990489600,28.845489501953125,0.7163285070709884,1.003479707685113,-0.3702320732742548
1776444545015507700,28.8705078125,0.6939854500986635,0.4634350019002333,-1.0551993735283614
1776444545040525600,28.895525634765626,0.018964228188991544,-0.031120639526657758,0.19476912338435648
1776444545065542700,28.920542724609376,0.7959113084822893,0.7087528111197055,1.3980974496752023
1776444545090560800,28.945560791015627,-0.2995306435853243,0.2190311657205224,2.129884953293204
1776444545115578600,28.97057861328125,-0.5519252958558499,-0.07579319986999035,1.8893711468219756
1776444545140596700,28.9955966796875,0.03613338965475559,0.2879395745128393,1.439568108704686
1776444545165613800,29.02061376953125,0.8477121498029678,0.8787664826277642,0.2813163569808006
1776444545190631000,29.045630859375,1.974606713297963,0.7536186655454337,-1.4427689505726098
1776444545215648800,29.070648681640623,1.320748837056756,0.3550266130968928,-1.146378358578682
1776444545240667000,29.0956669921875,0.7153554242551327,-0.04994878371320664,-0.9665601360887288
1776444545265685000,29.12068505859375,1.060923596394062,-0.3066637103356421,-1.6241542762488126
1776444545290703000,29.145703125,2.0352397534370423,-0.04844816989190876,-1.4732920991301535
1776444545315720200,29.17072021484375,1.4198638758033513,-0.570011499101296,-2.2471704395025967
1776444545340738000,29.195738037109376,1.5502531737357377,-0.19671444876585154,-0.5165191975623369
1776444545365756200,29.220756103515626,1.7337948006629942,-0.5585489517793059,-0.4041711677551269
1776444545390774000,29.24577392578125,0.7915923493046313,-1.7238900772422552,-0.06885258695185184
1776444545415791900,29.2707919921875,0.20930267564952373,-1.5819246155455708,0.20625848564803598
1776444545440810000,29.29581005859375,0.3563315582156181,-1.058908311048895,0.5919523319482803
1776444545465827000,29.3208271484375,0.03129705553948879,-1.1317593930523842,0.558821046718955
1776444545490845000,29.345844970703126,-0.37804713093936443,-0.646968701249361,0.7051701303273439
1776444545515863000,29.370863037109373,-0.21085969583317637,-0.33109175688847897,0.6638724897772074
1776444545540881000,29.395880859375,0.251100666937232,0.5169577351100743,0.7626502593934535
1776444545565899000,29.42089892578125,0.9608541795320809,0.7566691391572355,0.7147399227052926
1776444545590915800,29.445915771484376,0.7919209236718714,0.5850047047674656,0.7670049474716186
1776444545615934000,29.470933837890627,0.5069435599654912,0.23693103434732182,0.5738187093645334
1776444545640951800,29.495951904296874,0.7596867334127426,0.19326995260147375,0.16615969949364662
1776444545665970000,29.520969970703124,0.563542376152426,0.12676448589819483,0.03417056514918804
1776444545690986800,29.54598681640625,1.117279251474887,0.22094529224615542,-0.18298107043504713
1776444545716004900,29.5710048828125,0.7099491812974215,-0.17896971590183675,-0.22725568096935747
1776444545741023000,29.59602294921875,0.257432865633443,-0.7451257816839962,-0.14223054237365723
1776444545766041000,29.621041015625,0.020627850552275777,-0.7876953418660908,-0.034681437280774115
1776444545791059000,29.646058837890624,-0.2951549127191305,-0.8421499856311827,0.06471358745098113
1776444545816076000,29.671075927734375,-0.37509405328743156,-0.7364705468676984,0.017167407900094984
1776444545841094100,29.69609423828125,-0.3355173182457685,-0.366770242382586,-0.13608195661604403
1776444545866112000,29.721112060546876,-0.6472901882886887,-0.49774409873727704,0.19921382783353328
1776444545891129900,29.7461298828125,-0.3103343616724014,-0.2630058434601873,0.26467677234709264
1776444545916148000,29.77114794921875,-0.6710024877876043,1.108958728505671,-1.5419360117673873
1776444545941165000,29.7961650390625,-1.0452378784190863,0.32967056497894226,-0.39042788908481596
1776444545966183000,29.821182861328126,-0.37273433841876685,-0.1667104652442038,-0.22558920906186103
1776444545991201000,29.846200927734376,-0.4476264247305691,-0.945406142770499,0.3968091145545244
1776444546016219000,29.871218994140627,-0.255621359232068,-1.4762075481854378,1.0559516532003879
1776444546041237000,29.896237060546873,-0.14556757784187793,-1.2461011539600788,0.7943535576462745
1776444546066253800,29.92125390625,-0.2675250744502991,-0.3736118519056588,-0.04851531684398651
1776444546091272000,29.94627197265625,-0.5919850651741028,-0.9307135274861007,0.2518313192993402
1776444546116289800,29.971289794921876,-1.2240735196124761,-0.40493959484435615,0.11684651027023792
1776444546141308200,29.99630810546875,-0.4068172983497381,0.9516462792690843,0.38518998843133445
1776444546166325200,30.0213251953125,-0.5275741139315069,0.6724136697597801,0.06245031869411468
1776444546191343400,30.04634326171875,0.06384133466109633,1.098439599513635,0.22318214792013166
1776444546216361200,30.071361328125,0.6554056902050972,1.1179895917013287,-0.18760756119191646
1776444546241379300,30.09637939453125,0.18931962580680847,0.6546321485493332,-0.5618143833160401
1776444546266397200,30.121397216796876,0.2561636494152248,0.37809824007209386,-0.6666261723995208
1776444546291414300,30.146414306640626,-0.3519663487434387,-0.33552721858527507,-2.0538181971788405
1776444546316432100,30.17143212890625,-0.8039169202834368,-0.40532844803147017,-1.9164122984826564
1776444546341450500,30.196450439453123,-0.8554850488267839,-1.0377127436112612,-1.1462632077664137
1776444546366468400,30.22146826171875,-0.10823182666003703,-1.4875975417278706,-0.6909095497846603
1776444546391486500,30.246486572265624,0.7120417696624994,-1.2830056741178035,-0.07655716997981071
1776444546416503600,30.271503662109374,0.5748509750217199,-0.63769686890468,0.37518706533312796
1776444546441521400,30.296521484375,1.556700888570398,1.7424740739420055,1.2777297795414924
1776444546466539300,30.321539306640624,-0.06400573144257068,1.1571142721265553,1.3128712355494498
1776444546491557400,30.346557373046874,0.9753121823430061,1.6859706809535622,0.9757570035010575
1776444546516574500,30.371574462890624,1.7752492392100392,1.8938263726651667,0.8884539831012487
1776444546541592300,30.39659228515625,-0.33236016938909885,0.45921018727943297,0.7771154225975274
1776444546566610400,30.4216103515625,-0.14123627063930033,0.5214736781645566,0.5312742836236953
1776444546591628300,30.446628173828124,0.10923837335407734,0.6934338075652718,0.5261293219506741
1776444546616646400,30.471646484375,-0.10430610458366572,0.6670068422801793,0.44156244851648807
1776444546641663200,30.496663330078125,-0.5023405962146819,0.8705239202655851,0.22604864326715468
1776444546666681300,30.521681396484375,1.1660341492284088,1.9825059421151876,0.33774317760169503
1776444546691699200,30.54669921875,-0.12055121000707149,1.0974287419706583,-0.24181495219767093
1776444546716717300,30.57171728515625,-0.9203817377597093,0.43587684062812476,-0.38818332502841946
1776444546741735400,30.5967353515625,0.4650707498759031,1.1942089080289005,-0.2355330954492092
1776444546766752300,30.621752197265625,0.7186931903757154,1.2066701840646563,0.2776572499513626
1776444546791770400,30.646770263671876,-0.8234322795491665,-0.3331325785337016,0.2139221521437168
1776444546816788500,30.67178857421875,-0.9726332454573362,-0.6461240671187639,-0.135464701500535
1776444546841806300,30.696806396484376,-1.0382132404793054,-0.7758112081311642,-0.4286316552728414
1776444546866823400,30.721823486328127,-0.7000134782165288,-0.8617912362989038,-0.9988491252750158
1776444546891841500,30.746841552734374,-0.26375907298028467,-0.4699381367165595,-0.8730331266075372
1776444546916859400,30.771859375,-0.59248665802069,-1.0837520257305353,-1.3979875595599411
1776444546941877200,30.796877197265626,-0.535431987825036,-1.131987356589362,-1.8376783689856528
1776444546966894300,30.821894287109377,0.23715229414887726,-0.49032567570693786,-1.5226912130713461
1776444546991912400,30.846912353515624,0.13060272148735821,-0.6671144673731177,-1.7455489513427018
1776444547016930300,30.871930419921874,0.6001847382426262,-0.7614918831385672,-1.8878963980942964
1776444547041948400,30.896948486328125,0.6525216592013835,-0.6088613446405157,-1.009039095377922
1776444547066966300,30.92196630859375,0.3790788120746612,-0.9788466400794684,-1.0656132155150175
1776444547091983400,30.9469833984375,0.8391619827963411,-0.41959509298875924,-0.2008382141649723
1776444547117001200,30.972001220703124,1.1307159484140574,-0.49186329707037657,0.5355968229979277
1776444547142019300,30.997019287109374,0.15185586433112622,-0.9638771806150674,0.7288754155635834
1776444547167040800,31.022040771484374,0.03660656012445688,-0.9560738864529877,0.39055531485676764
1776444547192057900,31.047057861328124,1.6042852081745862,0.4490737009294331,1.2623743894994257
1776444547217075700,31.07207568359375,1.2973378585919737,-0.3880074204722419,1.8781851514190435
