time,seconds_elapsed,z,y,x
1776444516244636200,0.09963623046875,0.12885107100009918,-0.03351252153515816,-0.015177348628640175
1776444516269654000,0.124654052734375,0.17853163182735443,-0.03481907770037651,-0.008444561623036861
1776444516294673200,0.149673095703125,0.19205698370933533,-0.043311093002557755,-0.009356614202260971
1776444516319691300,0.174691162109375,0.18171732127666473,-0.029663193970918655,-0.034326016902923584
1776444516344710100,0.199710205078125,0.20149022340774536,-0.018147548660635948,-0.0852319672703743
1776444516369728000,0.22472802734375,0.2688167989253998,0.0035701217129826546,-0.10618364065885544
1776444516394747100,0.2497470703125,0.3170764148235321,0.0035416334867477417,-0.09464674443006516
1776444516419765000,0.274764892578125,0.3608657121658325,-0.008334603160619736,-0.07391999661922455
1776444516444784000,0.2997841796875,0.4076703190803528,-0.026081524789333344,-0.09234566241502762
1776444516469802200,0.32480224609375,0.4236278533935547,-0.041370976716279984,-0.09149209409952164
1776444516494821000,0.349821044921875,0.455925852060318,-0.045335493981838226,-0.10179410129785538
1776444516519839000,0.3748388671875,0.4984554648399353,-0.05681105703115463,-0.11765135824680328
1776444516544857900,0.39985791015625,0.5332225561141968,-0.05861414596438408,-0.13341104984283447
1776444516569876200,0.424876220703125,0.5570882558822632,-0.008291185833513737,-0.13737072050571442
1776444516594895000,0.44989501953125,0.5775114893913269,0.046272844076156616,-0.17914718389511108
1776444516619913200,0.474913330078125,0.6603437662124634,0.22086769342422485,-0.2552354633808136
1776444516644932000,0.49993212890625,0.7589150071144104,0.4774720370769501,-0.37950995564460754
1776444516669950000,0.524949951171875,0.7700135111808777,0.5970926284790039,-0.48041579127311707
1776444516694969000,0.549968994140625,0.8130305409431458,0.6052068471908569,-0.5627554059028625
1776444516719987200,0.5749873046875,0.9356698393821716,0.5661951303482056,-0.5925336480140686
1776444516745006000,0.600006103515625,1.0809874534606934,0.38215339183807373,-0.5917119383811951
1776444516770024000,0.62502392578125,1.244481086730957,0.14462992548942566,-0.5211489200592041
1776444516795043000,0.65004296875,1.3486897945404053,-0.09644928574562073,-0.3975621163845062
1776444516820061200,0.675061279296875,1.4898438453674316,-0.3406054675579071,-0.26220008730888367
1776444516845080000,0.700080078125,1.5974602699279785,-0.48590248823165894,-0.16525667905807495
1776444516870098200,0.72509814453125,1.601738691329956,-0.4793250262737274,-0.0695931613445282
1776444516895117000,0.750116943359375,1.5289785861968994,-0.36591747403144836,0.027624614536762238
1776444516920135000,0.775135009765625,1.462405800819397,-0.23027272522449493,0.09674591571092606
1776444516945154300,0.800154296875,1.3930590152740479,-0.17507749795913696,0.1302439421415329
1776444516970172200,0.825172119140625,1.358132243156433,-0.1696542352437973,0.13264404237270355
1776444516995191000,0.85019091796875,1.3515138626098633,-0.2121172845363617,0.18270249664783478
1776444517020209200,0.875209228515625,1.404051661491394,-0.29031822085380554,0.26211896538734436
1776444517045228000,0.90022802734375,1.4145622253417969,-0.3451001048088074,0.37791091203689575
1776444517070246000,0.925245849609375,1.3808122873306274,-0.2800705134868622,0.5049001574516296
1776444517095265000,0.95026513671875,1.3438911437988281,-0.23090748488903046,0.639868438243866
1776444517120283100,0.975283203125,1.3589661121368408,-0.26537463068962097,0.6914093494415283
1776444517145301800,1.0003017578125,1.3101402521133423,-0.2830464541912079,0.6965255737304688
1776444517170320000,1.02531982421875,1.243547797203064,-0.2137179672718048,0.6707043051719666
1776444517195338800,1.0503388671875,1.2308481931686401,-0.19894835352897644,0.6184177398681641
1776444517220356600,1.075356689453125,1.2480891942977905,-0.280610054731369,0.5363962650299072
1776444517245375700,1.100375732421875,1.2219202518463135,-0.3170199990272522,0.4766278564929962
1776444517270393600,1.1253935546875,1.278773546218872,-0.2789061665534973,0.4007653295993805
1776444517295412700,1.150412841796875,1.4687061309814453,-0.21235989034175873,0.2701554298400879
1776444517320430800,1.175430908203125,1.6834218502044678,-0.10372436791658401,0.1412019431591034
1776444517345449700,1.20044970703125,1.8180240392684937,-0.060118429362773895,-0.0012216614559292793
1776444517370467600,1.225467529296875,1.8960902690887451,-0.04280988126993179,-0.20930498838424683
1776444517395486700,1.25048681640625,2.0349385738372803,0.11380143463611603,-0.30902642011642456
1776444517420504800,1.2755048828125,2.143894910812378,0.1976955384016037,-0.2724497318267822
1776444517445522700,1.300522705078125,2.094949245452881,0.11141537874937057,-0.315667986869812
1776444517470541800,1.325541748046875,1.9218671321868896,0.13724404573440552,-0.3204070031642914
1776444517495559700,1.3505595703125,1.8203612565994263,0.23648208379745483,-0.3441818356513977
1776444517520578600,1.37557861328125,1.60711669921875,0.2723327577114105,-0.2368399202823639
1776444517545596700,1.4005966796875,1.4257113933563232,0.2657448947429657,-0.09800346940755844
1776444517570615800,1.42561572265625,1.399725079536438,0.2104431539773941,-0.013432690873742104
1776444517595633700,1.450633544921875,1.3746590614318848,0.07065942138433456,0.02891741320490837
1776444517620652800,1.47565283203125,1.1953271627426147,-0.03874310106039047,0.12425269186496735
1776444517645670700,1.500670654296875,1.0996055603027344,0.017806462943553925,0.28975191712379456
1776444517670689800,1.525689697265625,1.270514726638794,-0.10194337368011475,0.3381824195384979
1776444517695708000,1.5507080078125,1.3959031105041504,-0.3353317677974701,0.2790215015411377
1776444517720726800,1.575726806640625,1.322360873222351,-0.42621171474456787,0.3115464150905609
1776444517745744600,1.60074462890625,1.2909674644470215,-0.3137609660625458,0.4021189212799072
1776444517770763500,1.625763427734375,1.249119520187378,-0.2429412454366684,0.44919776916503906
1776444517795781600,1.65078173828125,1.3050040006637573,-0.2692086696624756,0.31189700961112976
1776444517820800800,1.67580078125,1.3100330829620361,-0.20947381854057312,0.20166000723838806
1776444517845819000,1.70081884765625,1.2905322313308716,-0.012563426978886127,0.2251662015914917
1776444517870836700,1.725836669921875,1.4280847311019897,0.15999290347099304,0.294370174407959
1776444517895855600,1.750855712890625,1.445284366607666,0.023090440779924393,0.2566227316856384
1776444517920873700,1.775873779296875,1.6022437810897827,-0.020235728472471237,0.2872350811958313
1776444517945892900,1.800892822265625,2.063248872756958,0.0003602290526032448,0.33796900510787964
1776444517970910700,1.82591064453125,2.1371452808380127,0.2522839605808258,0.6603369116783142
1776444517995929600,1.8509296875,2.289252281188965,0.30583733320236206,0.7833227515220642
1776444518020947700,1.87594775390625,2.41591215133667,0.4889427125453949,0.726580023765564
1776444518045966600,1.900966552734375,2.3461713790893555,0.30847984552383423,0.43591174483299255
1776444518070984700,1.925984619140625,2.4762444496154785,0.14391353726387024,0.3555194139480591
1776444518096003800,1.95100390625,2.5828397274017334,-0.1614779382944107,0.2878302037715912
1776444518121021700,1.976021728515625,2.7913730144500732,-0.42437800765037537,0.1079547107219696
1776444518146037500,2.00103759765625,2.6468067169189453,-0.44730567932128906,0.025105245411396027
1776444518171055600,2.0260556640625,2.2820932865142822,-0.22185181081295013,0.03855834901332855
1776444518196074500,2.051074462890625,1.9596201181411743,-0.027747705578804016,0.06154299154877663
1776444518221092400,2.07609228515625,1.925418734550476,0.2657088041305542,0.01350298710167408
1776444518246110500,2.1011103515625,2.0772407054901123,0.5171301960945129,-0.15646904706954956
1776444518271129600,2.126129638671875,2.391922950744629,0.6571478247642517,-0.3036709427833557
1776444518296147700,2.151147705078125,2.7527389526367188,0.7694475650787354,-0.2907743453979492
1776444518321166600,2.17616650390625,2.2865443229675293,0.8275166153907776,-0.11009082198143005
1776444518346184400,2.201184326171875,1.9949290752410889,0.658592700958252,-0.04653476923704147
1776444518371203300,2.226203369140625,1.8573095798492432,0.4152684807777405,0.1190919354557991
1776444518396221400,2.251221435546875,1.8041900396347046,0.014226376079022884,0.16578243672847748
1776444518421240600,2.276240478515625,1.9004101753234863,-0.30471912026405334,0.24322381615638733
1776444518446258400,2.301258544921875,2.0790042877197266,-0.48719704151153564,0.3125261068344116
1776444518471277600,2.326277587890625,2.015336513519287,-0.45595112442970276,0.4107048213481903
1776444518496295400,2.35129541015625,1.9474775791168213,-0.2936217188835144,0.5424550771713257
1776444518521314600,2.376314453125,1.7782044410705566,-0.010220109485089779,0.6508217453956604
1776444518546332700,2.401332763671875,1.6406437158584595,0.28239843249320984,0.6666264533996582
1776444518571350500,2.4263505859375,1.5629774332046509,0.2932914197444916,0.6534391641616821
1776444518596369400,2.451369384765625,1.2231172323226929,0.1723729968070984,0.6631612181663513
1776444518621387500,2.476387451171875,1.1365164518356323,0.22677379846572876,0.5000227093696594
1776444518646406400,2.501406494140625,1.2148561477661133,0.10426358878612518,0.5853262543678284
1776444518671424500,2.526424560546875,1.3369638919830322,-0.07154032588005066,0.5569125413894653
1776444518696443600,2.551443603515625,1.3088665008544922,-0.17736943066120148,0.5648128986358643
1776444518721461500,2.57646142578125,1.3054578304290771,-0.25836747884750366,0.41828376054763794
1776444518746480400,2.60148046875,1.6703895330429077,-0.1616523712873459,0.2946723699569702
1776444518771498500,2.62649853515625,1.4028156995773315,-0.1795424222946167,0.1566750705242157
1776444518796517600,2.651517578125,1.3201886415481567,-0.17773520946502686,0.023282712325453758
1776444518821535500,2.676535400390625,0.9115466475486755,0.08687101304531097,-0.09575515240430832
1776444518846553600,2.7015537109375,0.6996105313301086,0.3084338903427124,-0.17343418300151825
1776444518871572500,2.726572509765625,0.5638667345046997,0.4568827450275421,-0.17522644996643066
1776444518896590600,2.751590576171875,0.5136305093765259,0.7476606965065002,0.09699505567550659
1776444518921609500,2.776609375,0.5036994814872742,0.7724754214286804,0.14568397402763367
1776444518946627600,2.801627685546875,0.5945271253585815,0.5400404930114746,0.10891028493642807
1776444518971646500,2.826646484375,0.601678192615509,0.429654598236084,0.0672849491238594
1776444518996664600,2.85166455078125,0.7106584906578064,0.5663537383079529,-0.008741349913179874
1776444519021683500,2.876683349609375,0.7799153923988342,0.8517420291900635,-0.03888924792408943
1776444519046701300,2.901701416015625,0.8533262014389038,0.9207364320755005,0.06857576966285706
1776444519071720700,2.926720703125,1.008010983467102,0.9092538356781006,0.20398275554180145
1776444519096738600,2.951738525390625,1.2118680477142334,0.7729938626289368,0.31233716011047363
1776444519121756700,2.976756591796875,1.3840813636779785,0.514015257358551,0.32106509804725647
1776444519146775600,3.001775634765625,1.5826071500778198,0.3578602969646454,0.18600322306156158
1776444519171793700,3.026793701171875,1.8257207870483398,0.3060145378112793,0.07201714813709259
1776444519196812500,3.0518125,1.890868067741394,0.22542570531368256,-0.005447105038911104
1776444519221830700,3.07683056640625,2.033094882965088,0.1958688646554947,-0.01579039916396141
1776444519246849500,3.101849609375,2.188424825668335,0.2455456256866455,0.03849633038043976
1776444519271867400,3.126867431640625,2.219078779220581,0.2546827793121338,0.0016765659675002098
1776444519296886800,3.15188671875,2.187863349914551,0.056753065437078476,0.10954520851373672
1776444519321904600,3.176904541015625,2.2305474281311035,0.19053442776203156,0.08995582908391953
1776444519346922800,3.2019228515625,2.1177845001220703,0.35286659002304077,-0.0033051427453756332
1776444519371941600,3.226941650390625,1.8904013633728027,0.4826091527938843,-0.10021065920591354
1776444519396959500,3.25195947265625,1.6786190271377563,0.47276759147644043,-0.21458853781223297
1776444519421978400,3.276978271484375,1.574590802192688,0.3287145495414734,-0.18851445615291595
1776444519446996700,3.301996826171875,1.026366949081421,0.142812579870224,-0.151682049036026
1776444519472015600,3.327015625,0.39483770728111267,0.5492562651634216,-0.25135400891304016
1776444519497033500,3.352033447265625,0.34737303853034973,0.455876886844635,-0.18431320786476135
1776444519522052600,3.377052490234375,0.48503634333610535,0.1271342933177948,0.11530642211437225
1776444519547070500,3.402070556640625,0.5498353838920593,-0.20410889387130737,0.33590400218963623
1776444519572088600,3.427088623046875,0.560781717300415,-0.2849501967430115,0.24181829392910004
1776444519597107700,3.452107666015625,0.6477532386779785,-0.363766074180603,0.11796689033508301
1776444519622125600,3.47712548828125,1.0798711776733398,-0.1662157028913498,0.10475368797779083
1776444519647144400,3.50214453125,1.5148199796676636,0.054811086505651474,-0.02825286239385605
1776444519672162600,3.52716259765625,1.9600632190704346,0.142177551984787,-0.14383256435394287
1776444519697181700,3.552181640625,2.2623350620269775,0.27682268619537354,-0.38908010721206665
1776444519722199600,3.577199462890625,2.5146496295928955,0.37095001339912415,-0.4927225112915039
1776444519747218700,3.60221875,2.6440811157226562,0.4212644398212433,-0.5576211214065552
1776444519772236500,3.627236572265625,2.6071643829345703,0.563139796257019,-0.5197402834892273
1776444519797254700,3.652254638671875,2.5429534912109375,0.6693359017372131,-0.4318312406539917
1776444519822273500,3.6772734375,2.5237348079681396,0.7968829274177551,-0.3480507433414459
1776444519847291600,3.702291748046875,2.3913958072662354,0.8165168166160583,-0.2753891348838806
1776444519872310500,3.727310546875,2.186739206314087,0.7627875208854675,-0.23398561775684357
1776444519897328600,3.75232861328125,1.8764512538909912,0.454161673784256,-0.20138263702392578
1776444519922347500,3.777347412109375,1.5716232061386108,0.6274811029434204,-0.43249863386154175
1776444519947365600,3.80236572265625,1.1809463500976562,0.5197714567184448,-0.5121541619300842
1776444519972383500,3.827383544921875,0.819445013999939,0.5478311777114868,-0.38813814520835876
1776444519997402600,3.852402587890625,0.6142907738685608,0.5153486132621765,-0.15358534455299377
1776444520022420700,3.877420654296875,0.7229219079017639,0.2725370228290558,0.0070348139852285385
1776444520047439600,3.902439697265625,0.6705498099327087,0.41774800419807434,-0.02355777472257614
1776444520072457500,3.92745751953125,0.7151302099227905,0.22018125653266907,-0.16082412004470825
1776444520097476600,3.9524765625,0.8400667905807495,0.025307923555374146,-0.10851877927780151
1776444520122494700,3.97749462890625,0.9997348189353943,-0.03615037724375725,0.027962036430835724
1776444520147512800,4.002512939453125,1.1517506837844849,0.15210075676441193,0.22056430578231812
1776444520172531000,4.027531005859375,1.0926311016082764,0.3934873938560486,0.2515297830104828
1776444520197548800,4.052548828125,0.7229359745979309,0.494884729385376,0.4191446900367737
1776444520222568000,4.07756787109375,0.7360933423042297,0.24920587241649628,0.3975783586502075
1776444520247586000,4.1025859375,0.9498413801193237,0.15700815618038177,0.3212927281856537
1776444520272605000,4.12760498046875,1.1542153358459473,0.2275044322013855,0.20369699597358704
1776444520297623000,4.152623046875,1.3630870580673218,0.214838445186615,0.11148476600646973
1776444520322642000,4.177641845703125,1.661339282989502,0.08755851536989212,0.051072027534246445
1776444520347660000,4.202659912109375,2.0729691982269287,0.018173042684793472,0.05167004093527794
1776444520372678100,4.22767822265625,2.3032727241516113,0.017296332865953445,0.04994311183691025
1776444520397697000,4.252697021484375,2.3804707527160645,-0.038029104471206665,0.12159048765897751
1776444520422715000,4.27771484375,2.468820095062256,-0.18727251887321472,0.18271128833293915
1776444520447733800,4.302733642578125,2.5019471645355225,-0.3393195569515228,0.1664794385433197
1776444520472751900,4.327751953125,2.5063464641571045,-0.41634711623191833,0.0761350616812706
1776444520497771000,4.35277099609375,2.382012367248535,-0.5142591595649719,0.046630289405584335
1776444520522789000,4.3777890625,2.2305362224578857,-0.6089640855789185,0.009145479649305344
1776444520547807000,4.402806884765625,2.1564676761627197,-0.6262812614440918,-0.06968880444765091
1776444520572825900,4.427825927734375,2.0564653873443604,-0.5599716901779175,-0.17754405736923218
1776444520597844000,4.452843994140625,1.995693325996399,-0.5326469540596008,-0.24887453019618988
1776444520622863000,4.477863037109375,2.01582670211792,-0.5009761452674866,-0.2660152316093445
1776444520647881000,4.502880859375,1.9749401807785034,-0.40094712376594543,-0.23825863003730774
1776444520672899000,4.527899169921875,2.0156495571136475,-0.43466365337371826,-0.1827031821012497
1776444520697918000,4.55291796875,2.1289658546447754,-0.42049485445022583,-0.19553613662719727
1776444520722935800,4.577935791015625,2.265594482421875,-0.4713413715362549,-0.20967330038547516
1776444520747955200,4.602955078125,2.331998109817505,-0.5796508193016052,-0.2550210654735565
1776444520772973000,4.62797314453125,2.217350959777832,-0.46674758195877075,-0.303153932094574
1776444520797992000,4.652991943359375,2.1063897609710693,-0.3950897753238678,-0.28246837854385376
1776444520823010000,4.678010009765625,2.070589065551758,-0.37774020433425903,-0.18186135590076447
1776444520848028000,4.70302783203125,1.9672733545303345,-0.3500687777996063,-0.13208749890327454
1776444520873046800,4.728046875,1.1282479763031006,-0.16027472913265228,-0.22279779613018036
1776444520898065000,4.75306494140625,0.3961164951324463,-0.10821792483329773,-0.2174479067325592
1776444520923084000,4.778083984375,0.38263192772865295,-0.12589958310127258,-0.07681072503328323
1776444520948102000,4.803101806640625,0.7343842387199402,-0.15299378335475922,0.09090063720941544
1776444520973120000,4.8281201171875,0.6851953268051147,0.18576496839523315,-0.003689009230583906
1776444520998139000,4.853138916015625,0.337777316570282,0.6318176984786987,-0.19846591353416443
1776444521023157000,4.878156982421875,0.24056236445903778,0.9891221523284912,-0.21175873279571533
1776444521048176000,4.903176025390625,0.4248335361480713,1.261904001235962,-0.0207823459059
1776444521073194000,4.928194091796875,0.6993380784988403,1.2735557556152344,0.17924804985523224
1776444521098212900,4.953212890625,0.958613395690918,1.2884386777877808,0.3034515976905823
1776444521123231000,4.97823095703125,1.2156983613967896,1.2519171237945557,0.3694955110549927
1776444521148249000,5.0032490234375,1.5203865766525269,1.1472567319869995,0.3700617551803589
1776444521173268000,5.02826806640625,1.8666490316390991,0.9704936146736145,0.3139835000038147
1776444521198286000,5.0532861328125,2.1486802101135254,0.729041576385498,0.27593642473220825
1776444521223305000,5.078304931640625,2.2292797565460205,0.4973549544811249,0.2587730586528778
1776444521248323300,5.1033232421875,2.282010078430176,0.3123539388179779,0.23843024671077728
1776444521273341200,5.128341064453125,2.398005723953247,0.21570555865764618,0.12420562654733658
1776444521298360000,5.153360107421875,2.3092803955078125,0.31727761030197144,-0.011934526264667511
1776444521323378200,5.178378173828125,2.039199113845825,0.6022696495056152,-0.06579729169607162
1776444521348397000,5.20339697265625,1.6234605312347412,0.8270982503890991,-0.03125043213367462
1776444521373415000,5.228414794921875,1.5072487592697144,0.6700199246406555,-0.0558757521212101
1776444521398433300,5.253433349609375,1.6351330280303955,0.32202214002609253,-0.15097911655902863
1776444521423452200,5.2784521484375,1.6698698997497559,-0.08485081046819687,-0.17716892063617706
1776444521448470000,5.303469970703125,1.5351033210754395,-0.23696191608905792,-0.15752321481704712
1776444521473489200,5.3284892578125,1.41572904586792,-0.27214109897613525,-0.3443320393562317
1776444521498507000,5.353507080078125,1.5085372924804688,-0.2683025002479553,-0.49312785267829895
1776444521523525000,5.378525146484375,0.8107903003692627,-0.25873634219169617,-0.42811092734336853
1776444521548544300,5.403544189453125,0.464560329914093,0.07633660733699799,-0.015295369550585747
1776444521573562000,5.42856201171875,0.456348180770874,0.11827272921800613,0.030261985957622528
1776444521598581000,5.4535810546875,0.6606561541557312,0.215383842587471,-0.08990444988012314
1776444521623599000,5.47859912109375,0.9205077886581421,0.4518529772758484,0.04426690191030502
1776444521648617000,5.503616943359375,0.996894359588623,1.0566608905792236,-0.015421917662024498
1776444521673636000,5.528635986328125,1.1194872856140137,1.4209039211273193,-0.2168693244457245
1776444521698654200,5.553654296875,1.329602837562561,1.3129727840423584,-0.4561293423175812
1776444521723673000,5.578673095703125,1.7453113794326782,0.8275058269500732,-0.5902512669563293
1776444521748691200,5.603691162109375,2.0859732627868652,0.33682411909103394,-0.6923665404319763
1776444521773709000,5.628708984375,2.3338863849639893,0.1207197830080986,-0.6442772746086121
1776444521798728000,5.65372802734375,2.481644630432129,0.09063045680522919,-0.40446123480796814
1776444521823746300,5.678746337890625,2.2855522632598877,0.20341427624225616,-0.2950825095176697
1776444521848764200,5.70376416015625,1.9108095169067383,0.36068031191825867,-0.26096653938293457
1776444521873783000,5.728782958984375,1.663885474205017,0.5076507329940796,-0.2823233902454376
1776444521898801200,5.75380126953125,1.591361165046692,0.5272585153579712,-0.2602766752243042
1776444521923820000,5.778820068359375,1.5033797025680542,0.47254282236099243,-0.19217200577259064
1776444521948838000,5.803837890625,1.227617859840393,0.3425165116786957,-0.09859680384397507
1776444521973856000,5.82885595703125,1.0409648418426514,0.1958167999982834,0.01387912966310978
1776444521998875100,5.853875244140625,1.0088697671890259,0.051362667232751846,0.08257060497999191
1776444522023893000,5.87889306640625,1.0247089862823486,-0.09734943509101868,0.11300548911094666
1776444522048912100,5.903912109375,0.9279863834381104,-0.31619375944137573,0.16024962067604065
1776444522073930000,5.928929931640625,0.6926586627960205,-0.5638952851295471,0.16249801218509674
1776444522098948000,5.953947998046875,0.49678197503089905,-0.7911025285720825,0.1560329645872116
1776444522123967200,5.97896728515625,0.4303706884384155,-0.9265846610069275,0.1725134551525116
1776444522148984800,6.00398486328125,0.298410564661026,-0.8028351664543152,0.1904866248369217
1776444522174003200,6.029003173828125,0.2909092307090759,-0.3439534902572632,0.18383263051509857
1776444522199022000,6.05402197265625,0.5871571898460388,0.010276230983436108,0.14914149045944214
1776444522224040000,6.0790400390625,0.7634798288345337,-0.012706452049314976,-0.03684159368276596
1776444522249059000,6.10405908203125,1.3652390241622925,-0.3034505248069763,-0.17486746609210968
1776444522274077000,6.129076904296875,1.7871801853179932,-0.3499775528907776,-0.09428288042545319
1776444522299095000,6.154094970703125,1.8348392248153687,-0.29879558086395264,0.054604269564151764
1776444522324114200,6.1791142578125,1.9363298416137695,-0.3893659710884094,0.16510620713233948
1776444522349132000,6.204132080078125,2.0844438076019287,-0.42819327116012573,0.1779250055551529
1776444522374150100,6.229150146484375,2.0623438358306885,-0.36629581451416016,0.12431425601243973
1776444522399169000,6.2541689453125,1.7217695713043213,-0.1611464023590088,0.18692050874233246
1776444522424187000,6.279186767578125,1.5015320777893066,-0.06346418708562851,0.18194815516471863
1776444522449206000,6.3042060546875,1.4492778778076172,-0.07121875882148743,0.07673962414264679
1776444522474224000,6.32922412109375,1.4286621809005737,-0.08693555742502213,-0.17106512188911438
1776444522499242000,6.354241943359375,1.5049638748168945,-0.03658528998494148,-0.299227774143219
1776444522524261000,6.37926123046875,1.6038557291030884,0.017563968896865845,-0.4173527657985687
1776444522549279000,6.404279052734375,1.786144733428955,0.1299167424440384,-0.5230470895767212
1776444522574296800,6.429296875,2.1045470237731934,0.3950585424900055,-0.5429739356040955
1776444522599316200,6.454316162109375,2.401380777359009,0.5810467004776001,-0.6345667243003845
1776444522624334000,6.479333984375,2.650742292404175,0.6516831517219543,-0.518730103969574
1776444522649353000,6.50435302734375,2.7071821689605713,0.7535305023193359,-0.19029664993286133
1776444522674371000,6.52937109375,2.6283223628997803,0.7659918665885925,-0.10138145834207535
1776444522699389000,6.554388916015625,2.3999826908111572,0.821326732635498,-0.06091179698705673
1776444522724407800,6.57940771484375,2.2977395057678223,0.5481033325195312,-0.025155091658234596
1776444522749426200,6.60442626953125,2.1064178943634033,0.265462726354599,-0.07888587564229965
1776444522774444000,6.629444091796875,2.0955872535705566,-0.09137384593486786,-0.22533899545669556
1776444522799463000,6.654462890625,1.997808575630188,-0.22342854738235474,-0.2393880933523178
1776444522824481000,6.67948095703125,1.947829008102417,-0.33729812502861023,-0.2181108444929123
1776444522849499000,6.704498779296875,1.7749855518341064,-0.41109699010849,-0.26065951585769653
1776444522874518000,6.72951806640625,1.7326494455337524,-0.4708578884601593,-0.36140066385269165
1776444522899536000,6.754535888671875,1.7430533170700073,-0.40047284960746765,-0.42987048625946045
1776444522924555000,6.779554931640625,1.7378692626953125,-0.2646010220050812,-0.48172035813331604
1776444522949573000,6.804572998046875,1.8796950578689575,-0.17817598581314087,-0.5426894426345825
1776444522974591000,6.829591064453125,1.902011752128601,0.007828633300960064,-0.5497366189956665
1776444522999609900,6.85460986328125,2.003741979598999,0.27305537462234497,-0.5041165947914124
1776444523024628000,6.8796279296875,1.8473553657531738,0.47401994466781616,-0.3375123143196106
1776444523049645800,6.904645751953125,1.6320520639419556,0.451328307390213,-0.07015027105808258
1776444523074665000,6.9296650390625,1.6695324182510376,0.3523257076740265,0.010586296208202839
1776444523099683000,6.95468310546875,1.788120985031128,0.2578858733177185,0.15042205154895782
1776444523124701000,6.979700927734375,2.009582042694092,-0.017597362399101257,0.40485864877700806
1776444523149720600,7.004720458984375,1.846601963043213,-0.45937782526016235,0.6790582537651062
1776444523174738700,7.02973876953125,1.6370055675506592,-0.8387024998664856,0.8048909306526184
1776444523199756500,7.054756591796875,1.2947932481765747,-0.9815096259117126,0.7573843002319336
1776444523224775700,7.079775634765625,1.0915440320968628,-0.791032612323761,0.6419358849525452
1776444523249793800,7.104793701171875,1.0863726139068604,-0.4404752254486084,0.4293521046638489
1776444523274811600,7.129811767578125,0.9941267967224121,-0.10843245685100555,0.2682696580886841
1776444523299830800,7.154830810546875,0.9329755902290344,0.11205369979143143,0.13217712938785553
1776444523324848600,7.1798486328125,0.9449343085289001,0.33371391892433167,0.045818254351615906
1776444523349867800,7.20486767578125,1.0624669790267944,0.44154092669487,0.013549894094467163
1776444523374886000,7.229885986328125,1.249321460723877,0.3144025504589081,0.025904061272740364
1776444523399903700,7.25490380859375,1.3442281484603882,-0.02894509583711624,0.11966487765312195
1776444523424922600,7.279922607421875,1.479788899421692,-0.30999261140823364,0.13337674736976624
1776444523449940700,7.304940673828125,1.5970253944396973,-0.5601066946983337,0.06637568771839142
1776444523474958600,7.32995849609375,1.661338210105896,-0.642425000667572,-0.007567706052213907
1776444523499977700,7.354977783203125,1.6737524271011353,-0.5961127877235413,-0.11055056750774384
1776444523524995800,7.379995849609375,1.6922862529754639,-0.4173184037208557,-0.27688533067703247
1776444523550013700,7.405013671875,1.7769548892974854,-0.016106117516756058,-0.3036402761936188
1776444523575032800,7.43003271484375,1.7306472063064575,0.23596379160881042,-0.2842476963996887
1776444523600050700,7.45505078125,1.2271015644073486,0.16233350336551666,-0.11623265594244003
1776444523625068500,7.480068603515625,0.761810839176178,-0.23787343502044678,0.27390041947364807
1776444523650088000,7.505087890625,0.26711755990982056,-0.2545281648635864,0.47440865635871887
1776444523675105800,7.530105712890625,0.23555487394332886,-0.46120142936706543,0.3307267427444458
1776444523700124000,7.5551240234375,0.33531010150909424,-0.511102020740509,0.1447554975748062
1776444523725142800,7.580142822265625,0.8739485144615173,-0.5598785877227783,-0.050215866416692734
1776444523750160600,7.60516064453125,1.4846186637878418,-0.4842187464237213,-0.012411692179739475
1776444523775178800,7.6301787109375,1.6211923360824585,-0.30068260431289673,0.03974407911300659
1776444523800197600,7.65519775390625,1.8787689208984375,-0.037610769271850586,0.08305695652961731
1776444523825215700,7.6802158203125,2.136347532272339,0.2654396593570709,0.059210874140262604
1776444523850233900,7.70523388671875,2.417708158493042,0.39567676186561584,0.0041992091573774815
1776444523875252700,7.730252685546875,2.451561212539673,0.41339942812919617,-0.020578943192958832
1776444523900270600,7.7552705078125,2.40144944190979,0.47843673825263977,0.0009847464971244335
1776444523925288700,7.780288818359375,2.365891695022583,0.5536521673202515,-0.009834138676524162
1776444523950307600,7.8053076171875,2.2589728832244873,0.3404037654399872,-0.04498288035392761
1776444523975325700,7.83032568359375,1.9008698463439941,0.19051414728164673,-0.17266421020030975
1776444524000343800,7.85534375,1.4652026891708374,0.23439279198646545,-0.28568440675735474
1776444524025362700,7.88036279296875,1.1863826513290405,0.21710781753063202,-0.30061420798301697
1776444524050380800,7.905380859375,1.1056758165359497,0.29173997044563293,-0.2962077558040619
1776444524075398700,7.930398681640625,0.9448239207267761,0.40158551931381226,-0.22559569776058197
1776444524100417500,7.95541748046875,0.9571972489356995,0.5302289724349976,-0.12762346863746643
1776444524125436000,7.980435791015625,1.11261785030365,0.6210691332817078,-0.06796365976333618
1776444524150453000,8.005452880859375,1.4184757471084595,0.4633253216743469,-0.018051626160740852
1776444524175472000,8.03047216796875,1.5639346837997437,0.5694681406021118,0.06890813261270523
1776444524200490000,8.055489990234374,1.4244219064712524,0.5006313323974609,0.118381068110466
1776444524225508000,8.080508056640625,1.2733711004257202,0.4204413592815399,0.23471380770206451
1776444524250527000,8.10552685546875,1.2179027795791626,0.5763311386108398,0.2746019661426544
1776444524275545000,8.130545166015626,1.4524739980697632,0.22014181315898895,0.3117164075374603
1776444524300563200,8.155563232421875,1.5858803987503052,0.15971454977989197,0.22572948038578033
1776444524325582000,8.18058203125,1.5272903442382812,0.23498201370239258,0.38977763056755066
1776444524350600000,8.205599853515626,1.4889174699783325,0.23931176960468292,0.4683971405029297
1776444524375618000,8.2306181640625,1.4686473608016968,0.21501483023166656,0.35297200083732605
1776444524400636000,8.255635986328125,1.540651798248291,0.12923334538936615,0.2840215265750885
1776444524425655000,8.280655029296875,1.6231642961502075,0.06903592497110367,0.19164949655532837
1776444524450673200,8.305673095703124,1.7523202896118164,0.09836649894714355,0.14269278943538666
1776444524475691000,8.33069091796875,2.0263078212738037,0.02062523551285267,0.08962960541248322
1776444524500710000,8.3557099609375,2.276920795440674,-0.1135765016078949,-0.01643512025475502
1776444524525728000,8.38072802734375,2.5244483947753906,-0.2822814881801605,0.0195300430059433
1776444524550745900,8.405745849609374,2.668628454208374,-0.2562348544597626,-0.07816831767559052
1776444524575765000,8.430764892578125,2.804133415222168,-0.360769122838974,-0.09211579710245132
1776444524600783000,8.455783203125,2.7961628437042236,-0.3871942162513733,-0.12523142993450165
1776444524625801000,8.480801025390624,2.8193607330322266,-0.37528854608535767,-0.15330208837985992
1776444524650820000,8.505820068359375,2.7595677375793457,-0.14508982002735138,-0.14484691619873047
1776444524675838000,8.530837890625,2.5375096797943115,0.16691814363002777,-0.17482392489910126
1776444524700856000,8.55585595703125,2.5032389163970947,0.19555750489234924,-0.07731633633375168
1776444524725874000,8.5808740234375,2.381984233856201,0.41859328746795654,-0.09013594686985016
1776444524750893000,8.60589306640625,2.36780047416687,0.5346945524215698,0.015452209860086441
1776444524775911200,8.6309111328125,2.1070046424865723,0.7688451409339905,0.20429392158985138
1776444524800929000,8.655928955078124,2.1013071537017822,0.6796766519546509,0.26843029260635376
1776444524825948000,8.680947998046875,1.942948341369629,0.7854122519493103,0.3939020037651062
1776444524850966000,8.705966064453126,1.848746418952942,0.7350064516067505,0.4975665509700775
1776444524875984000,8.73098388671875,1.6732761859893799,0.529667854309082,0.47691410779953003
1776444524901003000,8.7560029296875,1.265609622001648,0.30842626094818115,0.5431711077690125
1776444524926021000,8.781021240234375,0.8436353802680969,-0.05389080196619034,0.46139097213745117
1776444524951039000,8.8060390625,0.44955652952194214,-0.3058628737926483,0.4087402820587158
1776444524976058000,8.83105810546875,0.31947585940361023,-0.512453019618988,0.3443945050239563
1776444525001076000,8.856075927734375,0.5566563010215759,-0.54563307762146,0.28739461302757263
1776444525026094000,8.881093994140626,0.44510024785995483,-0.4281689524650574,0.06655701994895935
1776444525051112000,8.90611181640625,0.29009684920310974,-0.045669227838516235,0.02255193144083023
1776444525076131000,8.931131103515625,0.2601206302642822,0.4107876420021057,-0.018426425755023956
1776444525101149200,8.956149169921876,0.5485597848892212,0.682650625705719,0.004900874570012093
1776444525126167000,8.9811669921875,1.0957205295562744,0.7071195840835571,-0.037101197987794876
1776444525151186000,9.00618603515625,1.3935728073120117,0.7581561207771301,-0.10720506310462952
1776444525176204000,9.0312041015625,1.7580676078796387,0.8054887056350708,-0.27432602643966675
1776444525201222000,9.056221923828126,1.8420288562774658,0.8242311477661133,-0.4101904034614563
1776444525226240800,9.08124072265625,1.906756043434143,0.8821395039558411,-0.5303600430488586
1776444525251259000,9.1062587890625,2.011512517929077,0.7668845057487488,-0.5867722034454346
1776444525276276700,9.13127685546875,2.12434720993042,0.6772516369819641,-0.7444527745246887
1776444525301294800,9.156294921875,1.9316911697387695,0.630354106426239,-0.85331130027771
1776444525326314000,9.18131396484375,1.7986150979995728,0.5477782487869263,-0.8020064234733582
1776444525351331800,9.206331787109375,1.9251888990402222,0.19055715203285217,-0.6343572735786438
1776444525376350000,9.231349853515624,2.1841423511505127,-0.29227927327156067,-0.6370323300361633
1776444525401368800,9.256368896484375,1.6369256973266602,-0.7498903870582581,-0.6439555883407593
1776444525426387000,9.281386962890625,0.8056923151016235,-0.7714405655860901,-0.6456001400947571
1776444525451404800,9.30640478515625,0.8666374683380127,-0.886557400226593,-0.8235358595848083
1776444525476423000,9.3314228515625,1.3109405040740967,-0.8077117800712585,-1.0131950378417969
1776444525501442000,9.356442138671875,1.4245696067810059,-0.7837632894515991,-0.9268986582756042
1776444525526460000,9.3814599609375,1.015173077583313,-0.4507107436656952,-0.8293417692184448
1776444525551478000,9.40647802734375,0.5574369430541992,-0.3730979859828949,-0.8334679007530212
1776444525576497000,9.431496826171875,0.5375476479530334,-0.031108669936656952,-0.6614396572113037
1776444525601514800,9.4565146484375,0.560045063495636,0.05294600874185562,-0.4685061275959015
1776444525626532900,9.481532958984374,0.8730674982070923,0.33558037877082825,-0.24488621950149536
1776444525651550700,9.50655078125,1.1430652141571045,0.4455247223377228,-0.32852306962013245
1776444525676569900,9.53156982421875,1.1530557870864868,0.7539399862289429,-0.21133209764957428
1776444525701588000,9.556587890625,1.2091161012649536,0.4425266683101654,0.16741549968719482
1776444525726605800,9.581605712890624,1.2397050857543945,0.15804393589496613,0.5884760618209839
1776444525751624700,9.606624755859375,1.5227627754211426,-0.1432623714208603,0.6164966821670532
1776444525776642800,9.631642822265626,1.9550038576126099,-0.3503027856349945,0.6300075054168701
1776444525801660700,9.65666064453125,2.2973270416259766,-0.26466670632362366,0.4589380919933319
1776444525826679000,9.681678955078125,2.4918859004974365,-0.1399841606616974,0.2511911392211914
1776444525851698000,9.706697998046875,2.2740089893341064,-0.124104805290699,0.1177084669470787
1776444525876715800,9.7317158203125,1.8088061809539795,-0.04764597862958908,0.07299718260765076
1776444525901734000,9.75673388671875,1.6443959474563599,0.26246756315231323,0.053460653871297836
1776444525926751700,9.781751708984375,1.5814582109451294,0.3734527826309204,-0.09156865626573563
1776444525951771000,9.80677099609375,1.4384419918060303,0.2953900694847107,-0.25017037987709045
1776444525976789000,9.8317890625,1.203482747077942,0.17179477214813232,-0.3234077990055084
1776444526001806800,9.856806884765625,0.9171654582023621,0.12617601454257965,-0.39600133895874023
1776444526026826000,9.881825927734376,0.5777840614318848,0.12896622717380524,-0.44225573539733887
1776444526051843800,9.90684375,0.3787108063697815,0.12407730519771576,-0.43596014380455017
1776444526076862000,9.931862060546875,0.3689352869987488,0.11037920415401459,-0.4363873302936554
1776444526101879800,9.9568798828125,0.41735169291496277,0.05171589553356171,-0.41670650243759155
1776444526126898700,9.981898681640626,0.4301692843437195,0.009603342041373253,-0.3350669741630554
1776444526151917600,10.00691748046875,0.4492800831794739,0.010949154384434223,-0.1965133249759674
1776444526176935700,10.031935791015625,0.40028879046440125,-0.03983346372842789,-0.11137202382087708
1776444526201953500,10.05695361328125,0.47466936707496643,0.11021116375923157,-0.106575146317482
1776444526226972700,10.08197265625,0.7259129881858826,0.049640096724033356,-0.14689937233924866
1776444526251990500,10.106990478515625,1.0545117855072021,-0.14953064918518066,-0.2997504770755768
1776444526277008600,10.132008544921876,1.6656007766723633,-0.2464984804391861,-0.3829882740974426
1776444526302026800,10.15702685546875,2.040445566177368,-0.5424080491065979,-0.3479628264904022
1776444526327045600,10.182045654296875,2.126697063446045,-0.603043258190155,-0.033729225397109985
1776444526352063700,10.207063720703125,2.0939297676086426,-0.4853898882865906,0.3128085434436798
1776444526377081600,10.23208154296875,2.1001334190368652,-0.6777358055114746,0.43032562732696533
1776444526402100500,10.2571005859375,2.047805070877075,-0.876737654209137,0.3389500677585602
1776444526427118600,10.28211865234375,1.832981824874878,-0.8296388983726501,0.24421682953834534
1776444526452136400,10.307136474609376,1.6731420755386353,-0.5369335412979126,0.25965240597724915
1776444526477154800,10.33215478515625,1.6594303846359253,-0.28215062618255615,0.11707915365695953
1776444526502173700,10.357173583984375,1.6341421604156494,-0.046410687267780304,0.06945548206567764
1776444526527191600,10.382191650390626,1.7448784112930298,0.13647711277008057,-0.025500796735286713
1776444526552209700,10.407209716796874,1.8614493608474731,0.3229067921638489,0.14963190257549286
1776444526577227500,10.4322275390625,2.123931646347046,0.4498002827167511,0.2196652591228485
1776444526602246400,10.457246337890625,2.4835851192474365,0.5708875060081482,0.22717039287090302
1776444526627264800,10.4822646484375,2.6962099075317383,0.6142013669013977,0.18708039820194244
1776444526652282600,10.50728271484375,2.841590642929077,0.6126459240913391,0.2930503785610199
1776444526677300700,10.53230078125,2.814206600189209,0.49044355750083923,0.46100208163261414
1776444526702319600,10.557319580078126,2.600973129272461,0.3135773241519928,0.6359463334083557
1776444526727337500,10.58233740234375,2.2138423919677734,0.14897945523262024,0.6315262913703918
1776444526752355600,10.60735546875,1.945460319519043,-0.2298719733953476,0.5886887311935425
1776444526777373400,10.63237353515625,1.6945290565490723,-0.7457988262176514,0.35166600346565247
1776444526802392800,10.657392822265624,1.5639674663543701,-1.2311525344848633,0.14949725568294525
1776444526827410700,10.68241064453125,1.4882500171661377,-1.3758970499038696,0.05984197556972504
1776444526852428800,10.7074287109375,1.3441604375839233,-1.3261771202087402,-0.10913066565990448
1776444526877446700,10.73244677734375,1.3203771114349365,-0.967807412147522,-0.35583198070526123
1776444526902465500,10.757465576171874,0.9005466103553772,-0.7914174199104309,-0.5361382961273193
1776444526927483600,10.782483642578125,0.7341259121894836,-0.4181046187877655,-0.7192043662071228
1776444526952501500,10.80750146484375,0.7265228033065796,-0.07967396825551987,-0.8078688979148865
1776444526977519900,10.832519775390624,0.7417598366737366,0.19156047701835632,-0.8794501423835754
1776444527002538800,10.857538818359375,0.8279274702072144,0.4871048927307129,-0.8499242663383484
1776444527027556600,10.882556640625,0.9715126752853394,0.5148370862007141,-0.827458381652832
1776444527052574700,10.90757470703125,1.2277300357818604,0.4722621738910675,-0.6652306318283081
1776444527077592600,10.932592529296874,1.5416946411132812,0.35035809874534607,-0.5295662879943848
1776444527102611500,10.957611572265625,1.8209365606307983,0.3449404537677765,-0.4802141487598419
1776444527127629600,10.982629638671876,2.0026042461395264,0.3637431561946869,-0.474852591753006
1776444527152647200,11.007647216796874,1.9000225067138672,0.395143985748291,-0.40925055742263794
1776444527177665300,11.032665283203125,1.701849102973938,0.5244773030281067,-0.23515254259109497
1776444527202684400,11.057684326171875,1.473308801651001,0.4885943830013275,-0.15493127703666687
1776444527227702300,11.082702392578126,1.6136385202407837,0.24756407737731934,0.02421647310256958
1776444527252720400,11.107720458984375,1.5478641986846924,0.13071855902671814,0.2502272427082062
1776444527277738200,11.13273828125,1.3097946643829346,-0.1777704507112503,0.2973465025424957
1776444527302757400,11.15775732421875,0.9003813862800598,-0.3102744221687317,0.3476096987724304
1776444527327775200,11.182775146484374,0.600165069103241,-0.22486750781536102,0.2862459719181061
1776444527352793300,11.20779345703125,0.5564742684364319,0.1310664862394333,0.24569739401340485
1776444527377811500,11.2328115234375,0.7267118096351624,0.4991348087787628,0.2765553891658783
1776444527402829300,11.257829345703126,0.8229060173034668,0.6873471736907959,0.33462995290756226
1776444527427848400,11.282848388671875,0.8166853189468384,0.7409306168556213,0.3633517920970917
1776444527452866300,11.3078662109375,1.007066249847412,0.6756653189659119,0.3375907838344574
1776444527477884400,11.332884521484376,1.389466404914856,0.6640443801879883,0.3918651342391968
1776444527502902300,11.35790234375,1.5297534465789795,0.6071162819862366,0.40916112065315247
1776444527527921400,11.38292138671875,1.6292686462402344,0.44268736243247986,0.2503827214241028
1776444527552939500,11.407939453125,1.856661081314087,0.38419926166534424,0.17436333000659943
1776444527577957400,11.432957275390624,1.9037737846374512,0.38634607195854187,0.18287473917007446
1776444527602975500,11.4579755859375,1.8927994966506958,0.3203170895576477,0.190169557929039
1776444527627994400,11.482994384765625,1.9651226997375488,0.07097465544939041,0.1508466601371765
1776444527653012200,11.50801220703125,1.9185218811035156,0.2315582036972046,0.3201848864555359
1776444527678030300,11.5330302734375,1.5231515169143677,0.33250105381011963,0.2766910791397095
1776444527703048200,11.558048095703125,1.037538766860962,0.40343356132507324,0.04897661879658699
1776444527728066600,11.583066650390625,1.0198166370391846,0.07553625106811523,-0.06137016788125038
1776444527753085400,11.60808544921875,1.292580485343933,-0.355934202671051,0.12321566790342331
1776444527778103300,11.633103271484375,1.3551032543182373,-0.5694183707237244,0.31747159361839294
1776444527803121400,11.658121337890625,1.092092752456665,-0.3528079390525818,0.30126750469207764
1776444527828139300,11.68313916015625,0.9791469573974609,-0.05201372504234314,0.26186349987983704
1776444527853158100,11.708158203125,1.01234769821167,0.09830734133720398,0.15208764374256134
1776444527878176500,11.733176513671875,1.2315720319747925,0.20907354354858398,-0.049558646976947784
1776444527903194400,11.7581943359375,1.5412993431091309,0.2785777747631073,-0.2163102775812149
1776444527928212500,11.78321240234375,1.7632373571395874,-0.09551792591810226,-0.07156597077846527
1776444527953230300,11.808230224609375,2.2390811443328857,-0.15445740520954132,-0.16932928562164307
1776444527978249200,11.833249267578125,2.3183836936950684,0.04963407665491104,-0.40743112564086914
1776444528003267300,11.858267333984376,2.290365695953369,0.18692654371261597,-0.453954815864563
1776444528028285200,11.88328515625,2.131697177886963,0.17756475508213043,-0.17032670974731445
1776444528053303300,11.90830322265625,1.9576817750930786,0.2608136832714081,-0.1741085648536682
1776444528078321400,11.9333212890625,2.0778257846832275,-0.018732603639364243,-0.1691504418849945
1776444528103340300,11.95834033203125,2.2090811729431152,-0.20690596103668213,-0.1984720677137375
1776444528128358400,11.9833583984375,1.980982780456543,-0.2687761187553406,-0.11288581043481827
1776444528153380000,12.008380126953124,1.6047621965408325,-0.3272981643676758,-0.02013707160949707
1776444528178398200,12.033398193359375,1.3400880098342896,-0.34662672877311707,-0.007766658905893564
1776444528203417000,12.0584169921875,1.2485650777816772,-0.21878725290298462,0.051192738115787506
1776444528228435000,12.08343505859375,1.2654907703399658,-0.14327359199523926,0.09529774636030197
1776444528253453000,12.108453125,1.2180603742599487,-0.03931071609258652,0.036894429475069046
1776444528278471000,12.133470947265625,1.0021569728851318,0.10071389377117157,0.02827887237071991
1776444528303489300,12.1584892578125,0.727504551410675,0.25514501333236694,0.035478658974170685
1776444528328508200,12.183508056640624,0.502282440662384,0.4225963354110718,0.03416585177183151
1776444528353526000,12.208526123046875,0.3431169390678406,0.5536614060401917,0.006615586578845978
1776444528378544000,12.233544189453125,0.2833366096019745,0.6755677461624146,-0.0906183123588562
1776444528403562000,12.25856201171875,0.5433173775672913,0.7282770276069641,-0.0989755243062973
1776444528428580000,12.283580078125,0.9166406989097595,0.886877179145813,-0.18691274523735046
1776444528453599000,12.308598876953125,1.264046311378479,0.9862459897994995,-0.30155444145202637
1776444528478617000,12.3336171875,1.3704043626785278,1.1936980485916138,-0.4133104979991913
1776444528503635200,12.35863525390625,1.2717373371124268,1.0919324159622192,-0.46126043796539307
1776444528528653000,12.383653076171875,1.3766850233078003,0.9210852980613708,-0.4798075556755066
1776444528553671200,12.408671142578125,1.6773096323013306,0.8870679140090942,-0.38911890983581543
1776444528578690000,12.43368994140625,2.0749948024749756,0.8806160688400269,-0.40257126092910767
1776444528603708000,12.4587080078125,2.236851453781128,0.7914854288101196,-0.4147806465625763
1776444528628726000,12.48372607421875,2.3696467876434326,0.734191358089447,-0.4202069342136383
1776444528653743900,12.508743896484376,2.4270217418670654,0.6756501793861389,-0.40252816677093506
1776444528678762200,12.53376220703125,2.422361373901367,0.59853595495224,-0.41505321860313416
1776444528703781000,12.558781005859375,2.4187510013580322,0.4664760231971741,-0.47701847553253174
1776444528728799200,12.58379931640625,2.1850571632385254,0.39786913990974426,-0.5458845496177673
1776444528753817000,12.608817138671874,1.9821689128875732,0.3445490896701813,-0.589604377746582
1776444528778835000,12.6338349609375,1.969778299331665,0.24621090292930603,-0.5400453209877014
1776444528803853000,12.65885302734375,1.9675418138504028,0.02331843227148056,-0.5023877024650574
1776444528828872200,12.6838720703125,1.8950228691101074,-0.2012408971786499,-0.5633506774902344
1776444528853890300,12.708890380859375,1.9435182809829712,-0.33485525846481323,-0.5515556931495667
1776444528878908200,12.733908203125,2.0188939571380615,-0.28142574429512024,-0.5181991457939148
1776444528903926000,12.758926025390625,2.0853869915008545,-0.24189671874046326,-0.39215609431266785
1776444528928944000,12.783944091796876,1.8691481351852417,-0.3058387041091919,-0.12814249098300934
1776444528953963000,12.808962890625,1.4595489501953125,-0.355297327041626,0.02428007498383522
1776444528978981000,12.833981201171875,1.1637741327285767,-0.2728470265865326,0.08103833347558975
1776444529003999000,12.8589990234375,1.0197551250457764,-0.2957094609737396,0.26576489210128784
1776444529029017000,12.88401708984375,0.9500870108604431,-0.2637764513492584,0.2796114385128021
1776444529054035200,12.90903515625,0.8469927310943604,-0.36721575260162354,0.4615558683872223
1776444529079054000,12.93405419921875,0.9725149273872375,-0.42465054988861084,0.6910018920898438
1776444529104072200,12.959072265625,1.0490080118179321,-0.4115543067455292,0.8403369188308716
1776444529129090000,12.984090087890625,0.77949458360672,-0.35819122195243835,0.8544420003890991
1776444529154104300,13.009104248046874,0.2657860517501831,-0.5061987042427063,0.619917094707489
1776444529179122200,13.0341220703125,0.14458918571472168,-0.4505700469017029,0.306802362203598
1776444529204140300,13.059140380859375,0.31879299879074097,-0.4599463641643524,0.10815875977277756
1776444529229159200,13.0841591796875,0.5320857763290405,-0.4307904839515686,0.04469873011112213
1776444529254177300,13.10917724609375,0.6315083503723145,-0.3716563284397125,-0.04029478877782822
1776444529279195400,13.1341953125,0.6482561826705933,-0.22576367855072021,-0.09486692398786545
1776444529304213200,13.159213134765626,0.7308526039123535,-0.010085721500217915,-0.17040376365184784
1776444529329231400,13.1842314453125,0.5427268147468567,0.26854416728019714,-0.08845965564250946
1776444529354250200,13.209250244140625,0.6188474297523499,0.24381285905838013,-0.07642000168561935
1776444529379268000,13.23426806640625,0.848946213722229,0.3706965148448944,-0.04567287489771843
1776444529404286200,13.2592861328125,0.9203585982322693,0.4122677743434906,-0.024667968973517418
1776444529429304000,13.284303955078125,0.8846904039382935,0.5510640144348145,0.03947614133358002
1776444529454322200,13.309322265625,1.0777214765548706,0.60490483045578,0.05850103497505188
1776444529479340300,13.33434033203125,1.577282428741455,0.6089541912078857,-0.08649343997240067
1776444529504359200,13.359359130859374,1.9573674201965332,0.7320836186408997,-0.2759063243865967
1776444529529377300,13.384377197265625,2.0526790618896484,0.7403187155723572,-0.37525904178619385
1776444529554395100,13.40939501953125,2.0242559909820557,0.6904861927032471,-0.48346126079559326
1776444529579413200,13.434413330078126,1.959535837173462,0.5370954275131226,-0.5707324147224426
1776444529604431000,13.45943115234375,2.008605718612671,0.32237038016319275,-0.716393768787384
1776444529629449200,13.48444921875,1.7419991493225098,0.22751711308956146,-0.782909095287323
1776444529654468400,13.50946826171875,1.541900634765625,0.06169817969202995,-0.7339125275611877
1776444529679486200,13.534486328125,1.6024997234344482,-0.1581893116235733,-0.8381597399711609
1776444529704504300,13.55950439453125,1.5944068431854248,-0.3291402757167816,-0.9048140048980713
1776444529729522200,13.584522216796875,0.8558487892150879,-0.7160264849662781,-0.8080766797065735
1776444529754540300,13.609540283203126,0.12900324165821075,-0.26069265604019165,-0.46852385997772217
1776444529779558100,13.63455810546875,0.6157138347625732,-0.5427433848381042,-0.584213376045227
1776444529804577000,13.659576904296875,0.733160674571991,-0.15774895250797272,-0.4670697748661041
1776444529829595400,13.684595458984376,0.740845263004303,0.21445989608764648,-0.21309971809387207
1776444529854613200,13.70961328125,0.8796519637107849,0.3749144375324249,-0.11137805134057999
1776444529879631400,13.73463134765625,1.0650137662887573,0.34734418988227844,-0.26438695192337036
1776444529904649200,13.759649169921875,1.1305923461914062,0.20688199996948242,-0.33494237065315247
1776444529929667300,13.784667236328126,1.061914324760437,0.09234824031591415,-0.2781456708908081
1776444529954686200,13.809686279296875,1.0273438692092896,0.12967069447040558,-0.21308474242687225
1776444529979704000,13.8347041015625,0.9317672252655029,0.17440994083881378,-0.15971091389656067
1776444530004722200,13.85972216796875,0.9213667511940002,0.2633807063102722,-0.21667125821113586
1776444530029740300,13.884740234375,0.9012287259101868,0.4218185544013977,-0.1058986634016037
1776444530054758400,13.90975830078125,0.9865805506706238,0.6547784209251404,0.019141910597682
1776444530079776300,13.9347763671875,1.040075659751892,0.7220369577407837,0.11052844673395157
1776444530104795100,13.959795166015626,0.9702856540679932,0.6732615828514099,0.043586332350969315
1776444530129813200,13.984813232421875,0.8733230233192444,0.49442508816719055,-0.012764849700033665
1776444530154831600,14.00983154296875,0.8399591445922852,0.40126854181289673,-0.19833163917064667
1776444530179849700,14.034849609375,1.1102334260940552,0.20235809683799744,-0.3506436347961426
1776444530204867600,14.05986767578125,1.3306773900985718,0.14711493253707886,-0.49585098028182983
1776444530229885700,14.0848857421875,1.6357256174087524,0.10744409263134003,-0.5373830795288086
1776444530254904600,14.109904541015625,1.8641301393508911,0.12207961827516556,-0.44845086336135864
1776444530279922400,14.13492236328125,2.0272607803344727,0.11341302841901779,-0.42432335019111633
1776444530304940800,14.15994091796875,2.005195140838623,0.04398348927497864,-0.3193565607070923
1776444530329958700,14.184958740234375,2.0194432735443115,0.09520020335912704,-0.2298211306333542
1776444530354976800,14.209976806640626,2.012315273284912,0.1746486872434616,-0.13426651060581207
1776444530379994600,14.23499462890625,1.8680306673049927,0.27593281865119934,-0.10698693245649338
1776444530405012500,14.260012451171875,1.628273844718933,0.3452395796775818,-0.09622059762477875
1776444530430031600,14.285031494140625,1.4191408157348633,0.39224812388420105,-0.1599206030368805
1776444530455049500,14.310049560546876,1.2743778228759766,0.4163585305213928,-0.26501527428627014
1776444530480067600,14.335067626953125,1.062592625617981,0.35167500376701355,-0.3851238787174225
1776444530505085700,14.360085693359375,0.810430645942688,0.2678438723087311,-0.4010094404220581
1776444530530103800,14.385103759765625,0.6915916204452515,0.17738895118236542,-0.3854909837245941
1776444530555121700,14.41012158203125,0.5903001427650452,0.0934266746044159,-0.3754139840602875
1776444530580139500,14.435139404296875,0.5038760900497437,0.04514342546463013,-0.3328779339790344
1776444530605158700,14.46015869140625,0.45323503017425537,0.010446172207593918,-0.2676149904727936
1776444530630176500,14.485176513671876,0.4332820773124695,-0.02670053020119667,-0.19002176821231842
1776444530655194600,14.510194580078124,0.42840707302093506,-0.13083891570568085,-0.15228183567523956
1776444530680212500,14.53521240234375,0.37989047169685364,-0.26928040385246277,-0.18884210288524628
1776444530705230600,14.560230712890625,0.38950246572494507,-0.35410863161087036,-0.20487216114997864
1776444530730248700,14.585248779296874,0.40635573863983154,-0.41132038831710815,-0.22310326993465424
1776444530755267600,14.610267578125,0.3444559872150421,-0.4212438464164734,-0.24574227631092072
1776444530780285700,14.63528564453125,0.5766271948814392,-0.484594464302063,-0.3100258409976959
1776444530805303600,14.660303466796876,0.8617740869522095,-0.4071609377861023,-0.34176358580589294
1776444530830321700,14.68532177734375,0.9997563362121582,-0.39074599742889404,-0.32472914457321167
1776444530855339500,14.710339599609375,1.3100577592849731,-0.3420032262802124,-0.341551274061203
1776444530880357400,14.735357421875,1.7895876169204712,-0.5416588187217712,-0.46304166316986084
1776444530905375500,14.76037548828125,2.3708181381225586,-0.6501368284225464,-0.4245508015155792
1776444530930393600,14.7853935546875,2.8686795234680176,-0.738508403301239,-0.20572049915790558
1776444530955412700,14.810412841796875,2.8579728603363037,-0.7501933574676514,0.08780696243047714
1776444530980430600,14.8354306640625,2.7632625102996826,-0.7203187942504883,0.2837677299976349
1776444531005448700,14.86044873046875,2.6858158111572266,-0.6573302745819092,0.36885949969291687
1776444531030466600,14.885466552734375,2.5702710151672363,-0.6075993180274963,0.39288589358329773
1776444531055484400,14.910484375,2.293748140335083,-0.5892341732978821,0.27954214811325073
1776444531080502500,14.93550244140625,2.033937931060791,-0.4972894787788391,0.26949381828308105
1776444531105520400,14.960520263671874,1.846846103668213,-0.46792280673980713,0.2115856409072876
1776444531130539800,14.985539794921875,1.697690486907959,-0.4509218633174896,0.14800091087818146
1776444531155561000,15.01056103515625,1.652040958404541,-0.2912437617778778,0.08557353913784027
1776444531180579000,15.0355791015625,1.6455739736557007,-0.08788280189037323,0.09120083600282669
1776444531205597000,15.060596923828125,1.6270304918289185,0.08283434808254242,0.03152291849255562
1776444531230614800,15.08561474609375,1.5830967426300049,0.399093896150589,-0.08206399530172348
1776444531255633000,15.1106328125,1.7384594678878784,0.7271252870559692,-0.09747463464736938
1776444531280650800,15.135650634765625,1.927592158317566,0.8806440234184265,-0.04998667538166046
1776444531305669000,15.160669189453126,2.024061918258667,1.0865240097045898,0.2332669198513031
1776444531330688000,15.18568798828125,1.9489107131958008,1.0522184371948242,0.22291623055934906
1776444531355705900,15.210705810546875,2.077571153640747,0.9493086934089661,0.1086263656616211
1776444531380724000,15.235723876953125,2.019524574279785,0.82523512840271,0.2887625992298126
1776444531405741800,15.260741943359376,2.3642702102661133,0.5609596967697144,0.5093247890472412
1776444531430760000,15.285760009765625,2.7200586795806885,0.12887227535247803,0.5309946537017822
1776444531455777800,15.31077783203125,2.6688895225524902,-0.14350411295890808,0.46605876088142395
1776444531480796000,15.3357958984375,2.8952829837799072,-0.31967222690582275,0.13173584640026093
1776444531505814000,15.36081396484375,2.864722490310669,-0.3214697241783142,0.02073766104876995
1776444531530833000,15.3858330078125,1.9711130857467651,-0.28662624955177307,0.016807029023766518
1776444531555851000,15.41085107421875,1.253262996673584,-0.17076969146728516,-0.00994055811315775
1776444531580868900,15.435868896484376,0.8477298021316528,-0.004127982538193464,-0.23933939635753632
1776444531605887000,15.460886962890624,0.48614421486854553,0.25086116790771484,-0.4469943642616272
1776444531630904800,15.48590478515625,0.41881218552589417,0.5079740881919861,-0.5354452133178711
1776444531655923000,15.5109228515625,0.4382719397544861,0.6662673950195312,-0.23271405696868896
1776444531680940800,15.53594091796875,0.6156327128410339,0.660973072052002,0.12886273860931396
1776444531705959200,15.560959228515625,0.7241577506065369,0.4945068359375,0.2259107232093811
1776444531730978000,15.58597802734375,0.9404807090759277,0.325982004404068,0.2523541748523712
1776444531755996000,15.610995849609376,0.9700062274932861,0.02747521921992302,0.08550693094730377
1776444531781014000,15.636013916015624,1.0453050136566162,-0.15370401740074158,-0.052782461047172546
1776444531806032000,15.661031982421875,1.1516821384429932,-0.29634973406791687,-0.19443823397159576
1776444531831050000,15.686050048828125,1.1403805017471313,-0.2825099229812622,-0.20058690011501312
1776444531856067800,15.71106787109375,1.170915961265564,-0.3471846580505371,-0.2252303659915924
1776444531881086000,15.7360859375,1.339341402053833,-0.171059712767601,-0.24227026104927063
1776444531906103800,15.761103759765625,1.5704190731048584,0.09102276712656021,-0.22553777694702148
1776444531931122200,15.7861220703125,1.689599871635437,0.0855754017829895,-0.27274686098098755
1776444531956141000,15.81114111328125,1.752149224281311,-0.031702883541584015,-0.30649125576019287
1776444531981159000,15.836158935546875,1.8482615947723389,-0.24402686953544617,-0.2653978765010834
1776444532006177000,15.861177001953125,1.9397857189178467,-0.3680223226547241,-0.13470086455345154
1776444532031195000,15.88619482421875,1.9060935974121094,-0.4084336459636688,-0.16534759104251862
1776444532056213000,15.911212890625,2.214855432510376,-0.4708493649959564,-0.038610950112342834
1776444532081230800,15.93623095703125,2.3556251525878906,-0.6258181929588318,-0.015821613371372223
1776444532106249000,15.9612490234375,2.26420259475708,-0.508941650390625,-0.11456330865621567
1776444532131267000,15.98626708984375,2.226686477661133,-0.24835290014743805,-0.1813453882932663
1776444532156281000,16.011281005859374,2.053584098815918,-0.12329964339733124,-0.11286912858486176
1776444532181300000,16.036300048828124,1.5723193883895874,-0.02577948197722435,-0.0058336942456662655
1776444532206317800,16.06131787109375,1.1776822805404663,-0.03768301010131836,0.08528463542461395
1776444532231336000,16.0863359375,1.243523359298706,-0.024774137884378433,0.23318427801132202
1776444532256353800,16.111353759765624,0.9881219267845154,-0.05459728091955185,0.2531408667564392
1776444532281372000,16.136371826171874,1.0860044956207275,-0.10818567872047424,0.318010151386261
1776444532306389800,16.1613896484375,1.2695482969284058,-0.38635125756263733,0.42041635513305664
1776444532331408000,16.186407958984375,1.5475926399230957,-0.353985071182251,0.5309941172599792
1776444532356426000,16.211426025390626,1.4864505529403687,-0.420005738735199,0.49770981073379517
1776444532381444000,16.236444091796876,1.1264678239822388,-0.719954252243042,0.05046454071998596
1776444532406462000,16.2614619140625,0.3294660747051239,0.5398058891296387,-0.12451400607824326
1776444532431480800,16.286480712890626,0.39933428168296814,0.12036441266536713,-0.3573751449584961
1776444532456499000,16.3114990234375,0.3020731210708618,0.11901338398456573,-0.26114708185195923
1776444532481516800,16.336516845703127,0.4623008668422699,-0.10455285757780075,-0.1946490854024887
1776444532506535000,16.361534912109374,0.5112857222557068,0.00482303649187088,-0.16645023226737976
1776444532531552800,16.386552734375,0.6300747990608215,-0.11295339465141296,-0.1354447901248932
1776444532556571000,16.41157080078125,0.5603422522544861,-0.06741427630186081,-0.03503818064928055
1776444532581589000,16.436589111328125,0.6826557517051697,-0.08664096891880035,0.12026871740818024
1776444532606606800,16.46160693359375,0.7137157320976257,0.12412307411432266,0.3038921654224396
1776444532631625000,16.486625,0.9616634249687195,0.37656158208847046,0.49935171008110046
1776444532656642800,16.511642822265625,1.2840266227722168,0.6444455981254578,0.5514077544212341
1776444532681661000,16.536660888671875,1.679229736328125,0.8874933123588562,0.6041464805603027
1776444532706679800,16.5616796875,1.7059402465820312,1.1624279022216797,0.6604896187782288
1776444532731698000,16.586697998046876,1.6384183168411255,1.2173798084259033,0.6111090183258057
1776444532756715800,16.6117158203125,2.1376047134399414,0.8094947934150696,0.2740985155105591
1776444532781734000,16.63673388671875,1.9666991233825684,0.7988327741622925,0.13263633847236633
1776444532806752000,16.661751953125,1.8956652879714966,0.3962572515010834,-0.0683908760547638
1776444532831769900,16.686769775390626,1.7464864253997803,0.281892865896225,-0.15547464787960052
1776444532856788000,16.7117880859375,1.755936622619629,0.1069113239645958,-0.2520885765552521
1776444532881805800,16.736805908203124,1.6519014835357666,-0.03694358468055725,-0.1542859673500061
1776444532906824000,16.761823974609374,1.5283490419387817,0.05277005210518837,-0.022884011268615723
1776444532931841800,16.786841796875,1.4492310285568237,-0.02683049440383911,-0.10196757316589355
1776444532956860000,16.81185986328125,1.2254281044006348,-0.03423408418893814,-0.22870221734046936
1776444532981877800,16.836877685546874,1.1309475898742676,0.00006183609366416931,-0.37352466583251953
1776444533006897000,16.86189697265625,1.12283194065094,-0.04315127059817314,-0.3896162211894989
1776444533031915000,16.8869150390625,1.1140440702438354,-0.05748361349105835,-0.39458316564559937
1776444533056932900,16.911932861328125,0.9325100779533386,-0.06470304727554321,-0.36557310819625854
1776444533081951000,16.936950927734376,0.8557335734367371,-0.1134595274925232,-0.38067546486854553
1776444533106968800,16.96196875,0.6315207481384277,-0.23727667331695557,-0.39896515011787415
1776444533131987000,16.986987060546873,0.3995777368545532,-0.4109821617603302,-0.3951142728328705
1776444533157009200,17.012009033203125,0.3265494704246521,-0.4920637011528015,-0.37439289689064026
1776444533182027000,17.037027099609375,0.3005343973636627,-0.38949310779571533,-0.2365429550409317
1776444533207045000,17.062045166015626,0.5177379250526428,-0.2734999358654022,-0.054421961307525635
1776444533232063000,17.08706298828125,0.7865453362464905,-0.2936103940010071,0.045708198100328445
1776444533257081000,17.1120810546875,0.9099531173706055,-0.28124427795410156,0.1510029286146164
1776444533282099000,17.137098876953125,1.0547618865966797,-0.1733396351337433,0.3337932527065277
1776444533307117000,17.162116943359376,1.2416090965270996,0.027716102078557014,0.4026010036468506
1776444533332136000,17.187135986328126,1.4480922222137451,0.21841920912265778,0.37422698736190796
1776444533357153800,17.21215380859375,1.9182018041610718,0.34854817390441895,0.27709078788757324
1776444533382172200,17.237172119140624,2.3394157886505127,0.3679488003253937,0.20493663847446442
1776444533407190000,17.26218994140625,2.5929925441741943,0.39699918031692505,0.16590459644794464
1776444533432208100,17.2872080078125,2.8462095260620117,0.33180633187294006,0.044980961829423904
1776444533457226000,17.31222607421875,3.200381278991699,0.3258468806743622,-0.059533100575208664
1776444533482244000,17.337244140625,3.4011921882629395,0.393486887216568,-0.10430144518613815
1776444533507262000,17.362261962890624,3.2918496131896973,0.5477598309516907,-0.0692986398935318
1776444533532280000,17.387280029296875,3.1492180824279785,0.4473012685775757,0.002114054746925831
1776444533557298000,17.4122978515625,2.9144835472106934,0.19304154813289642,0.019434789195656776
1776444533582316000,17.43731591796875,2.6822006702423096,0.0056654103100299835,0.020535247400403023
1776444533607334000,17.462333984375,2.4681742191314697,-0.16629943251609802,0.09217933565378189
1776444533632352000,17.48735205078125,2.352163791656494,-0.39574047923088074,0.1584167778491974
1776444533657370000,17.5123701171875,2.335989236831665,-0.5948290824890137,0.1783251017332077
1776444533682389000,17.537388916015626,2.2427377700805664,-0.6566528677940369,0.2146824300289154
1776444533707407000,17.562406982421876,2.27101731300354,-0.7283896803855896,0.2964562475681305
1776444533732425000,17.587425048828123,2.264842987060547,-0.8036702275276184,0.41579705476760864
1776444533757443000,17.612443115234374,1.95053231716156,-0.8010440468788147,0.5651258230209351
1776444533782461000,17.6374609375,1.5193452835083008,-0.7421818971633911,0.7124857306480408
1776444533807478800,17.662478759765627,0.8991629481315613,-0.42327049374580383,0.658993661403656
1776444533832497200,17.6874970703125,0.514617383480072,-0.09082064777612686,0.5595468878746033
1776444533857515000,17.712514892578124,0.4945753514766693,0.03284895420074463,0.579084575176239
1776444533882533000,17.737533203125,0.7535068988800049,0.07746116071939468,0.5576736330986023
1776444533907551000,17.762551025390625,0.9172387719154358,0.16634775698184967,0.36620450019836426
1776444533932569000,17.787569091796875,0.6430508494377136,0.47573330998420715,0.12125026434659958
1776444533957587000,17.8125869140625,0.6638151407241821,0.5731034278869629,-0.06866976618766785
1776444533982605000,17.83760498046875,1.1193090677261353,0.5805603861808777,-0.23653310537338257
1776444534007623000,17.862622802734375,1.4713129997253418,0.5957258939743042,-0.3016482889652252
1776444534032641000,17.88764111328125,1.683160662651062,0.6378612518310547,-0.31583836674690247
1776444534057659000,17.912658935546876,1.976075530052185,0.5707152485847473,-0.3496609032154083
1776444534082678000,17.937677978515627,2.303299903869629,0.4662702977657318,-0.39621588587760925
1776444534107696000,17.962696044921874,2.2663073539733887,0.6108180284500122,-0.42176809906959534
1776444534132714000,17.9877138671875,2.371206760406494,0.5936682224273682,-0.36171218752861023
1776444534157728300,18.012728271484374,2.4592068195343018,0.6472762823104858,-0.3394056260585785
1776444534182746000,18.03774609375,2.5751140117645264,0.49497556686401367,-0.32022544741630554
1776444534207764200,18.06276416015625,2.7094547748565674,0.31023621559143066,-0.2482047975063324
1776444534232782000,18.087781982421873,2.86710524559021,0.12817946076393127,-0.14706504344940186
1776444534257800200,18.11280029296875,2.875884771347046,0.04616236686706543,-0.031301483511924744
1776444534282818300,18.137818359375,2.8104703426361084,-0.17291058599948883,0.14015436172485352
1776444534307836400,18.16283642578125,1.334028959274292,-0.2529015839099884,0.305153489112854
1776444534332854300,18.187854248046875,1.0744304656982422,-0.20502617955207825,0.26608845591545105
1776444534357872000,18.2128720703125,0.8984494805335999,0.061265937983989716,-0.07191629707813263
1776444534382890200,18.23789013671875,0.7889477610588074,0.37448084354400635,-0.18496201932430267
1776444534407908000,18.262908203125,0.7055407762527466,0.4162648022174835,-0.3449884355068207
1776444534432926200,18.28792626953125,0.5944851040840149,0.44148585200309753,-0.4069751501083374
1776444534457944000,18.312944091796876,0.6575279235839844,0.5704628825187683,-0.18228833377361298
1776444534482962200,18.337962158203126,0.7085216045379639,0.7703654170036316,0.08197829127311707
1776444534507980000,18.36297998046875,0.8375403881072998,0.848121702671051,0.18822826445102692
1776444534532998400,18.387998291015624,0.7879850268363953,1.0389189720153809,0.22145770490169525
1776444534558016300,18.413016357421874,0.7840575575828552,1.2270301580429077,-0.023758480325341225
1776444534583035100,18.43803515625,1.0076782703399658,1.3527644872665405,-0.19168762862682343
1776444534608053200,18.46305322265625,1.4108294248580933,1.4002126455307007,-0.41626325249671936
1776444534633071000,18.488071044921874,1.4746618270874023,0.9852259755134583,-0.46134379506111145
1776444534658089200,18.513089111328124,1.5125696659088135,0.6060605645179749,-0.3346603512763977
1776444534683107000,18.538107177734375,1.6115326881408691,0.3347008228302002,-0.23503874242305756
1776444534708125200,18.563125244140625,1.7655516862869263,0.16900120675563812,-0.16214439272880554
1776444534733143300,18.588143310546876,1.759864330291748,-0.14240406453609467,-0.1662084311246872
1776444534758161400,18.613161376953126,1.5848140716552734,-0.33277973532676697,-0.09922324866056442
1776444534783179300,18.63817919921875,1.4866453409194946,-0.4060555696487427,-0.00796450488269329
1776444534808197400,18.663197265625,1.3747297525405884,-0.3732583522796631,0.0442400760948658
1776444534833215200,18.68821533203125,1.1595185995101929,-0.37979188561439514,0.02358093671500683
1776444534858233000,18.713233154296876,0.9709481000900269,-0.388092041015625,-0.021023519337177277
1776444534883251200,18.738251220703123,0.8219285011291504,-0.40187105536460876,-0.058157727122306824
1776444534908269000,18.76326904296875,0.7340309023857117,-0.43100738525390625,-0.06992857903242111
1776444534933287200,18.788287109375,0.6722673177719116,-0.4994639456272125,-0.07558766007423401
1776444534958305000,18.813304931640626,0.5284155011177063,-0.345102995634079,-0.06857632100582123
1776444534983323100,18.8383232421875,0.8457188606262207,-0.0021259356290102005,-0.037174057215452194
1776444535008341200,18.86334130859375,1.0092201232910156,0.09133956581354141,-0.0787956714630127
1776444535033359400,18.888359375,1.5374608039855957,0.29959583282470703,0.110319122672081
1776444535058377200,18.913377197265625,2.0614845752716064,0.10497789084911346,0.14305956661701202
1776444535083395300,18.938395263671875,2.572514772415161,-0.2408900260925293,0.022062841802835464
1776444535108413200,18.9634130859375,2.892500638961792,-0.4687887132167816,0.04000888019800186
1776444535133431300,18.988431396484376,3.049957513809204,-0.39879110455513,0.14956523478031158
1776444535158449200,19.01344921875,2.8443710803985596,-0.22137132287025452,0.18819984793663025
1776444535183467300,19.03846728515625,2.7204644680023193,-0.04688755422830582,0.2609010636806488
1776444535208485400,19.0634853515625,2.7358999252319336,0.0728263407945633,0.30524736642837524
1776444535233503200,19.088503173828126,2.771409034729004,0.10326095670461655,0.36866840720176697
1776444535258521300,19.113521240234373,2.5068750381469727,0.2058887928724289,0.3512740135192871
1776444535283539200,19.138539306640624,2.3634893894195557,0.36557644605636597,0.3438437283039093
1776444535308557300,19.163557373046874,2.229721784591675,0.45980948209762573,0.3464096784591675
1776444535333575200,19.1885751953125,2.1483652591705322,0.42626842856407166,0.41661933064460754
1776444535358594300,19.21359423828125,2.058342456817627,0.3087617754936218,0.44922804832458496
1776444535383612200,19.238612060546874,1.9884674549102783,0.26634854078292847,0.35607293248176575
1776444535408630300,19.26363037109375,1.7854336500167847,0.31510648131370544,0.2844970226287842
1776444535433648400,19.2886484375,1.6352843046188354,0.2058689445257187,0.06048782169818878
1776444535458666200,19.313666259765625,1.5969566106796265,0.05010146275162697,-0.1875937432050705
1776444535483684400,19.338684326171876,1.683990240097046,-0.2553151845932007,-0.4711546301841736
1776444535508702200,19.3637021484375,1.6907320022583008,-0.4448825716972351,-0.6206421256065369
1776444535533720300,19.38872021484375,1.8318120241165161,-0.5888029932975769,-0.8052828907966614
1776444535558738200,19.41373828125,2.0208957195281982,-0.5813487768173218,-0.9724976420402527
1776444535583756300,19.43875634765625,2.0783426761627197,-0.5502573251724243,-0.99526047706604
1776444535608774100,19.463774169921876,2.1138527393341064,-0.4410637319087982,-0.905457615852356
1776444535633792300,19.488792236328123,2.0938165187835693,-0.4186488389968872,-0.8198761343955994
1776444535658810400,19.513810302734374,1.7850664854049683,-0.25799593329429626,-0.6451122164726257
1776444535683828500,19.538828369140624,1.4718282222747803,0.051402680575847626,-0.2710263133049011
1776444535708846300,19.563846435546875,1.1220388412475586,0.22904950380325317,-0.34514376521110535
1776444535733864200,19.5888642578125,1.1356430053710938,0.1528395563364029,-0.3484952747821808
1776444535758882300,19.61388232421875,1.0356006622314453,0.166504368185997,-0.2321566492319107
1776444535783900200,19.638900146484374,0.8503627181053162,0.13852107524871826,-0.04163873940706253
1776444535808918300,19.663918212890625,0.8276126384735107,0.23870894312858582,0.17726071178913116
1776444535833936100,19.68893603515625,1.0685911178588867,0.260409414768219,0.3476666510105133
1776444535858954200,19.713954345703126,0.9919039607048035,0.10690800845623016,0.28282248973846436
1776444535883972000,19.73897216796875,0.8123108744621277,-0.1221294030547142,0.18051305413246155
1776444535908990200,19.763990234375,0.5246286988258362,-0.12468952685594559,-0.12044834345579147
1776444535934008300,19.78900830078125,0.31837156414985657,0.09025034308433533,-0.3184646964073181
1776444535959026400,19.8140263671875,0.36851614713668823,0.10808034241199493,-0.3800213932991028
1776444535984044300,19.839044189453126,0.5793354511260986,0.15770728886127472,-0.28722861409187317
1776444536009062400,19.8640625,0.7211769819259644,0.0636025220155716,-0.23717623949050903
1776444536034080300,19.889080322265624,0.8099278807640076,-0.07144813239574432,-0.23265942931175232
1776444536059098400,19.914098388671874,1.0346291065216064,-0.09309390187263489,-0.24736930429935455
1776444536084116200,19.9391162109375,1.2115187644958496,-0.09430485218763351,-0.2435530573129654
1776444536109134000,19.964134033203123,1.3069149255752563,-0.07496030628681183,-0.24445702135562897
1776444536134152200,19.989152099609374,1.474688172340393,0.10005930811166763,-0.2617751955986023
1776444536159170300,20.01417041015625,1.5630627870559692,0.21977493166923523,-0.289563924074173
1776444536184188400,20.0391884765625,1.6101588010787964,0.20493072271347046,-0.2667884826660156
1776444536209206300,20.064206298828125,1.6895294189453125,0.12439022213220596,-0.20223616063594818
1776444536234224400,20.089224365234376,1.7341488599777222,-0.03451380133628845,-0.13673701882362366
1776444536259242200,20.1142421875,1.7746543884277344,-0.14587828516960144,-0.039280474185943604
1776444536284260400,20.13926025390625,1.810650110244751,-0.12222860753536224,-0.010586243122816086
1776444536309278200,20.1642783203125,1.861443281173706,0.05922625586390495,0.006886985618621111
1776444536334296300,20.18929638671875,1.8497121334075928,0.12264104932546616,0.026674771681427956
1776444536359314400,20.214314453125,1.7878451347351074,0.15163502097129822,0.19574879109859467
1776444536384332500,20.23933251953125,1.4439387321472168,-0.06901705265045166,0.3868809640407562
1776444536409350400,20.264350341796874,1.1865488290786743,0.06441077589988708,0.36684274673461914
1776444536434368300,20.2893681640625,0.874819815158844,0.31173548102378845,0.26759475469589233
1776444536459386400,20.314386474609375,0.8514428734779358,0.15562550723552704,0.20187518000602722
1776444536484404200,20.339404296875,1.0328480005264282,-0.1769493967294693,0.4011261463165283
1776444536509422300,20.36442236328125,0.9460473656654358,-0.6275030970573425,0.46161913871765137
1776444536534440200,20.389440185546874,0.945925235748291,-0.5969213843345642,0.37090978026390076
1776444536559458300,20.414458251953125,1.098047137260437,-0.43528464436531067,0.287479043006897
1776444536584476200,20.43947607421875,1.5272754430770874,-0.40417081117630005,0.39344027638435364
1776444536609494500,20.46449462890625,1.9515804052352905,-0.10494294762611389,0.5777267217636108
1776444536634512400,20.489512451171876,2.208325147628784,0.3019739091396332,0.6779390573501587
1776444536659530500,20.514530517578127,2.6639907360076904,0.5263141989707947,0.5581098198890686
1776444536684548400,20.53954833984375,2.9757232666015625,0.7162450551986694,0.2185245007276535
1776444536709566500,20.56456640625,3.0652801990509033,0.7242661118507385,-0.004964273888617754
1776444536734584300,20.589584228515626,2.9018285274505615,0.8798692226409912,-0.04514671862125397
1776444536759602400,20.6146025390625,2.845313549041748,0.7733684778213501,-0.06218073144555092
1776444536784620300,20.639620361328124,2.928767204284668,0.520220160484314,-0.1415698230266571
1776444536809638100,20.66463818359375,2.7519001960754395,0.49863696098327637,-0.18757742643356323
1776444536834656300,20.68965625,2.3826558589935303,0.5232123136520386,-0.2625404894351959
1776444536859674400,20.71467431640625,1.9572702646255493,0.5561179518699646,-0.2837862968444824
1776444536884692500,20.7396923828125,1.644826054573059,0.5119473934173584,-0.28017348051071167
1776444536909710300,20.76471044921875,1.4569926261901855,0.4094749391078949,-0.3066432476043701
1776444536934728400,20.789728515625,1.1890435218811035,0.3775525987148285,-0.31345683336257935
1776444536959746300,20.814746337890625,1.0157418251037598,0.3689311444759369,-0.3398054540157318
1776444536984764400,20.839764404296876,0.8365155458450317,0.3837011754512787,-0.26555848121643066
1776444537009782300,20.8647822265625,0.808664858341217,0.17780806124210358,-0.3142164647579193
1776444537034800400,20.88980029296875,0.7037398815155029,0.017249271273612976,-0.2819691002368927
1776444537059818200,20.914818359375,0.714442789554596,-0.1330767273902893,-0.2479257583618164
1776444537084836400,20.93983642578125,0.7482147216796875,0.0659029483795166,-0.13217571377754211
1776444537109854500,20.9648544921875,0.9182747006416321,0.18382628262043,0.01690281182527542
1776444537134872300,20.989872314453127,1.245694875717163,0.3300400674343109,0.08304823935031891
1776444537159890700,21.014890625,1.600685715675354,0.4060359001159668,0.1138228327035904
1776444537184908500,21.039908447265624,1.923424482345581,0.45190325379371643,0.15621782839298248
1776444537209926700,21.0649267578125,2.0452773571014404,0.43516528606414795,0.20383255183696747
1776444537234944500,21.089944580078125,2.210341215133667,0.3536986708641052,0.21479426324367523
1776444537259962600,21.114962646484376,2.2087535858154297,0.24967944622039795,0.1534704864025116
1776444537284980500,21.13998046875,2.0098254680633545,0.2359222173690796,0.11414380371570587
1776444537309997600,21.16499755859375,1.7335304021835327,0.24628324806690216,0.10900397598743439
1776444537335015400,21.190015380859375,1.5287716388702393,0.12504591047763824,0.0884273573756218
1776444537360033800,21.21503369140625,1.4417065382003784,-0.030018998309969902,0.05642589181661606
1776444537385051600,21.2400517578125,1.2865263223648071,-0.1634492576122284,0.019917743280529976
1776444537410069800,21.26506982421875,1.3172940015792847,-0.2873368263244629,0.007256076671183109
1776444537435087600,21.290087646484373,1.4661405086517334,-0.45512959361076355,0.03251948952674866
1776444537460105700,21.315105712890624,1.4491021633148193,-0.4687664210796356,0.017770536243915558
1776444537485123600,21.34012353515625,1.4149008989334106,-0.4812179207801819,0.0064366888254880905
1776444537510141700,21.3651416015625,1.31783926486969,-0.4509393572807312,-0.07971596717834473
1776444537535159600,21.39015966796875,1.2058353424072266,-0.5142956972122192,-0.19024401903152466
1776444537560177700,21.415177734375,0.9725457429885864,-0.5201282501220703,-0.2539445757865906
1776444537585195500,21.440195556640624,0.8431515097618103,-0.6006015539169312,-0.21611861884593964
1776444537610213600,21.465213623046875,0.7428589463233948,-0.5238680243492126,-0.29952552914619446
1776444537635231700,21.490231689453125,0.8016287684440613,-0.4823911786079407,-0.36382433772087097
1776444537660249600,21.51524951171875,0.7417311072349548,-0.24643521010875702,-0.3785645365715027
1776444537685267700,21.540267822265626,0.8747171759605408,-0.14267568290233612,-0.35853391885757446
1776444537710285600,21.56528564453125,1.0302225351333618,0.05704569071531296,-0.4318901598453522
1776444537735303700,21.5903037109375,1.320176124572754,0.1498856246471405,-0.39373084902763367
1776444537760321500,21.615321533203126,1.6147252321243286,0.1423947960138321,-0.27527403831481934
1776444537785339600,21.640339599609376,1.955081582069397,0.15266290307044983,-0.19656622409820557
1776444537810357500,21.665357421875,2.159001350402832,0.048019714653491974,-0.131500244140625
1776444537835375600,21.690375732421874,1.746151089668274,-0.12181101739406586,-0.03259773179888725
1776444537860393500,21.7153935546875,1.0757778882980347,-0.2785767614841461,0.1105271726846695
1776444537885411800,21.740411865234375,0.8543447852134705,-0.1413508802652359,0.09229128062725067
1776444537910429700,21.7654296875,1.0119273662567139,-0.1554698944091797,0.16857846081256866
1776444537935447800,21.79044775390625,1.0768922567367554,0.09067877382040024,0.11677295714616776
1776444537960465700,21.815465576171874,0.9008037447929382,0.3493615984916687,-0.016927290707826614
1776444537985483500,21.8404833984375,0.8672098517417908,0.6977364420890808,-0.0687553659081459
1776444538010501600,21.865501708984375,1.0882757902145386,0.7442223429679871,0.03147666156291962
1776444538035519500,21.89051953125,1.6378024816513062,0.6426019668579102,0.170011505484581
1776444538060536600,21.91553662109375,2.2041280269622803,0.501994252204895,0.16421447694301605
1776444538085554700,21.9405546875,2.4771456718444824,0.49608314037323,-0.0031129366252571344
1776444538110572500,21.965572509765625,2.4385414123535156,0.6769596934318542,-0.16327011585235596
1776444538135590700,21.990590576171876,2.2867958545684814,0.8775694966316223,-0.2576301097869873
1776444538160607700,22.015607666015626,2.3717291355133057,0.8947932124137878,-0.30331116914749146
1776444538185625900,22.0406259765625,2.7215025424957275,0.6321526169776917,-0.3327677845954895
1776444538210643700,22.065643798828123,2.75018572807312,0.4446067810058594,-0.2848488390445709
1776444538235661800,22.090661865234374,2.619788408279419,0.3282758593559265,-0.17363443970680237
1776444538260680000,22.115679931640624,2.414625644683838,0.3265002369880676,-0.25647029280662537
1776444538285698000,22.140697998046875,2.1159627437591553,0.42761898040771484,-0.3608103096485138
1776444538310716000,22.1657158203125,1.9964627027511597,0.42732298374176025,-0.3880004584789276
1776444538335734000,22.190734130859376,2.0157010555267334,0.32345807552337646,-0.5274646282196045
1776444538360751900,22.215751953125,1.9471906423568726,0.15358597040176392,-0.5617168545722961
1776444538385769700,22.240769775390625,1.8920570611953735,0.09825479239225388,-0.5500558614730835
1776444538410787800,22.265787841796875,1.8550690412521362,0.10361550748348236,-0.5205872058868408
1776444538435805700,22.2908056640625,2.0012130737304688,0.1428927332162857,-0.5404722094535828
1776444538460823800,22.31582373046875,2.109485149383545,0.31590232253074646,-0.5316538214683533
1776444538485841700,22.340841552734375,2.5805435180664062,0.6178030967712402,-0.4817288815975189
1776444538510859800,22.36585986328125,2.568147659301758,0.594781756401062,-0.48832663893699646
1776444538535878000,22.3908779296875,2.4840586185455322,0.5531879663467407,-0.2216123789548874
1776444538560894700,22.415894775390626,2.520237445831299,0.5148711800575256,-0.12075188010931015
1776444538585912800,22.440912841796877,2.312849760055542,0.3609217405319214,0.13290958106517792
1776444538610931000,22.465930908203124,2.0367462635040283,0.2441377341747284,0.2711660861968994
1776444538635948800,22.49094873046875,1.7953071594238281,0.2186954915523529,0.4921723008155823
1776444538660967000,22.515966796875,1.699430227279663,0.117561936378479,0.5257183909416199
1776444538685984800,22.54098486328125,1.5883736610412598,0.024474579840898514,0.5363258719444275
1776444538711003000,22.5660029296875,1.3051886558532715,-0.10219376534223557,0.5544084906578064
1776444538736020700,22.591020751953124,1.0397976636886597,-0.1812380850315094,0.5482061505317688
1776444538761038800,22.616038818359375,0.9722350835800171,-0.2175552099943161,0.4359784424304962
1776444538786056700,22.641056640625,0.9768796563148499,-0.28114086389541626,0.3563132584095001
1776444538811074800,22.66607470703125,0.9757552742958069,-0.2844977378845215,0.30957409739494324
1776444538836093000,22.691093017578126,1.0218801498413086,0.47941336035728455,0.29462727904319763
1776444538861111000,22.716111083984377,1.134631872177124,1.004221796989441,-0.14093738794326782
1776444538886129000,22.74112890625,1.0947833061218262,1.2950688600540161,-0.48713457584381104
1776444538911146800,22.766146728515626,1.257153034210205,0.3065823018550873,-0.43963822722435
1776444538936164900,22.791164794921876,1.0070710182189941,-0.5721186995506287,-0.4124721586704254
1776444538961182700,22.8161826171875,0.5708216428756714,-1.0671361684799194,-0.3567614257335663
1776444538986199800,22.84119970703125,0.37152573466300964,-0.7629278898239136,-0.22714802622795105
1776444539011218000,22.866218017578124,0.5484331250190735,-0.39647528529167175,-0.019063135609030724
1776444539036235800,22.89123583984375,0.6767160892486572,-0.2731629014015198,0.15523003041744232
1776444539061254000,22.91625390625,0.7261632680892944,-0.16180537641048431,0.16773293912410736
1776444539086271700,22.941271728515623,0.8594062924385071,-0.05682877451181412,0.3262246251106262
1776444539111289900,22.966289794921874,0.9677857756614685,-0.2997451424598694,0.2170628160238266
1776444539136308000,22.991307861328124,1.0329855680465698,-0.6785871386528015,0.10989890992641449
1776444539161326300,23.016326416015627,0.8967256546020508,-0.7856023907661438,0.013981398195028305
1776444539186344400,23.041344482421874,0.7768231630325317,-0.7091056108474731,0.009892746806144714
1776444539211362300,23.0663623046875,0.7566537857055664,-0.6110621690750122,0.05596044287085533
1776444539236380400,23.09138037109375,0.7061318159103394,-0.4484797716140747,0.07469547539949417
1776444539261398300,23.116398193359377,0.5644164085388184,-0.28855109214782715,0.06669148057699203
1776444539286416400,23.14141650390625,0.22113431990146637,0.15619760751724243,0.02635703794658184
1776444539311433200,23.16643310546875,0.012141061946749687,0.4737390875816345,0.00526933278888464
1776444539336451300,23.191451416015624,-0.18713316321372986,0.4527597725391388,-0.005039231386035681
1776444539361469200,23.21646923828125,-0.1522786021232605,0.4144575297832489,0.08847357332706451
1776444539386487600,23.241487548828125,-0.08216505497694016,0.27733272314071655,0.11710183322429657
1776444539411505400,23.26650537109375,0.2951296269893646,0.14413216710090637,0.02612028643488884
1776444539436523500,23.2915234375,0.9766713380813599,0.3015228807926178,-0.07522191107273102
1776444539461541400,23.316541259765625,1.690368413925171,0.37523677945137024,-0.16004279255867004
1776444539486559500,23.3415595703125,2.3306655883789062,0.2606581151485443,-0.3296492397785187
1776444539511577300,23.366577392578126,2.6882801055908203,0.22275932133197784,-0.390728622674942
1776444539536595500,23.391595458984376,2.787064790725708,0.11918234080076218,-0.3525000512599945
1776444539561613300,23.41661328125,2.821742296218872,0.022281628102064133,-0.29871124029159546
1776444539586631400,23.44163134765625,2.785943031311035,-0.0406084805727005,-0.20861315727233887
1776444539611649300,23.466649169921876,2.4983596801757812,-0.13661092519760132,-0.13194634020328522
1776444539636666400,23.491666259765626,2.3291149139404297,-0.1842101663351059,-0.08037470281124115
1776444539661684200,23.516684326171877,2.3913185596466064,-0.22289110720157623,-0.13091526925563812
1776444539686702600,23.54170263671875,2.4532909393310547,-0.24471259117126465,-0.18271711468696594
1776444539711720400,23.566720458984374,2.3272533416748047,-0.18893350660800934,-0.20131775736808777
1776444539736738600,23.591738525390625,2.2434139251708984,-0.1764635294675827,-0.22495877742767334
1776444539761756400,23.61675634765625,2.3348441123962402,-0.13758909702301025,-0.23908524215221405
1776444539786774300,23.641774169921874,2.386868715286255,-0.16298368573188782,-0.28470325469970703
1776444539811792400,23.66679248046875,2.2744860649108887,-0.15050555765628815,-0.27056044340133667
1776444539836810200,23.691810302734375,1.3113164901733398,-0.1947200447320938,-0.3261376619338989
1776444539861828400,23.716828369140625,0.7219868898391724,-0.20286798477172852,-0.43710601329803467
1776444539886846200,23.74184619140625,0.7895436882972717,0.15337657928466797,-0.5775642991065979
1776444539911864300,23.7668642578125,1.1207267045974731,0.07924456149339676,-0.8039262294769287
1776444539936882400,23.79188232421875,1.370068907737732,0.1627197414636612,-0.8976418972015381
1776444539961899300,23.816899169921875,1.3308465480804443,0.11610056459903717,-0.9467153549194336
1776444539986917400,23.84191748046875,1.1884487867355347,0.041668426245450974,-0.9601454138755798
1776444540011935500,23.866935546875,1.3846992254257202,0.024044618010520935,-0.9020511507987976
1776444540036953300,23.891953369140627,1.519769310951233,-0.009025647304952145,-0.776426374912262
1776444540061971500,23.916971435546873,1.6165308952331543,-0.05554932355880737,-0.6941024661064148
1776444540086989300,23.9419892578125,1.633939266204834,0.0020044753327965736,-0.5942663550376892
1776444540112007400,23.96700732421875,1.4896975755691528,0.06790469586849213,-0.3331323266029358
1776444540137025300,23.992025390625,1.2780590057373047,0.186209574341774,0.07894368469715118
1776444540162047200,24.017047119140624,1.4321719408035278,0.16051840782165527,0.4263104498386383
1776444540187065000,24.042065185546875,1.5162110328674316,0.08912265300750732,0.6230862736701965
1776444540212083200,24.067083251953125,1.5529797077178955,0.0011518988758325577,0.6537706255912781
1776444540237100000,24.09210009765625,1.5725432634353638,0.006874383427202702,0.8520302176475525
1776444540262118100,24.1171181640625,1.5209025144577026,0.09671840816736221,1.05576491355896
1776444540287136000,24.142135986328125,1.3922117948532104,0.04866999015212059,1.05961012840271
1776444540312154000,24.167154052734375,1.40323805809021,0.033159349113702774,1.0533664226531982
1776444540337172000,24.192171875,1.3575241565704346,0.07508952915668488,1.1067838668823242
1776444540362190000,24.217190185546876,1.500986099243164,0.0429169163107872,1.204783320426941
1776444540387208000,24.2422080078125,1.5509370565414429,-0.14022520184516907,1.225395679473877
1776444540412226300,24.267226318359373,1.6911377906799316,-0.23341014981269836,1.1957422494888306
1776444540437244200,24.292244140625,1.7464540004730225,-0.1516416221857071,1.3429800271987915
1776444540462262300,24.31726220703125,1.5303499698638916,0.21266411244869232,1.4011880159378052
1776444540487279000,24.342279052734376,1.2611147165298462,0.4578707218170166,1.351352572441101
1776444540512297200,24.367297119140623,0.8448129892349243,0.33013686537742615,1.210688591003418
1776444540537315000,24.392315185546874,0.4359155297279358,0.30352652072906494,1.0734715461730957
1776444540562333200,24.417333251953124,0.5435582995414734,-0.05652697756886482,0.9171215891838074
1776444540587351000,24.44235107421875,0.9448825716972351,-0.45138081908226013,0.9625779986381531
1776444540612369200,24.467369140625,1.032861590385437,-0.5855429768562317,1.146652340888977
1776444540637387000,24.492386962890624,1.247783899307251,-0.6380491256713867,1.2621986865997314
1776444540662405000,24.517405029296874,1.2994576692581177,-0.7034123539924622,1.134339451789856
1776444540687423000,24.542423095703125,1.3365192413330078,-0.8607161045074463,0.8675023317337036
1776444540712441000,24.567441162109375,1.2460429668426514,-1.0480877161026,0.8068799376487732
1776444540737458000,24.5924580078125,1.477189302444458,-1.062422275543213,0.635012149810791
1776444540762476300,24.617476318359376,1.600400447845459,-1.1238232851028442,0.6535120606422424
1776444540787494100,24.642494140625,1.6727383136749268,-1.3022133111953735,0.6720271706581116
1776444540812512300,24.66751220703125,1.5263835191726685,-1.5232043266296387,0.6987097859382629
1776444540837530000,24.692530029296876,1.1967605352401733,-1.824979305267334,0.7094710469245911
1776444540862548200,24.71754833984375,1.14801025390625,-2.2380101680755615,0.7122567892074585
1776444540887566000,24.742566162109377,1.3070013523101807,-2.4332823753356934,0.7784566879272461
1776444540912584200,24.767584228515624,1.2642070055007935,-1.7386460304260254,0.9161072373390198
1776444540937601000,24.79260107421875,1.4265080690383911,-2.419464111328125,1.0739209651947021
1776444540962619100,24.817619140625,1.5035275220870972,-2.352339744567871,1.1067910194396973
1776444540987637000,24.842636962890627,1.7829933166503906,-2.3285913467407227,1.0368094444274902
1776444541012655000,24.867655029296873,1.6609984636306763,-2.027801990509033,1.3435001373291016
1776444541037673000,24.8926728515625,1.5498214960098267,-2.1032910346984863,1.4377907514572144
1776444541062691000,24.917691162109374,1.2286674976348877,-1.7186589241027832,1.4553111791610718
1776444541087709200,24.942709228515625,0.8594430088996887,-1.7065019607543945,1.2782970666885376
1776444541112727000,24.96772705078125,0.7448927164077759,-1.4381572008132935,0.9927685856819153
1776444541137745200,24.9927451171875,0.7277523875236511,-0.853783905506134,0.8900625109672546
1776444541162758400,25.01775830078125,0.8449997901916504,-0.42677611112594604,0.8151164054870605
1776444541187776300,25.0427763671875,0.6076298356056213,0.16132763028144836,0.7314633727073669
1776444541212794400,25.06779443359375,0.5626683235168457,0.48489272594451904,0.6817886233329773
1776444541237812200,25.092812255859375,0.7248362302780151,0.6690552830696106,0.6806509494781494
1776444541262830600,25.11783056640625,0.7702117562294006,0.8628733158111572,0.5480721592903137
1776444541287848400,25.142848388671876,0.5252594947814941,1.029887318611145,0.3090350329875946
1776444541312866600,25.167866455078126,0.39309588074684143,0.9604936242103577,0.14114722609519958
1776444541337884400,25.192884521484373,0.38093408942222595,0.7367393970489502,0.13397932052612305
1776444541362902500,25.217902587890624,0.3353100121021271,0.5317890644073486,0.1483031064271927
1776444541387919400,25.24291943359375,0.29484501481056213,0.337162047624588,0.15009108185768127
1776444541412937500,25.2679375,0.18734696507453918,0.15106377005577087,0.15350258350372314
1776444541437955300,25.292955322265627,0.012371527031064034,0.046684764325618744,0.19187483191490173
1776444541462973400,25.317973388671874,-0.18519233167171478,0.016089733690023422,0.2578369677066803
1776444541487991300,25.3429912109375,-0.297091007232666,-0.2255280464887619,0.33521121740341187
1776444541513009400,25.368009521484375,-0.4863932430744171,-0.3454459607601166,0.3546617329120636
1776444541538027300,25.39302734375,-0.5206382870674133,-0.1453973352909088,0.27224278450012207
1776444541563045400,25.41804541015625,-0.38081225752830505,-0.05998784676194191,0.18682502210140228
1776444541588062200,25.443062255859374,-0.35213127732276917,0.13872802257537842,0.07934819906949997
1776444541613080600,25.46808056640625,-0.5665439367294312,0.44816768169403076,0.36958765983581543
1776444541638098400,25.493098388671875,-0.4860345125198364,0.7796949744224548,0.3047398328781128
1776444541663116500,25.518116455078125,-0.4423156678676605,1.0742573738098145,0.2823870778083801
1776444541688134400,25.543134521484376,-0.33106207847595215,1.0726486444473267,0.48573851585388184
1776444541713152500,25.568152587890626,-0.21231067180633545,0.877804160118103,0.7292892336845398
1776444541738170400,25.59317041015625,-0.07622231543064117,0.40413376688957214,1.0377272367477417
1776444541763188500,25.6181884765625,0.18509307503700256,0.005811173468828201,1.1452586650848389
1776444541788206300,25.643206298828126,0.1441812366247177,-0.1743043214082718,1.4487273693084717
1776444541813223400,25.668223388671876,0.16030578315258026,-0.09046665579080582,1.6049062013626099
1776444541838241300,25.6932412109375,0.0008362475200556219,-0.04492576792836189,1.7155804634094238
1776444541863259400,25.71825927734375,-0.0038565772119909525,-0.07042276859283447,1.6820436716079712
1776444541888277200,25.74327734375,-0.043297164142131805,-0.21930886805057526,1.567849040031433
1776444541913295400,25.76829541015625,-0.18315696716308594,-0.3019028306007385,1.5775892734527588
1776444541938313500,25.7933134765625,-0.2102845013141632,-0.16066884994506836,1.7421092987060547
1776444541963331600,25.81833154296875,-0.04424329847097397,-0.0975399911403656,1.8476438522338867
1776444541988348400,25.843348388671874,0.4376833140850067,-0.0420389287173748,1.907880187034607
1776444542013366500,25.868366455078124,0.9289015531539917,-0.06370782852172852,1.8968720436096191
1776444542038384400,25.89338427734375,1.185835599899292,-0.263659805059433,1.80183744430542
1776444542063402500,25.918402587890625,0.9550890326499939,-0.40818706154823303,1.7082926034927368
1776444542088420400,25.94342041015625,1.0490379333496094,-0.4732261598110199,1.7253755331039429
1776444542113438500,25.9684384765625,1.176928162574768,-0.5126593112945557,1.8499130010604858
1776444542138456300,25.993456298828125,1.2303261756896973,-0.5993087291717529,2.03123140335083
1776444542163475000,26.018474853515624,1.3082749843597412,-0.7391211986541748,2.201394557952881
1776444542188492000,26.043491943359374,1.0094553232192993,-1.0071134567260742,2.2962379455566406
1776444542213510100,26.06851025390625,1.0619781017303467,-1.0417312383651733,2.372370481491089
1776444542238528000,26.093528076171875,1.2911525964736938,-0.8830229640007019,2.410794734954834
1776444542263546000,26.118546142578126,1.4579062461853027,-0.7790586948394775,2.3665432929992676
1776444542288564000,26.14356396484375,1.4219890832901,-0.7225916385650635,2.3650269508361816
1776444542313581800,26.168581787109375,1.1883888244628906,-0.6161221861839294,2.343388080596924
1776444542338600000,26.193599853515625,1.1407705545425415,-0.059837281703948975,2.277251720428467
1776444542363617000,26.218616943359375,1.4238438606262207,0.2201092392206192,2.221864938735962
1776444542388635000,26.243634765625,1.0510270595550537,0.40159374475479126,2.2092339992523193
1776444542413653000,26.268653076171876,0.7960463762283325,0.620755672454834,2.093258857727051
1776444542438670800,26.2936708984375,0.6846281290054321,0.944902241230011,1.966670274734497
1776444542463689000,26.31868896484375,0.5271954536437988,1.1614665985107422,1.8540480136871338
1776444542488707000,26.34370703125,0.5344191789627075,1.3202214241027832,1.7956931591033936
1776444542513725000,26.368724853515626,0.34106048941612244,1.317886471748352,1.7815238237380981
1776444542538743000,26.393742919921873,0.22037085890769958,1.2134369611740112,1.723909854888916
1776444542563760000,26.418760009765624,0.20773190259933472,1.09266197681427,1.6715409755706787
1776444542588778000,26.443778076171874,0.27899035811424255,0.9752979874610901,1.6360564231872559
1776444542613796000,26.468796142578125,0.09599631279706955,0.773830235004425,1.5867377519607544
1776444542638814000,26.49381396484375,0.5847956538200378,0.5255365967750549,1.3404216766357422
1776444542663832000,26.51883203125,0.5580189228057861,0.17899326980113983,1.1031208038330078
1776444542688850000,26.543849853515624,0.2647584080696106,0.03645412623882294,0.9452630281448364
1776444542713867800,26.56886767578125,0.3614767789840698,-0.005408077500760555,0.9890339374542236
1776444542738884900,26.593884765625,0.17844738066196442,-0.24566110968589783,1.1956279277801514
1776444542763903000,26.618903076171875,0.023375244811177254,-0.7835962772369385,1.4693984985351562
1776444542788920800,26.6439208984375,0.045925114303827286,-1.154813528060913,1.755547046661377
1776444542813939000,26.66893896484375,0.012848714366555214,-1.0996885299682617,1.8617171049118042
1776444542838957000,26.69395703125,-0.11695854365825653,-0.7356856465339661,1.856191635131836
1776444542863975200,26.71897509765625,-0.09871915727853775,-0.44800129532814026,1.84074866771698
1776444542888993000,26.743992919921876,-0.3838372230529785,-0.21789979934692383,1.9550129175186157
1776444542914010000,26.769010009765626,-0.3162190318107605,-0.20467603206634521,2.054689407348633
1776444542939028000,26.794028076171877,-0.2290700376033783,-0.19608858227729797,2.143892288208008
1776444542964046000,26.819046142578124,-0.10757916420698166,-0.039942044764757156,2.139934778213501
1776444542989064000,26.84406396484375,0.08099362999200821,0.1205734834074974,2.097698211669922
1776444543014082000,26.86908203125,0.18864451348781586,0.1434009075164795,2.0006039142608643
1776444543039100000,26.894099853515623,0.2740209102630615,0.18068818747997284,2.0633187294006348
1776444543064117000,26.919116943359374,0.30269166827201843,0.24635432660579681,2.1043429374694824
1776444543089134800,26.944134765625,0.2565653622150421,0.23225533962249756,2.044745922088623
1776444543114153000,26.969153076171875,0.28365960717201233,0.13765622675418854,1.94838285446167
1776444543139170800,26.9941708984375,0.3402550220489502,-0.005554198287427425,1.9724757671356201
1776444543164188200,27.019188232421875,0.31815531849861145,-0.1737043261528015,2.0328450202941895
1776444543189206300,27.044206298828126,0.22447997331619263,-0.3346511125564575,2.072779893875122
1776444543214224400,27.069224365234376,0.07883279770612717,-0.43847447633743286,2.0837693214416504
1776444543239241500,27.094241455078127,-0.02786147966980934,-0.4787006080150604,2.0751192569732666
1776444543264259300,27.11925927734375,-0.05705951526761055,-0.49623364210128784,1.9622259140014648
1776444543289277400,27.14427734375,0.19758038222789764,-0.4913637638092041,1.770337700843811
1776444543314295300,27.16929541015625,0.09836222976446152,-0.42242109775543213,1.5884839296340942
1776444543339313200,27.194313232421877,0.12972426414489746,-0.3105852007865906,1.3764667510986328
1776444543364331300,27.219331298828124,0.17975829541683197,-0.12468085438013077,1.1870996952056885
1776444543389348400,27.244348388671874,0.20618681609630585,0.05247129872441292,0.9806272387504578
1776444543414366200,27.2693662109375,0.15135301649570465,0.17728884518146515,0.8557711243629456
1776444543439384300,27.29438427734375,0.08279042690992355,0.19492846727371216,0.7901092767715454
1776444543464402200,27.319402099609373,0.17446349561214447,0.15500949323177338,0.6540284752845764
1776444543489420300,27.344420166015624,0.25016215443611145,0.13519857823848724,0.6508134603500366
1776444543514438100,27.369438232421874,0.2302759885787964,-0.08935248106718063,0.7596214413642883
1776444543539455200,27.394455322265625,0.22238080203533173,-0.39199137687683105,0.8053184747695923
1776444543564473000,27.41947314453125,0.17232824862003326,-0.5711129307746887,0.82952880859375
1776444543589491500,27.444491455078126,0.23899707198143005,-0.45770126581192017,0.7184768915176392
1776444543614509300,27.46950927734375,0.4458753168582916,-0.17486974596977234,0.5388903617858887
1776444543639527400,27.49452734375,0.3846393823623657,0.12526880204677582,0.26492932438850403
1776444543664545300,27.519545166015625,0.331607848405838,0.38811156153678894,0.2740211486816406
1776444543689563400,27.5445634765625,0.26518452167510986,0.4389534890651703,0.3939129412174225
1776444543714580200,27.569580322265626,0.20632204413414001,0.17781002819538116,0.5000725388526917
1776444543739598300,27.594598388671876,0.19132095575332642,0.03637837618589401,0.6039313077926636
1776444543764616200,27.6196162109375,0.19937652349472046,0.2092786431312561,0.6437450647354126
1776444543789634300,27.64463427734375,-0.009239193983376026,0.325756698846817,0.7984583973884583
1776444543814652200,27.669652099609376,-0.1555631309747696,0.32474184036254883,0.9619370102882385
1776444543839669200,27.694669189453126,-0.3194534480571747,0.23924598097801208,1.0787864923477173
1776444543864687000,27.71968701171875,-0.3502712845802307,0.07555894553661346,1.204484224319458
1776444543889705200,27.744705322265624,-0.10700113326311111,-0.02339746430516243,1.1988604068756104
1776444543914723000,27.76972314453125,0.07573840022087097,-0.06296547502279282,1.0959984064102173
1776444543939741400,27.794741455078125,0.13909487426280975,-0.07417742162942886,1.1086708307266235
1776444543964759300,27.81975927734375,0.10706455260515213,-0.14380258321762085,0.9823743104934692
1776444543989776400,27.8447763671875,0.04778312146663666,-0.21163702011108398,0.90184485912323
1776444544014794200,27.869794189453124,0.018615879118442535,-0.28555670380592346,0.9527629017829895
1776444544039812400,27.894812255859375,0.0014387965202331543,-0.4031178951263428,0.9366008639335632
1776444544064830200,27.919830322265625,-0.03636161983013153,-0.4954746663570404,0.9890204071998596
1776444544089848300,27.944848388671875,0.0023493932094424963,-0.5098540186882019,1.1435073614120483
1776444544114866200,27.9698662109375,0.015399974770843983,-0.47919994592666626,1.176216721534729
1776444544139883300,27.99488330078125,-0.04834431782364845,-0.38940173387527466,1.2599754333496094
1776444544164901400,28.0199013671875,-0.056194353848695755,-0.2528645098209381,1.4625030755996704
1776444544189919700,28.044919677734374,-0.011617130599915981,-0.10096345841884613,1.5146715641021729
1776444544214937600,28.0699375,0.04148155450820923,0.049868494272232056,1.5341763496398926
1776444544239955700,28.094955810546875,0.15605132281780243,0.19714075326919556,1.5530929565429688
1776444544264973600,28.1199736328125,0.2540583908557892,0.3513518273830414,1.519240379333496
1776444544289991700,28.14499169921875,0.32246801257133484,0.48522233963012695,1.4122836589813232
1776444544315008800,28.1700087890625,0.3697158396244049,0.548949122428894,1.3400272130966187
1776444544340026600,28.195026611328124,0.4500195384025574,0.4890747368335724,1.3512065410614014
1776444544365044500,28.22004443359375,0.4291999936103821,0.324239581823349,1.4634020328521729
1776444544390062600,28.2450625,0.3619632422924042,0.10415917634963989,1.620998501777649
1776444544415080400,28.27008056640625,0.34278973937034607,-0.10503411293029785,1.6988815069198608
1776444544440097500,28.29509765625,0.23659586906433105,-0.28761255741119385,1.6478787660598755
1776444544465115600,28.32011572265625,0.19725970923900604,-0.48146602511405945,1.5580958127975464
1776444544490133500,28.345133544921875,0.1679334044456482,-0.5447138547897339,1.4842932224273682
1776444544515151600,28.370151611328126,0.03578899800777435,-0.5300878286361694,1.3397088050842285
1776444544540169500,28.39516943359375,-0.18093127012252808,-0.461535781621933,1.1112562417984009
1776444544565187600,28.4201875,-0.3516036868095398,-0.34789618849754333,0.8429672718048096
1776444544590204400,28.445204345703125,-0.4081142246723175,-0.2283521592617035,0.7685695886611938
1776444544615222800,28.470222900390624,-0.44064193964004517,-0.17713803052902222,0.5516299605369568
1776444544640240600,28.49524072265625,-0.5418311953544617,-0.11531749367713928,0.3908633887767792
1776444544665258800,28.5202587890625,-0.4667986035346985,-0.1832820475101471,0.4766809046268463
1776444544690276600,28.545276611328124,-0.3124094605445862,-0.24820686876773834,0.5362362265586853
1776444544715293700,28.570293701171874,-0.21391285955905914,-0.28990864753723145,0.5254177451133728
1776444544740311600,28.5953115234375,-0.32154837250709534,-0.25909700989723206,0.6069455146789551
1776444544765329700,28.62032958984375,-0.28801363706588745,-0.028228938579559326,0.6847690939903259
1776444544790347500,28.645347412109373,-0.11945650726556778,0.23831266164779663,0.8396003842353821
1776444544815364600,28.670364501953124,0.041779469698667526,0.3515484035015106,1.11028254032135
1776444544840382500,28.695382568359374,0.09661134332418442,0.3357812464237213,1.284183144569397
1776444544865400600,28.720400634765625,0.06054862216114998,0.31473204493522644,1.4924923181533813
1776444544890418400,28.74541845703125,0.010148136876523495,0.45801299810409546,1.6045136451721191
1776444544915436500,28.7704365234375,0.1399412304162979,0.49203941226005554,1.7839930057525635
1776444544940453600,28.79545361328125,0.31671345233917236,0.4776681065559387,1.9318968057632446
1776444544965471500,28.820471435546875,0.3031778335571289,0.40208715200424194,2.085446357727051
1776444544990489600,28.845489501953125,0.1832779496908188,0.5110779404640198,2.339553117752075
1776444545015507700,28.8705078125,0.17249900102615356,0.4817730188369751,2.508160352706909
1776444545040525600,28.895525634765626,0.1782466471195221,0.38419216871261597,2.4703969955444336
1776444545065542700,28.920542724609376,-0.14183595776557922,-0.04240306466817856,2.447270154953003
1776444545090560800,28.945560791015627,-0.4477255940437317,-0.5465661883354187,2.314605474472046
1776444545115578600,28.97057861328125,-0.511551022529602,-0.8889656066894531,2.1718688011169434
1776444545140596700,28.9955966796875,-0.23830850422382355,-1.0548771619796753,2.1365208625793457
1776444545165613800,29.02061376953125,-0.2678808271884918,-0.9694703817367554,2.3361153602600098
1776444545190631000,29.045630859375,-0.38019782304763794,-0.681453287601471,2.6568257808685303
1776444545215648800,29.070648681640623,-0.3497716784477234,-0.3445608615875244,2.763154983520508
1776444545240667000,29.0956669921875,0.13604168593883514,-0.10393847525119781,2.649062395095825
1776444545265685000,29.12068505859375,0.6479035019874573,0.1855400949716568,2.5478389263153076
1776444545290703000,29.145703125,0.5424569249153137,0.7192553281784058,2.5651700496673584
1776444545315720200,29.17072021484375,0.550347089767456,1.0619512796401978,2.5050740242004395
1776444545340738000,29.195738037109376,0.6750966310501099,1.2229951620101929,2.4122793674468994
1776444545365756200,29.220756103515626,0.9246863126754761,1.1448453664779663,2.355426788330078
1776444545390774000,29.24577392578125,0.9050309062004089,1.0568739175796509,2.2326879501342773
1776444545415791900,29.2707919921875,0.8729155659675598,0.9387561082839966,1.9954252243041992
1776444545440810000,29.29581005859375,0.8388495445251465,0.7081621885299683,1.7866560220718384
1776444545465827000,29.3208271484375,0.7174603939056396,0.48872870206832886,1.55471932888031
1776444545490845000,29.345844970703126,0.47462916374206543,0.3361084461212158,1.3012549877166748
1776444545515863000,29.370863037109373,0.2671608328819275,0.1602030098438263,1.1439268589019775
1776444545540881000,29.395880859375,0.15076960623264313,-0.00909850001335144,1.114286184310913
1776444545565899000,29.42089892578125,0.04072166234254837,-0.1676446944475174,1.2032588720321655
1776444545590915800,29.445915771484376,-0.037061773240566254,-0.3361978232860565,1.2896370887756348
1776444545615934000,29.470933837890627,-0.06737449765205383,-0.4261368215084076,1.305108666419983
1776444545640951800,29.495951904296874,-0.12642601132392883,-0.4179858863353729,1.324946403503418
1776444545665970000,29.520969970703124,-0.18442949652671814,-0.320553719997406,1.3080027103424072
1776444545690986800,29.54598681640625,-0.2092784345149994,-0.2252981811761856,1.300215482711792
1776444545716004900,29.5710048828125,-0.16866521537303925,-0.18084391951560974,1.1827447414398193
1776444545741023000,29.59602294921875,-0.16113363206386566,-0.13647985458374023,1.0012450218200684
1776444545766041000,29.621041015625,-0.2396911382675171,-0.08631066977977753,0.7790300250053406
1776444545791059000,29.646058837890624,-0.28337642550468445,-0.030438624322414398,0.5301379561424255
1776444545816076000,29.671075927734375,-0.23347845673561096,0.00628704484552145,0.32061100006103516
1776444545841094100,29.69609423828125,-0.1275176852941513,-0.021027710288763046,0.14303706586360931
1776444545866112000,29.721112060546876,-0.1942707747220993,0.08621140569448471,0.012003626674413681
1776444545891129900,29.7461298828125,-0.4485188126564026,0.07538316398859024,0.16707174479961395
1776444545916148000,29.77114794921875,-0.19141586124897003,0.09805858880281448,0.3281468451023102
1776444545941165000,29.7961650390625,-0.10128128528594971,0.11075828224420547,0.33649760484695435
1776444545966183000,29.821182861328126,-0.15313255786895752,0.0015384908765554428,0.437997043132782
1776444545991201000,29.846200927734376,-0.20081660151481628,-0.1883397251367569,0.2692731022834778
1776444546016219000,29.871218994140627,-0.2609987258911133,-0.40785062313079834,0.019951002672314644
1776444546041237000,29.896237060546873,-0.11837824434041977,-0.46378740668296814,-0.177509143948555
1776444546066253800,29.92125390625,0.4221915602684021,-0.08919162303209305,-0.11199723929166794
1776444546091272000,29.94627197265625,0.6192262172698975,0.14428085088729858,-0.09029897302389145
1776444546116289800,29.971289794921876,0.7510741949081421,0.31583690643310547,-0.03263714164495468
1776444546141308200,29.99630810546875,0.5596035718917847,0.2727535665035248,0.031544409692287445
1776444546166325200,30.0213251953125,0.46523597836494446,0.12766560912132263,0.11046355217695236
1776444546191343400,30.04634326171875,0.3237096667289734,0.036181140691041946,0.20634929835796356
1776444546216361200,30.071361328125,0.34202009439468384,-0.06430312991142273,0.36303016543388367
1776444546241379300,30.09637939453125,0.19152438640594482,-0.011561158113181591,0.5110177397727966
1776444546266397200,30.121397216796876,-0.04896514490246773,0.10508503764867783,0.6417380571365356
1776444546291414300,30.146414306640626,-0.1477670818567276,0.3254510462284088,0.6876444816589355
1776444546316432100,30.17143212890625,-0.04226440191268921,0.6008633375167847,0.6792610287666321
1776444546341450500,30.196450439453123,0.10136988759040833,0.5721484422683716,0.5885869860649109
1776444546366468400,30.22146826171875,0.0041095418855547905,0.4122198224067688,0.4361673891544342
1776444546391486500,30.246486572265624,-0.14895500242710114,0.18475428223609924,0.36067140102386475
1776444546416503600,30.271503662109374,-0.3933973014354706,0.026726387441158295,0.43985289335250854
1776444546441521400,30.296521484375,-0.5828238129615784,-0.19561737775802612,0.7050601243972778
1776444546466539300,30.321539306640624,-0.5593641400337219,-0.24762460589408875,0.9022787809371948
1776444546491557400,30.346557373046874,-0.3149246275424957,-0.2639729082584381,1.1012941598892212
1776444546516574500,30.371574462890624,-0.10160703212022781,-0.26307475566864014,1.302248477935791
1776444546541592300,30.39659228515625,0.10076173394918442,-0.16400837898254395,1.3748202323913574
1776444546566610400,30.4216103515625,0.2833290100097656,-0.015815172344446182,1.4235502481460571
1776444546591628300,30.446628173828124,0.38277989625930786,0.09662202000617981,1.4271029233932495
1776444546616646400,30.471646484375,0.41830775141716003,0.11906465142965317,1.4548859596252441
1776444546641663200,30.496663330078125,0.43238168954849243,0.10607004165649414,1.5094332695007324
1776444546666681300,30.521681396484375,0.3240567147731781,0.002776089124381542,1.6625971794128418
1776444546691699200,30.54669921875,0.3715129494667053,0.03564203158020973,1.7743691205978394
1776444546716717300,30.57171728515625,0.5204307436943054,0.13089688122272491,1.8773423433303833
1776444546741735400,30.5967353515625,0.5278065204620361,0.06218152865767479,1.9967485666275024
1776444546766752300,30.621752197265625,0.35563236474990845,-0.07509709894657135,2.0557947158813477
1776444546791770400,30.646770263671876,0.43600577116012573,-0.23615208268165588,2.050682544708252
1776444546816788500,30.67178857421875,0.3269723653793335,-0.32430046796798706,2.0315043926239014
1776444546841806300,30.696806396484376,0.21535532176494598,-0.3898835778236389,1.9320346117019653
1776444546866823400,30.721823486328127,0.3454820215702057,-0.40142256021499634,1.8615823984146118
1776444546891841500,30.746841552734374,0.29842475056648254,-0.3266521096229553,1.7855421304702759
1776444546916859400,30.771859375,0.37076419591903687,-0.15427377820014954,1.7222297191619873
1776444546941877200,30.796877197265626,0.45186030864715576,0.0535699762403965,1.6711403131484985
1776444546966894300,30.821894287109377,0.3909319341182709,0.23897144198417664,1.665973424911499
1776444546991912400,30.846912353515624,0.47452133893966675,0.5163198113441467,1.6663286685943604
1776444547016930300,30.871930419921874,0.6846468448638916,0.7513031363487244,1.6733695268630981
1776444547041948400,30.896948486328125,0.5230307579040527,0.8800440430641174,1.658031940460205
1776444547066966300,30.92196630859375,0.4633037745952606,0.9855287671089172,1.6137624979019165
1776444547091983400,30.9469833984375,0.4192507565021515,0.9904932975769043,1.5702786445617676
1776444547117001200,30.972001220703124,0.20903414487838745,0.761069118976593,1.5675691366195679
1776444547142019300,30.997019287109374,0.09053284674882889,0.510173499584198,1.4754239320755005
1776444547167040800,31.022040771484374,0.29314762353897095,0.3377171456813812,1.450680136680603
1776444547192057900,31.047057861328124,0.3571513891220093,0.16820020973682404,1.4587483406066895
1776444547217075700,31.07207568359375,0.33243218064308167,-0.0337928906083107,1.4108431339263916
1776444547242093800,31.09709375,0.39685484766960144,-0.14259277284145355,1.313875436782837
1776444547267111700,31.122111572265624,0.31194135546684265,-0.2402612864971161,1.2777639627456665
1776444547292128800,31.147128662109374,0.05211499333381653,-0.510352373123169,1.2567875385284424
1776444547317147000,31.17214697265625,-0.02979489415884018,-0.7340580224990845,1.1058509349822998
