time,seconds_elapsed,z,y,x
1776444516210860000,0.065860107421875,-1.03271484375,-0.051666259765625,0.0156707763671875
1776444516235879200,0.090879150390625,-1.036529541015625,-0.0491180419921875,-0.0242156982421875
1776444516260897300,0.115897216796875,-1.003387451171875,-0.036041259765625,-0.023712158203125
1776444516285916200,0.140916259765625,-0.987060546875,-0.0239715576171875,-0.0040435791015625
1776444516310934000,0.16593408203125,-0.9984588623046875,-0.0260772705078125,0.0166168212890625
1776444516335953000,0.190952880859375,-1.0157470703125,-0.0241851806640625,0.0055084228515625
1776444516360972300,0.21597216796875,-1.0107421875,-0.027923583984375,-0.0133819580078125
1776444516385990100,0.240990234375,-0.988861083984375,-0.0295562744140625,-0.0053558349609375
1776444516411009000,0.266009033203125,-0.979766845703125,-0.0264434814453125,-0.00048828125
1776444516436027100,0.291027099609375,-0.996917724609375,-0.0401611328125,0.0045623779296875
1776444516461046000,0.3160458984375,-0.98590087890625,-0.027313232421875,0.0240936279296875
1776444516486064000,0.341064208984375,-0.9896697998046875,-0.023773193359375,0.0118560791015625
1776444516511083000,0.3660830078125,-1.0189056396484375,-0.0178985595703125,0.018096923828125
1776444516536101000,0.39110107421875,-1.0101165771484375,-0.013671875,0.024993896484375
1776444516561120000,0.4161201171875,-0.9978179931640625,-0.019378662109375,0.001495361328125
1776444516586138000,0.44113818359375,-1.0107269287109375,-0.0260009765625,-0.0270538330078125
1776444516611157200,0.4661572265625,-1.023040771484375,-0.0548248291015625,-0.1057891845703125
1776444516636175000,0.491175048828125,-1.012237548828125,-0.05535888671875,-0.1551361083984375
1776444516661194000,0.516194091796875,-0.9825286865234375,-0.0304107666015625,-0.065155029296875
1776444516686212000,0.541212158203125,-0.9812164306640625,0.00140380859375,-0.033355712890625
1776444516711231000,0.56623095703125,-0.9893646240234375,0.00634765625,-0.0596923828125
1776444516736249000,0.5912490234375,-0.983978271484375,-0.0111083984375,0.1020355224609375
1776444516761268200,0.616268310546875,-0.9589691162109375,0.0380706787109375,0.1144866943359375
1776444516786286000,0.6412861328125,-0.9592437744140625,0.0555877685546875,0.11859130859375
1776444516811305000,0.666304931640625,-0.949798583984375,0.0685577392578125,0.12835693359375
1776444516836323000,0.691322998046875,-0.95587158203125,0.0552825927734375,0.127471923828125
1776444516861342200,0.71634228515625,-0.9490814208984375,0.0818023681640625,0.0993804931640625
1776444516886360000,0.741360107421875,-0.9488677978515625,0.1219024658203125,0.0703887939453125
1776444516911379200,0.766379150390625,-0.9640045166015625,0.134521484375,0.0707855224609375
1776444516936397000,0.79139697265625,-0.995819091796875,0.136627197265625,0.11077880859375
1776444516961416000,0.816416015625,-1.02008056640625,0.1020050048828125,0.1040191650390625
1776444516986434000,0.84143408203125,-1.022918701171875,0.1011505126953125,0.10321044921875
1776444517011453200,0.866453125,-1.0017242431640625,0.090606689453125,0.0956573486328125
1776444517036471000,0.891470947265625,-0.9693450927734375,0.10406494140625,0.07208251953125
1776444517061490200,0.916490234375,-0.95684814453125,0.1028594970703125,0.0801849365234375
1776444517086508000,0.941508056640625,-0.9370880126953125,0.117919921875,0.045654296875
1776444517111527200,0.966527099609375,-0.977294921875,0.092498779296875,0.0596771240234375
1776444517136544800,0.991544677734375,-1.0018768310546875,0.0708770751953125,0.0773162841796875
1776444517161562600,1.016562744140625,-1.019683837890625,-0.006683349609375,0.049835205078125
1776444517186581500,1.04158154296875,-1.0218658447265625,-0.0478668212890625,-0.0062713623046875
1776444517211600000,1.066599853515625,-1.0363006591796875,-0.0987548828125,-0.0034942626953125
1776444517236618800,1.09161865234375,-1.0273284912109375,-0.1240692138671875,-0.00048828125
1776444517261636600,1.11663671875,-1.0600738525390625,-0.1428680419921875,-0.0623931884765625
1776444517286655700,1.14165576171875,-1.101715087890625,-0.17352294921875,-0.1585540771484375
1776444517311673600,1.166673583984375,-1.065032958984375,-0.200408935546875,-0.2156982421875
1776444517336692700,1.191692626953125,-1.037017822265625,-0.2237548828125,-0.1902313232421875
1776444517361710800,1.2167109375,-1.0548248291015625,-0.2848052978515625,-0.102935791015625
1776444517386729700,1.241729736328125,-1.0214691162109375,-0.2257080078125,-0.1442413330078125
1776444517411747600,1.26674755859375,-0.983795166015625,-0.150848388671875,-0.1452178955078125
1776444517436766700,1.2917666015625,-1.0001983642578125,-0.1424560546875,-0.016357421875
1776444517461784600,1.31678466796875,-0.97930908203125,-0.1167449951171875,0.0340423583984375
1776444517486803700,1.3418037109375,-0.9557647705078125,-0.07794189453125,-0.007232666015625
1776444517511821800,1.36682177734375,-0.9315948486328125,-0.0029449462890625,0.06011962890625
1776444517536840700,1.3918408203125,-0.9150848388671875,0.016448974609375,0.1112518310546875
1776444517561858600,1.416858642578125,-0.936920166015625,0.054168701171875,0.0527191162109375
1776444517586877700,1.441877685546875,-0.9657745361328125,0.0564117431640625,0.091796875
1776444517611895800,1.466895751953125,-0.935211181640625,0.056793212890625,0.1510467529296875
1776444517636914700,1.491914794921875,-0.908294677734375,0.082672119140625,0.087921142578125
1776444517661932800,1.516932861328125,-0.975311279296875,0.0262603759765625,0.0194854736328125
1776444517686951700,1.54195166015625,-1.0717010498046875,-0.02490234375,0.063812255859375
1776444517711969500,1.566969482421875,-1.0278472900390625,-0.05712890625,0.1069793701171875
1776444517736988000,1.59198779296875,-0.990814208984375,-0.0194244384765625,0.00164794921875
1776444517762006800,1.6170068359375,-0.995635986328125,-0.0253143310546875,-0.04132080078125
1776444517787024600,1.642024658203125,-1.055755615234375,-0.1014556884765625,-0.038360595703125
1776444517812043800,1.667043701171875,-1.048553466796875,-0.1080474853515625,-0.04571533203125
1776444517837061600,1.6920615234375,-1.0051116943359375,-0.0445709228515625,-0.08331298828125
1776444517862080800,1.717080810546875,-0.9383392333984375,-0.1130523681640625,-0.2843475341796875
1776444517887099000,1.742098876953125,-0.9720306396484375,-0.10589599609375,-0.092437744140625
1776444517912117800,1.76711767578125,-0.9711151123046875,-0.0325469970703125,-0.221405029296875
1776444517937135600,1.792135498046875,-0.878997802734375,0.1000518798828125,-0.1202545166015625
1776444517962154800,1.81715478515625,-0.96148681640625,0.0082855224609375,-0.2407684326171875
1776444517987172600,1.842172607421875,-1.0058746337890625,-0.015625,-0.1582489013671875
1776444518012191700,1.867191650390625,-0.9359893798828125,-0.123321533203125,-0.185394287109375
1776444518037209900,1.8922099609375,-0.9261016845703125,-0.13519287109375,-0.189117431640625
1776444518062228700,1.917228759765625,-0.978973388671875,-0.268585205078125,-0.0915985107421875
1776444518087246600,1.94224658203125,-1.055389404296875,-0.53955078125,0.0033416748046875
1776444518112264700,1.9672646484375,-1.0811614990234375,-0.297576904296875,-0.1416015625
1776444518137280500,1.992280517578125,-1.0201263427734375,-0.33856201171875,-0.048187255859375
1776444518162298400,2.01729833984375,-0.998809814453125,-0.2344207763671875,-0.0424346923828125
1776444518187317500,2.0423173828125,-1.009368896484375,-0.110321044921875,0.0267791748046875
1776444518212335600,2.067335693359375,-1.02166748046875,-0.131134033203125,-0.0601348876953125
1776444518237354500,2.0923544921875,-1.05224609375,-0.19866943359375,-0.2335357666015625
1776444518262372600,2.11737255859375,-1.03857421875,-0.3128662109375,-0.299530029296875
1776444518287391500,2.1423916015625,-1.0515899658203125,-0.1902923583984375,-0.259918212890625
1776444518312409300,2.167409423828125,-0.9893798828125,-0.247711181640625,-0.1741943359375
1776444518337428500,2.192428466796875,-0.97216796875,-0.056976318359375,-0.10247802734375
1776444518362446600,2.217446533203125,-0.9438934326171875,0.0467376708984375,0.0561065673828125
1776444518387465500,2.242465576171875,-0.920623779296875,-0.071441650390625,0.1295166015625
1776444518412483300,2.2674833984375,-0.9771270751953125,-0.0255126953125,0.073150634765625
1776444518437501400,2.29250146484375,-0.9353179931640625,-0.1813201904296875,-0.02899169921875
1776444518462520600,2.3175205078125,-0.97418212890625,-0.1506805419921875,-0.1207427978515625
1776444518487538700,2.34253857421875,-0.9579620361328125,-0.13446044921875,-0.2079925537109375
1776444518512557600,2.3675576171875,-0.917083740234375,-0.1441192626953125,-0.1854248046875
1776444518537575400,2.392575439453125,-0.942291259765625,-0.087615966796875,-0.2498016357421875
1776444518562594300,2.41759423828125,-1.02569580078125,0.0789947509765625,-0.148651123046875
1776444518587612400,2.4426123046875,-0.946441650390625,-0.03192138671875,0.0560455322265625
1776444518612631600,2.467631591796875,-0.97186279296875,-0.100341796875,-0.0343475341796875
1776444518637649700,2.492649658203125,-1.0088958740234375,-0.194732666015625,-0.0704345703125
1776444518662668500,2.51766845703125,-1.0165252685546875,-0.16796875,-0.1299591064453125
1776444518687686400,2.542686279296875,-1.0271453857421875,-0.1262969970703125,-0.1268768310546875
1776444518712705500,2.56770556640625,-1.007354736328125,-0.142974853515625,-0.18731689453125
1776444518737723600,2.5927236328125,-1.093902587890625,-0.15765380859375,-0.274749755859375
1776444518762741500,2.617741455078125,-1.0118408203125,-0.1928558349609375,-0.220245361328125
1776444518787760400,2.642760498046875,-1.093719482421875,-0.102264404296875,-0.06195068359375
1776444518812778500,2.667778564453125,-0.9660186767578125,-0.24090576171875,-0.0442962646484375
1776444518837797400,2.69279736328125,-0.98333740234375,-0.1830596923828125,-0.0442047119140625
1776444518862815700,2.717815673828125,-0.9356536865234375,-0.1838836669921875,-0.0401611328125
1776444518887834600,2.742834716796875,-0.99871826171875,-0.0421600341796875,-0.122467041015625
1776444518912852500,2.7678525390625,-0.9509735107421875,0.059539794921875,-0.1758575439453125
1776444518937871400,2.792871337890625,-0.9768218994140625,-0.0130767822265625,0.0147857666015625
1776444518962889500,2.817889404296875,-0.916015625,-0.1595611572265625,-0.0437164306640625
1776444518987908600,2.84290869140625,-0.931121826171875,-0.113250732421875,-0.1861572265625
1776444519012926500,2.867926513671875,-0.864898681640625,-0.1306915283203125,-0.3184051513671875
1776444519037944600,2.892944580078125,-0.8747406005859375,-0.2297515869140625,-0.2345733642578125
1776444519062963500,2.91796337890625,-0.9278717041015625,-0.216064453125,-0.2061614990234375
1776444519087981600,2.942981689453125,-0.9922943115234375,-0.2312164306640625,-0.1735992431640625
1776444519113000400,2.96800048828125,-1.0402374267578125,-0.29180908203125,-0.0845794677734375
1776444519138018600,2.9930185546875,-1.0974273681640625,-0.21942138671875,-0.087921142578125
1776444519163037400,3.018037353515625,-1.1021881103515625,-0.23309326171875,-0.1742706298828125
1776444519188055600,3.0430556640625,-1.085357666015625,-0.2492218017578125,-0.105377197265625
1776444519213074700,3.06807470703125,-1.0786590576171875,-0.0674896240234375,-0.149261474609375
1776444519238092500,3.093092529296875,-1.0146484375,-0.30865478515625,-0.2079315185546875
1776444519263110700,3.118110595703125,-1.072296142578125,-0.130889892578125,-0.0853729248046875
1776444519288129500,3.143129638671875,-1.032073974609375,-0.0648651123046875,-0.0619354248046875
1776444519313147600,3.168147705078125,-1.015350341796875,-0.113555908203125,-0.118988037109375
1776444519338166500,3.19316650390625,-1.01898193359375,-0.2131805419921875,-0.0984039306640625
1776444519363184600,3.2181845703125,-1.0272369384765625,-0.202880859375,-0.022613525390625
1776444519388203500,3.24320361328125,-1.045684814453125,-0.0853271484375,0.072998046875
1776444519413221600,3.2682216796875,-0.9919586181640625,-0.1115875244140625,0.1051177978515625
1776444519438240500,3.293240478515625,-0.885223388671875,-0.197845458984375,0.321136474609375
1776444519463258600,3.318258544921875,-0.929962158203125,-0.252288818359375,0.5918426513671875
1776444519488276500,3.3432763671875,-0.8785858154296875,-0.21929931640625,0.2674407958984375
1776444519513295600,3.368295654296875,-0.7376861572265625,-0.116546630859375,0.1190338134765625
1776444519538313700,3.393313720703125,-0.833099365234375,0.003082275390625,0.043701171875
1776444519563332600,3.41833251953125,-1.0063629150390625,-0.1123046875,0.107757568359375
1776444519588350500,3.4433505859375,-1.1327362060546875,-0.255615234375,0.11993408203125
1776444519613369600,3.46836962890625,-1.0122833251953125,-0.0748291015625,0.0451812744140625
1776444519638387700,3.4933876953125,-1.01611328125,-0.179840087890625,-0.145660400390625
1776444519663406600,3.518406494140625,-0.9589996337890625,-0.15869140625,-0.000091552734375
1776444519688424700,3.5434248046875,-1.0364990234375,-0.230987548828125,0.11578369140625
1776444519713442600,3.568442626953125,-0.963623046875,-0.116546630859375,0.0606689453125
1776444519738461400,3.59346142578125,-0.932159423828125,-0.11688232421875,0.018798828125
1776444519763479800,3.618479736328125,-0.908233642578125,-0.068359375,-0.0194091796875
1776444519788498700,3.643498779296875,-0.93707275390625,-0.0449066162109375,-0.063201904296875
1776444519813516500,3.6685166015625,-0.975799560546875,0.014129638671875,-0.0868377685546875
1776444519838535400,3.693535400390625,-0.988922119140625,0.0045013427734375,-0.040283203125
1776444519863553500,3.718553466796875,-1.0045623779296875,-0.04742431640625,0.0311279296875
1776444519888572700,3.74357275390625,-0.9926300048828125,-0.07733154296875,0.0409393310546875
1776444519913590800,3.7685908203125,-1.067779541015625,-0.1210174560546875,-0.030120849609375
1776444519938608600,3.793608642578125,-0.97430419921875,0.0263671875,-0.0257720947265625
1776444519963627500,3.81862744140625,-0.9688262939453125,0.014984130859375,-0.0824127197265625
1776444519988645600,3.843645751953125,-0.959747314453125,0.08917236328125,-0.0665740966796875
1776444520013664500,3.86866455078125,-0.9816741943359375,-0.0260162353515625,-0.04205322265625
1776444520038682600,3.8936826171875,-1.0735626220703125,-0.0765380859375,-0.0480804443359375
1776444520063701500,3.918701416015625,-0.9941864013671875,0.03643798828125,0.2010650634765625
1776444520088719600,3.9437197265625,-1.0032806396484375,0.0052490234375,0.29071044921875
1776444520113737500,3.968737548828125,-1.0267486572265625,0.0570068359375,0.1914825439453125
1776444520138756000,3.993756103515625,-0.9398956298828125,0.12744140625,0.030426025390625
1776444520163774000,4.01877392578125,-1.0048675537109375,-0.0087127685546875,-0.055633544921875
1776444520188792800,4.043792724609375,-0.9532318115234375,0.0215606689453125,0.11419677734375
1776444520213811000,4.06881103515625,-1.0007171630859375,-0.0086822509765625,0.363616943359375
1776444520238829800,4.093829833984375,-1.052093505859375,-0.1193695068359375,0.3165740966796875
1776444520263848200,4.11884814453125,-1.0709686279296875,-0.1735992431640625,0.1620941162109375
1776444520288866000,4.143865966796875,-1.05804443359375,-0.20843505859375,0.1808929443359375
1776444520313885000,4.168885009765625,-0.967926025390625,-0.2146453857421875,0.211334228515625
1776444520338903000,4.193903076171875,-0.94305419921875,-0.1763916015625,0.208953857421875
1776444520363922000,4.218921875,-0.9705047607421875,-0.078704833984375,0.1668853759765625
1776444520388939800,4.243939697265625,-0.9505462646484375,-0.02496337890625,0.165069580078125
1776444520413959000,4.268958984375,-0.927490234375,-0.00909423828125,0.229400634765625
1776444520438977000,4.29397705078125,-0.9303131103515625,-0.05352783203125,0.2019805908203125
1776444520463995000,4.318994873046875,-0.997528076171875,-0.0545196533203125,0.1089630126953125
1776444520489014000,4.344013916015625,-1.0206451416015625,-0.0626068115234375,0.15216064453125
1776444520514031900,4.369031982421875,-0.979461669921875,-0.097198486328125,0.20220947265625
1776444520539051000,4.394051025390625,-0.9954071044921875,-0.1870574951171875,0.114990234375
1776444520564069000,4.419069091796875,-1.0085296630859375,-0.224273681640625,0.037322998046875
1776444520589088000,4.444087890625,-1.012542724609375,-0.164581298828125,-0.009979248046875
1776444520614105900,4.46910595703125,-1.0261383056640625,-0.1479034423828125,-0.0438385009765625
1776444520639124000,4.4941240234375,-1.0524749755859375,-0.136627197265625,-0.129791259765625
1776444520664143000,4.51914306640625,-1.001312255859375,-0.0992431640625,-0.098968505859375
1776444520689161000,4.544160888671875,-1.0243682861328125,-0.1536712646484375,-0.071319580078125
1776444520714180000,4.56918017578125,-1.0068817138671875,-0.1273040771484375,0.00177001953125
1776444520739198000,4.594197998046875,-1.003265380859375,-0.2305145263671875,0.06634521484375
1776444520764216000,4.619216064453125,-1.0302734375,-0.19085693359375,-0.058135986328125
1776444520789235000,4.64423486328125,-0.9671630859375,-0.074554443359375,-0.0801239013671875
1776444520814252800,4.669252685546875,-0.9402008056640625,-0.090728759765625,-0.0861968994140625
1776444520839272000,4.69427197265625,-0.9583587646484375,-0.1280059814453125,-0.1406402587890625
1776444520864290000,4.7192900390625,-0.94622802734375,-0.2851715087890625,-0.2178955078125
1776444520889309000,4.744308837890625,-0.813201904296875,-0.1242828369140625,-0.2867431640625
1776444520914326800,4.769326904296875,-0.8758392333984375,0.0641632080078125,-0.3748321533203125
1776444520939345000,4.794344970703125,-0.8304290771484375,0.1151885986328125,-0.3604278564453125
1776444520964364000,4.819364013671875,-0.9414825439453125,0.0243682861328125,-0.4153289794921875
1776444520989382100,4.844382080078125,-0.9779510498046875,-0.1092529296875,-0.3814697265625
1776444521014401000,4.869401123046875,-0.97369384765625,0.0079193115234375,-0.3295135498046875
1776444521039419000,4.8944189453125,-0.986846923828125,0.0990142822265625,-0.2227935791015625
1776444521064437000,4.91943701171875,-0.937896728515625,0.045928955078125,-0.05267333984375
1776444521089456000,4.9444560546875,-0.950927734375,-0.0307769775390625,0.004058837890625
1776444521114474000,4.969473876953125,-0.9960174560546875,-0.002471923828125,0.0609283447265625
1776444521139492900,4.994492919921875,-1.0161590576171875,-0.03814697265625,0.143707275390625
1776444521164511200,5.01951123046875,-1.057647705078125,-0.050994873046875,0.2173004150390625
1776444521189529000,5.044529052734375,-1.050445556640625,-0.08453369140625,0.257415771484375
1776444521214548200,5.06954833984375,-1.090240478515625,-0.0658721923828125,0.25860595703125
1776444521239566000,5.094566162109375,-1.032012939453125,-0.186676025390625,0.231475830078125
1776444521264585000,5.1195849609375,-1.00653076171875,-0.2105255126953125,0.203521728515625
1776444521289603000,5.14460302734375,-1.050018310546875,-0.12445068359375,0.0940399169921875
1776444521314621200,5.16962109375,-0.961700439453125,-0.131439208984375,-0.01611328125
1776444521339640000,5.19464013671875,-0.9493408203125,-0.2263336181640625,-0.0868988037109375
1776444521364658200,5.219658203125,-0.9263153076171875,-0.220611572265625,0.02874755859375
1776444521389677000,5.244677001953125,-1.0113067626953125,-0.08544921875,0.220184326171875
1776444521414695000,5.26969482421875,-1.051727294921875,-0.091094970703125,0.271697998046875
1776444521439713000,5.294713134765625,-0.9837799072265625,-0.165924072265625,0.2017364501953125
1776444521464732200,5.319732177734375,-0.9633331298828125,-0.01922607421875,0.0909576416015625
1776444521489750300,5.344750244140625,-1.0242462158203125,-0.007720947265625,0.0140838623046875
1776444521514769200,5.36976904296875,-0.9627838134765625,-0.1340179443359375,0.0235748291015625
1776444521539787000,5.394787109375,-1.0320281982421875,0.296478271484375,-0.410614013671875
1776444521564806000,5.419805908203125,-0.9523162841796875,0.1176605224609375,-0.110382080078125
1776444521589824300,5.44482421875,-0.8376007080078125,-0.14154052734375,-0.0347137451171875
1776444521614842000,5.469842041015625,-0.9026336669921875,-0.1799163818359375,-0.0355682373046875
1776444521639861000,5.494861083984375,-0.8591766357421875,-0.055328369140625,-0.1710052490234375
1776444521664879000,5.519879150390625,-0.913421630859375,-0.1165924072265625,-0.2764892578125
1776444521689897000,5.54489697265625,-1.1635284423828125,-0.12701416015625,-0.146453857421875
1776444521714916000,5.569916015625,-1.016937255859375,-0.2693328857421875,0.0238800048828125
1776444521739934200,5.594934326171875,-0.9669189453125,-0.2521820068359375,0.2291107177734375
1776444521764953000,5.619953125,-1.04534912109375,-0.2546844482421875,0.186065673828125
1776444521789971200,5.64497119140625,-0.937255859375,-0.0723876953125,0.1671295166015625
1776444521814989000,5.669989013671875,-0.95220947265625,-0.1141357421875,0.2071380615234375
1776444521840008000,5.695008056640625,-0.98590087890625,-0.1188507080078125,0.35357666015625
1776444521865026000,5.720026123046875,-0.9840087890625,-0.06756591796875,0.32257080078125
1776444521890045200,5.745045166015625,-0.9730682373046875,-0.071868896484375,0.3138580322265625
1776444521915063000,5.77006298828125,-0.9418487548828125,-0.0518035888671875,0.34051513671875
1776444521940081200,5.7950810546875,-0.9071502685546875,-0.0408935546875,0.43780517578125
1776444521965100000,5.82010009765625,-0.9017791748046875,-0.064056396484375,0.46185302734375
1776444521990118100,5.8451181640625,-0.9251861572265625,-0.035003662109375,0.4048614501953125
1776444522015137300,5.87013720703125,-0.9412841796875,-0.027374267578125,0.362335205078125
1776444522040155100,5.895155029296875,-0.948394775390625,-0.0294189453125,0.42266845703125
1776444522065173200,5.92017333984375,-0.963165283203125,-0.0899200439453125,0.51171875
1776444522090192100,5.945192138671875,-0.971649169921875,-0.041229248046875,0.5211944580078125
1776444522115210000,5.9702099609375,-0.9655609130859375,-0.108734130859375,0.447906494140625
1776444522140228000,5.99522802734375,-0.9899444580078125,-0.0784454345703125,0.34625244140625
1776444522165247000,6.0202470703125,-1.038421630859375,-0.1115875244140625,-0.09027099609375
1776444522190264800,6.045264892578125,-1.057891845703125,-0.2232818603515625,-0.1328887939453125
1776444522215284200,6.0702841796875,-1.021209716796875,-0.23675537109375,-0.001983642578125
1776444522240302000,6.095302001953125,-1.0553436279296875,-0.00494384765625,0.0957183837890625
1776444522265320000,6.12031982421875,-0.9744110107421875,-0.05291748046875,0.110076904296875
1776444522290339000,6.145339111328125,-0.90191650390625,-0.0198822021484375,-0.21826171875
1776444522315357000,6.17035693359375,-0.923553466796875,-0.2793121337890625,-0.100189208984375
1776444522340375000,6.195375,-0.94879150390625,-0.263031005859375,-0.0613861083984375
1776444522365394200,6.220394287109375,-0.9561004638671875,-0.202606201171875,0.0276031494140625
1776444522390412000,6.245412109375,-0.9566497802734375,-0.15252685546875,0.1240692138671875
1776444522415431000,6.270430908203125,-0.9680633544921875,-0.2052154541015625,0.146697998046875
1776444522440449000,6.295448974609375,-1.04180908203125,-0.2798004150390625,0.144744873046875
1776444522465467000,6.320466796875,-1.06475830078125,-0.315155029296875,0.127288818359375
1776444522490486000,6.345486083984375,-1.0992584228515625,-0.2541656494140625,-0.008697509765625
1776444522515504000,6.370504150390625,-1.1221771240234375,-0.3056488037109375,-0.047576904296875
1776444522540522000,6.39552197265625,-1.1181182861328125,-0.299591064453125,-0.1354827880859375
1776444522565541000,6.420541015625,-1.1109771728515625,-0.2987060546875,-0.290863037109375
1776444522590559000,6.44555908203125,-1.0550994873046875,-0.3214263916015625,-0.22052001953125
1776444522615577900,6.470577880859375,-1.0029296875,-0.2033843994140625,-0.0272674560546875
1776444522640596000,6.495595947265625,-0.982269287109375,-0.2788238525390625,0.040863037109375
1776444522665613800,6.52061376953125,-0.9176025390625,-0.2274169921875,-0.0738525390625
1776444522690633000,6.545633056640625,-0.9225921630859375,-0.0174560546875,-0.0957794189453125
1776444522715651000,6.570651123046875,-0.9761199951171875,-0.0486602783203125,0.15252685546875
1776444522740669000,6.5956689453125,-0.947174072265625,-0.1414337158203125,0.3148345947265625
1776444522765688000,6.62068798828125,-0.9832000732421875,-0.1675567626953125,0.3165130615234375
1776444522790706000,6.645705810546875,-0.9953460693359375,-0.1783905029296875,0.196075439453125
1776444522815723800,6.670723876953125,-1.052947998046875,-0.058685302734375,0.1217498779296875
1776444522840743200,6.6957431640625,-1.033447265625,-0.021392822265625,0.0719757080078125
1776444522865761000,6.720760986328125,-1.0116424560546875,-0.11358642578125,0.0575103759765625
1776444522890779100,6.745779052734375,-1.00482177734375,-0.1340484619140625,-0.00189208984375
1776444522915798000,6.770798095703125,-1.0258941650390625,-0.1085968017578125,-0.057769775390625
1776444522940816000,6.79581591796875,-1.0023956298828125,-0.147796630859375,-0.061767578125
1776444522965835000,6.8208349609375,-0.9677276611328125,-0.2125091552734375,-0.0977783203125
1776444522990853000,6.84585302734375,-0.947174072265625,-0.1119384765625,-0.201324462890625
1776444523015871000,6.87087109375,-0.884796142578125,0.161224365234375,-0.1839599609375
1776444523040889900,6.895889892578125,-0.8780059814453125,0.255462646484375,0.0838470458984375
1776444523065908000,6.920907958984375,-0.835906982421875,-0.0360107421875,0.157440185546875
1776444523090925800,6.94592578125,-0.869354248046875,-0.045989990234375,0.1577911376953125
1776444523115945200,6.9709453125,-0.8613433837890625,0.0626220703125,0.240081787109375
1776444523140963800,6.9959638671875,-0.8217010498046875,-0.0112762451171875,0.3560943603515625
1776444523165981700,7.020981689453125,-0.9169158935546875,-0.0794219970703125,0.376861572265625
1776444523191000600,7.04600048828125,-0.9338836669921875,-0.1341400146484375,0.2425537109375
1776444523216018700,7.071018798828125,-0.97296142578125,0.0145263671875,0.0134429931640625
1776444523241036500,7.09603662109375,-0.98883056640625,-0.1855621337890625,-0.1871337890625
1776444523266056000,7.121055908203125,-1.00787353515625,-0.0897674560546875,-0.15557861328125
1776444523291073800,7.14607373046875,-1.02923583984375,-0.163970947265625,-0.1586151123046875
1776444523316092700,7.1710927734375,-1.0423583984375,-0.159423828125,-0.2008209228515625
1776444523341110800,7.19611083984375,-1.0579071044921875,-0.1417083740234375,-0.2180023193359375
1776444523366128600,7.221128662109375,-1.0272674560546875,-0.0832977294921875,-0.2050323486328125
1776444523391147500,7.2461474609375,-1.0415802001953125,-0.0860443115234375,-0.0346832275390625
1776444523416166000,7.271165771484375,-1.040496826171875,-0.044586181640625,-0.0374298095703125
1776444523441183700,7.296183837890625,-1.046630859375,-0.0819091796875,-0.0752105712890625
1776444523466202600,7.32120263671875,-1.069061279296875,-0.03887939453125,-0.0706634521484375
1776444523491220700,7.346220703125,-1.108795166015625,-0.0754547119140625,-0.124267578125
1776444523516238600,7.371238525390625,-1.0703277587890625,0.0031890869140625,-0.196075439453125
1776444523541257700,7.3962578125,-1.003448486328125,-0.1039886474609375,-0.3533172607421875
1776444523566275800,7.42127587890625,-1.0088958740234375,-0.1291351318359375,-0.280364990234375
1776444523591293700,7.446293701171875,-1.0012054443359375,0.0642242431640625,-0.0277099609375
1776444523616312800,7.471312744140625,-0.7947235107421875,0.1874542236328125,0.44189453125
1776444523641330700,7.49633056640625,-0.7816314697265625,-0.2376251220703125,0.4360504150390625
1776444523666348800,7.521348876953125,-0.94781494140625,-0.1194000244140625,0.1439056396484375
1776444523691367700,7.54636767578125,-1.0312957763671875,-0.0150909423828125,-0.21856689453125
1776444523716385500,7.571385498046875,-1.3436431884765625,-0.033050537109375,-0.1455078125
1776444523741404000,7.59640380859375,-1.172576904296875,0.0403289794921875,-0.120819091796875
1776444523766422800,7.6214228515625,-0.8534088134765625,-0.040252685546875,-0.1090545654296875
1776444523791440600,7.646440673828125,-0.9089813232421875,-0.0255889892578125,-0.1603546142578125
1776444523816458800,7.671458740234375,-0.94183349609375,-0.0623321533203125,-0.230133056640625
1776444523841477600,7.6964775390625,-0.868804931640625,-0.140655517578125,-0.2395172119140625
1776444523866495500,7.72149560546875,-0.9518890380859375,-0.07049560546875,-0.2676544189453125
1776444523891513900,7.746513916015625,-1.0220947265625,-0.0462493896484375,-0.306884765625
1776444523916532700,7.77153271484375,-1.090667724609375,0.0241546630859375,-0.344085693359375
1776444523941550800,7.79655078125,-1.032958984375,-0.040924072265625,-0.2142486572265625
1776444523966568700,7.821568603515625,-1.081634521484375,0.00860595703125,-0.1606903076171875
1776444523991587600,7.846587646484375,-1.1166534423828125,0.115264892578125,-0.230194091796875
1776444524016605700,7.871605712890625,-1.0381622314453125,0.1006011962890625,-0.2280731201171875
1776444524041623800,7.896623779296875,-1.0157012939453125,0.1291961669921875,-0.237945556640625
1776444524066642700,7.921642578125,-0.9488372802734375,0.124359130859375,-0.2078399658203125
1776444524091660800,7.946660888671875,-0.9127960205078125,0.12835693359375,-0.1944427490234375
1776444524116678700,7.9716787109375,-0.8825836181640625,0.1324920654296875,-0.1436309814453125
1776444524141697000,7.996697021484375,-0.892486572265625,0.09686279296875,0.0364532470703125
1776444524166715000,8.02171484375,-0.9571533203125,0.1513671875,-0.0604705810546875
1776444524191733200,8.046733154296875,-1.01568603515625,0.1937103271484375,0.02386474609375
1776444524216752000,8.071752197265624,-0.949554443359375,0.2032470703125,-0.00286865234375
1776444524241770000,8.09677001953125,-0.9195709228515625,0.20159912109375,-0.2115631103515625
1776444524266788000,8.1217880859375,-1.001373291015625,-0.0511932373046875,0.0487213134765625
1776444524291807000,8.146806884765626,-1.079681396484375,0.0301513671875,0.0933990478515625
1776444524316824800,8.171824951171875,-0.9781494140625,0.1208648681640625,0.1676025390625
1776444524341843000,8.196843017578125,-0.9136505126953125,0.132598876953125,0.0771636962890625
1776444524366861000,8.221861083984376,-1.023895263671875,0.030517578125,0.075958251953125
1776444524391880000,8.2468798828125,-1.0089263916015625,0.0272979736328125,0.0818634033203125
1776444524416898000,8.27189794921875,-1.01275634765625,0.026580810546875,0.0712432861328125
1776444524441916000,8.296916015625,-1.006011962890625,-0.0147247314453125,0.02996826171875
1776444524466935000,8.32193505859375,-0.9705963134765625,0.0055999755859375,0.0184783935546875
1776444524491953000,8.346952880859375,-1.076202392578125,-0.062347412109375,0.0604095458984375
1776444524516971000,8.371970947265625,-0.94525146484375,-0.0005340576171875,0.052490234375
1776444524541990100,8.396990234375,-1.066070556640625,-0.0009002685546875,0.0082550048828125
1776444524567008000,8.422008056640625,-0.9804534912109375,0.030853271484375,0.0694122314453125
1776444524592026000,8.447026123046875,-1.033966064453125,0.0921630859375,0.1227874755859375
1776444524617045000,8.472044921875,-0.9755706787109375,0.058807373046875,0.1038055419921875
1776444524642062800,8.497062744140624,-1.043121337890625,0.0640106201171875,0.03857421875
1776444524667081200,8.522081298828125,-1.0329132080078125,0.04217529296875,0.002044677734375
1776444524692100000,8.54710009765625,-0.9443206787109375,0.0885467529296875,0.0333099365234375
1776444524717118000,8.572117919921874,-1.083251953125,-0.175689697265625,0.038665771484375
1776444524742136000,8.597135986328125,-0.962432861328125,0.127960205078125,0.03900146484375
1776444524767154000,8.62215380859375,-0.9896087646484375,0.00115966796875,0.048858642578125
1776444524792172800,8.6471728515625,-0.953216552734375,0.1173095703125,0.0829010009765625
1776444524817191200,8.672191162109375,-1.0323486328125,-0.014434814453125,0.01617431640625
1776444524842209000,8.697208984375,-0.9610595703125,0.058349609375,0.096923828125
1776444524867228000,8.722227783203126,-1.0224609375,-0.0298614501953125,0.2185516357421875
1776444524892246000,8.74724609375,-0.9929962158203125,-0.1667938232421875,0.150726318359375
1776444524917264000,8.772263916015625,-1.0072784423828125,-0.1892242431640625,0.172607421875
1776444524942283000,8.797282958984376,-0.949920654296875,-0.1704254150390625,0.1431121826171875
1776444524967300900,8.82230078125,-0.98876953125,-0.106414794921875,0.000457763671875
1776444524992319200,8.8473193359375,-0.9334716796875,-0.0041046142578125,-0.165496826171875
1776444525017337000,8.872337158203125,-1.0114593505859375,-0.0998687744140625,-0.15814208984375
1776444525042356000,8.89735595703125,-0.960968017578125,-0.1457672119140625,-0.22454833984375
1776444525067374000,8.9223740234375,-0.9233551025390625,-0.1035614013671875,-0.142913818359375
1776444525092392000,8.947391845703125,-0.908294677734375,-0.0749359130859375,0.0668182373046875
1776444525117410800,8.972410888671876,-0.9010009765625,-0.1403961181640625,0.2465057373046875
1776444525142429000,8.997428955078124,-0.91094970703125,-0.2385101318359375,0.289093017578125
1776444525167446800,9.02244677734375,-0.9469451904296875,-0.1894378662109375,0.3039703369140625
1776444525192465700,9.047465576171875,-0.94677734375,-0.1651458740234375,0.324951171875
1776444525217484000,9.072484130859374,-1.01251220703125,-0.1629638671875,0.29705810546875
1776444525242502000,9.097501953125,-0.934356689453125,-0.275848388671875,0.3325653076171875
1776444525267520000,9.12252001953125,-0.9576568603515625,-0.2244873046875,0.35137939453125
1776444525292539000,9.147538818359376,-0.9936065673828125,-0.1785125732421875,0.3211822509765625
1776444525317556700,9.172556640625,-1.03656005859375,-0.1389923095703125,0.301025390625
1776444525342574800,9.197574951171875,-0.9844970703125,-0.1691131591796875,0.3858184814453125
1776444525367593700,9.22259375,-1.0269012451171875,-0.1140289306640625,0.5090789794921875
1776444525392612000,9.247612060546874,-1.0321044921875,-0.113372802734375,0.4184417724609375
1776444525417630000,9.2726298828125,-1.044525146484375,0.1532440185546875,-0.176177978515625
1776444525442647800,9.297647705078125,-1.0355377197265625,0.0762176513671875,0.005096435546875
1776444525467667000,9.3226669921875,-1.0142669677734375,0.025146484375,0.1024932861328125
1776444525492684800,9.347684814453125,-0.984130859375,0.02783203125,0.1578826904296875
1776444525517703000,9.372702880859375,-0.91015625,-0.2105255126953125,-0.069580078125
1776444525542722000,9.39772216796875,-0.7909698486328125,0.0545806884765625,-0.031951904296875
1776444525567740000,9.422739990234374,-0.9485321044921875,0.09954833984375,-0.12176513671875
1776444525592758000,9.447758056640625,-0.9266510009765625,0.04217529296875,0.018463134765625
1776444525617775900,9.47277587890625,-0.97210693359375,-0.046234130859375,-0.090087890625
1776444525642794800,9.497794677734374,-0.9254913330078125,-0.01953125,-0.031463623046875
1776444525667812900,9.522812744140625,-0.9288482666015625,0.0910491943359375,0.1175384521484375
1776444525692830700,9.547830810546875,-0.8415679931640625,0.2701416015625,0.0390777587890625
1776444525717849900,9.572849853515624,-0.8347320556640625,0.0319976806640625,0.1485137939453125
1776444525742868000,9.597867919921875,-0.821319580078125,0.040435791015625,0.049163818359375
1776444525767885800,9.6228857421875,-0.956573486328125,-0.028656005859375,-0.04766845703125
1776444525792904000,9.647904052734376,-1.048370361328125,-0.1900787353515625,-0.212921142578125
1776444525817922800,9.6729228515625,-1.13262939453125,-0.2746734619140625,-0.177581787109375
1776444525842941000,9.69794091796875,-1.134674072265625,-0.2798614501953125,-0.0310821533203125
1776444525867958800,9.722958740234375,-1.0864410400390625,-0.1968841552734375,0.3594970703125
1776444525892978000,9.74797802734375,-1.09210205078125,-0.1061553955078125,0.17022705078125
1776444525917996000,9.77299609375,-1.09051513671875,-0.1018218994140625,0.1065216064453125
1776444525943014000,9.798013916015625,-1.0949859619140625,-0.1302642822265625,0.2593536376953125
1776444525968032000,9.823031982421876,-1.062225341796875,-0.115936279296875,0.3699493408203125
1776444525993051000,9.84805078125,-1.0529022216796875,-0.100372314453125,0.363983154296875
1776444526018068700,9.87306884765625,-1.05902099609375,-0.0540924072265625,0.389434814453125
1776444526043086800,9.8980869140625,-1.042449951171875,-0.0346527099609375,0.3572998046875
1776444526068105000,9.92310498046875,-1.0140380859375,0.0018463134765625,0.27801513671875
1776444526093123800,9.948123779296875,-0.9842681884765625,0.0157470703125,0.258758544921875
1776444526118142000,9.973141845703125,-0.9437255859375,0.053985595703125,0.2814483642578125
1776444526143160600,9.99816064453125,-0.9060211181640625,0.073211669921875,0.2975006103515625
1776444526168179700,10.0231796875,-0.8931884765625,0.04095458984375,0.270751953125
1776444526193197800,10.04819775390625,-0.9739532470703125,0.0285186767578125,-0.0052490234375
1776444526218215700,10.073215576171876,-1.0138397216796875,-0.0655670166015625,0.0535736083984375
1776444526243233800,10.09823388671875,-1.0573272705078125,-0.0296630859375,0.08477783203125
1776444526268252700,10.123252685546875,-1.0450439453125,0.1160888671875,0.0570526123046875
1776444526293270500,10.1482705078125,-0.987060546875,0.1027069091796875,0.00372314453125
1776444526318288600,10.17328857421875,-0.8908843994140625,-0.0764923095703125,-0.061248779296875
1776444526343306500,10.198306396484375,-0.89935302734375,-0.0048675537109375,-0.0091705322265625
1776444526368325600,10.22332568359375,-0.9283447265625,-0.0331268310546875,0.0920867919921875
1776444526393343700,10.24834375,-0.9542999267578125,-0.1611480712890625,0.216705322265625
1776444526418361600,10.273361572265625,-0.9621124267578125,-0.1253814697265625,0.2216796875
1776444526443379700,10.298379638671875,-0.9220123291015625,-0.0997772216796875,0.107391357421875
1776444526468398600,10.323398681640626,-0.95166015625,-0.1066741943359375,0.045440673828125
1776444526493416400,10.34841650390625,-1.00390625,-0.0964508056640625,0.04254150390625
1776444526518434600,10.3734345703125,-0.9925384521484375,-0.1678924560546875,-0.0642547607421875
1776444526543452700,10.39845263671875,-1.0082244873046875,-0.1266937255859375,-0.0302734375
1776444526568471600,10.423471435546874,-0.981964111328125,-0.1330108642578125,-0.1363525390625
1776444526593489700,10.44848974609375,-1.000091552734375,-0.1944427490234375,-0.202301025390625
1776444526618507500,10.473507568359375,-0.991485595703125,-0.271087646484375,-0.184722900390625
1776444526643525600,10.498525634765626,-0.9530792236328125,-0.1749420166015625,-0.0175933837890625
1776444526668544500,10.52354443359375,-0.8917236328125,-0.237518310546875,0.1312103271484375
1776444526693562600,10.548562744140625,-0.8916015625,-0.237701416015625,0.133941650390625
1776444526718580700,10.573580810546876,-0.89727783203125,-0.0836944580078125,0.10174560546875
1776444526743598600,10.5985986328125,-0.9941558837890625,0.0100555419921875,0.2132720947265625
1776444526768617700,10.62361767578125,-1.06744384765625,-0.074066162109375,0.3786468505859375
1776444526793635600,10.648635498046875,-1.116912841796875,-0.1828155517578125,0.387115478515625
1776444526818653700,10.67365380859375,-1.11834716796875,-0.3339385986328125,0.1737518310546875
1776444526843671600,10.698671630859375,-1.1884613037109375,-0.3258514404296875,0.0047607421875
1776444526868690700,10.723690673828125,-1.16949462890625,-0.237823486328125,-0.097442626953125
1776444526893708800,10.748708740234376,-1.1510467529296875,-0.180694580078125,-0.173980712890625
1776444526918726700,10.7737265625,-1.128204345703125,-0.1526641845703125,-0.199920654296875
1776444526943744800,10.798744873046875,-1.0848541259765625,-0.321044921875,-0.2651824951171875
1776444526968763600,10.823763671875,-1.0584564208984375,-0.2246551513671875,-0.333099365234375
1776444526993781500,10.848781494140624,-1.0262603759765625,-0.076934814453125,-0.330352783203125
1776444527018799600,10.873799560546875,-0.947021484375,-0.1167755126953125,-0.2812042236328125
1776444527043817500,10.8988173828125,-0.9618377685546875,-0.1140594482421875,-0.2271575927734375
1776444527068836600,10.923836669921876,-0.9360504150390625,-0.14337158203125,-0.25732421875
1776444527093854700,10.948854736328125,-0.9391021728515625,-0.0750885009765625,-0.2891845703125
1776444527118872600,10.97387255859375,-0.927886962890625,-0.0662689208984375,-0.2595977783203125
1776444527143890400,10.998890380859375,-0.89080810546875,0.1413116455078125,-0.165130615234375
1776444527168909300,11.023909423828124,-0.7835540771484375,0.1519012451171875,-0.1293792724609375
1776444527193927200,11.04892724609375,-0.8994293212890625,0.1142120361328125,0.1357269287109375
1776444527218945300,11.0739453125,-1.04193115234375,-0.0186767578125,0.231903076171875
1776444527243963100,11.098963134765626,-0.8582763671875,0.0300445556640625,0.179107666015625
1776444527268982500,11.123982421875,-0.8839874267578125,0.278106689453125,0.317535400390625
1776444527294000400,11.14900048828125,-0.8918914794921875,0.1539764404296875,0.3184967041015625
1776444527319018200,11.174018310546876,-0.9391632080078125,0.08599853515625,0.122955322265625
1776444527344036400,11.199036376953124,-0.9228515625,0.0922698974609375,-0.142181396484375
1776444527369055200,11.22405517578125,-0.919158935546875,-0.068817138671875,-0.310638427734375
1776444527394073300,11.2490732421875,-0.9387969970703125,-0.0526275634765625,-0.2423248291015625
1776444527419091200,11.27409130859375,-1.0172119140625,-0.03582763671875,-0.13006591796875
1776444527444109300,11.299109375,-1.05072021484375,0.0885772705078125,-0.0967864990234375
1776444527469127400,11.32412744140625,-1.0114593505859375,-0.0029296875,-0.249420166015625
1776444527494146300,11.349146240234376,-1.06121826171875,-0.114013671875,-0.116729736328125
1776444527519164400,11.374164306640624,-1.0658416748046875,0.064605712890625,-0.020721435546875
1776444527544182300,11.399182373046875,-1.0257415771484375,0.05828857421875,-0.046478271484375
1776444527569200400,11.424200439453125,-1.02508544921875,-0.132598876953125,-0.0479278564453125
1776444527594219500,11.449219482421874,-1.0545654296875,0.1014556884765625,0.123321533203125
1776444527619237400,11.4742373046875,-0.97998046875,0.0330352783203125,0.1242218017578125
1776444527644255500,11.49925537109375,-0.9024505615234375,-0.0249481201171875,-0.0193328857421875
1776444527669273300,11.5242734375,-0.871917724609375,-0.0205230712890625,0.1939849853515625
1776444527694292200,11.549292236328125,-1.140533447265625,-0.1288604736328125,0.491790771484375
1776444527719310300,11.574310302734375,-1.091339111328125,-0.1668243408203125,0.432373046875
1776444527744328200,11.599328125,-0.91571044921875,-0.1352081298828125,0.2656707763671875
1776444527769346300,11.62434619140625,-0.8245391845703125,-0.2270965576171875,0.2069854736328125
1776444527794364400,11.649364501953125,-0.924285888671875,-0.224151611328125,0.2991943359375
1776444527819383300,11.67438330078125,-0.8848419189453125,-0.083221435546875,0.0655670166015625
1776444527844401400,11.6994013671875,-0.9287567138671875,-0.07574462890625,0.0064239501953125
1776444527869419300,11.724419189453124,-1.0574493408203125,-0.16046142578125,0.1175079345703125
1776444527894437400,11.749437255859375,-1.2407379150390625,-0.110198974609375,0.0301513671875
1776444527919456300,11.774456298828126,-1.06201171875,-0.1059417724609375,0.253631591796875
1776444527944474400,11.799474365234374,-1.0259857177734375,-0.12994384765625,0.272125244140625
1776444527969492500,11.824492431640625,-0.99176025390625,-0.226348876953125,0.1616668701171875
1776444527994510300,11.84951025390625,-0.9025115966796875,-0.0653076171875,0.0951080322265625
1776444528019528400,11.874528564453126,-0.84625244140625,-0.0363006591796875,0.12371826171875
1776444528044547300,11.89954736328125,-0.9344940185546875,0.0146026611328125,0.0297698974609375
1776444528069565200,11.924565185546875,-1.0068817138671875,-0.0822601318359375,0.0586090087890625
1776444528094583300,11.949583251953126,-1.09466552734375,-0.1781463623046875,0.11456298828125
1776444528119601200,11.97460107421875,-1.01995849609375,-0.041656494140625,0.07073974609375
1776444528144623000,11.999623046875,-1.0031890869140625,0.0448455810546875,-0.0043792724609375
1776444528169642200,12.024642333984374,-1.021697998046875,0.0569305419921875,-0.0591583251953125
1776444528194660000,12.04966015625,-1.0065460205078125,0.0100250244140625,-0.168182373046875
1776444528219678200,12.07467822265625,-0.98504638671875,-0.091400146484375,-0.181732177734375
1776444528244696000,12.099696044921876,-1.01434326171875,-0.0865325927734375,-0.198699951171875
1776444528269715000,12.12471484375,-0.99188232421875,-0.0407562255859375,-0.244110107421875
1776444528294733000,12.149733154296875,-0.94390869140625,-0.0303192138671875,-0.24871826171875
1776444528319751000,12.1747509765625,-0.9640655517578125,-0.0234375,-0.239349365234375
1776444528344769000,12.19976904296875,-0.9574432373046875,-0.0807647705078125,-0.2270965576171875
1776444528369787000,12.224786865234375,-0.97442626953125,-0.04522705078125,-0.1733856201171875
1776444528394806300,12.24980615234375,-1.0063018798828125,-0.172271728515625,0.058319091796875
1776444528419824000,12.27482421875,-1.0485992431640625,-0.096435546875,0.0038909912109375
1776444528444842000,12.299842041015625,-0.9771575927734375,-0.1320953369140625,0.08990478515625
1776444528469860000,12.324860107421875,-1.061431884765625,-0.186859130859375,-0.0114288330078125
1776444528494878000,12.3498779296875,-1.062255859375,-0.165069580078125,0.12554931640625
1776444528519897000,12.37489697265625,-1.00439453125,-0.030029296875,0.2831268310546875
1776444528544915200,12.399915283203125,-0.8701324462890625,-0.0187530517578125,0.2189483642578125
1776444528569933000,12.42493310546875,-0.892486572265625,-0.1249237060546875,0.1285400390625
1776444528594951200,12.449951171875,-0.8699493408203125,-0.13153076171875,0.2049713134765625
1776444528619969000,12.474968994140625,-0.9279022216796875,-0.096282958984375,0.2191314697265625
1776444528644988200,12.49998828125,-0.909881591796875,-0.047454833984375,0.264373779296875
1776444528670006000,12.525006103515626,-0.9077911376953125,0.003814697265625,0.282806396484375
1776444528695024000,12.550024169921874,-0.90765380859375,-0.0197601318359375,0.3498687744140625
1776444528720042000,12.5750419921875,-0.9423675537109375,-0.0520477294921875,0.3469696044921875
1776444528745060000,12.60006005859375,-1.00408935546875,-0.02484130859375,0.3636322021484375
1776444528770079200,12.625079345703124,-0.9963226318359375,0.03192138671875,0.3529510498046875
1776444528795097000,12.65009716796875,-0.947540283203125,0.03338623046875,0.3760833740234375
1776444528820115200,12.675115234375,-1.0087890625,-0.05023193359375,0.3838043212890625
1776444528845133000,12.700133056640626,-0.9980621337890625,0.0167236328125,0.33587646484375
1776444528870151200,12.725151123046874,-0.98236083984375,-0.007232666015625,0.3892974853515625
1776444528895170000,12.750170166015625,-0.965850830078125,-0.127105712890625,0.2973785400390625
1776444528920188200,12.775188232421876,-0.9351959228515625,-0.063323974609375,0.35247802734375
1776444528945206300,12.800206298828124,-0.9493865966796875,-0.039459228515625,0.3085784912109375
1776444528970224000,12.82522412109375,-1.108489990234375,-0.050201416015625,0.20025634765625
1776444528995242200,12.8502421875,-1.01708984375,-0.020233154296875,0.173553466796875
1776444529020261000,12.87526123046875,-1.1073150634765625,-0.0294647216796875,0.14141845703125
1776444529045279000,12.900279052734374,-1.1098480224609375,0.019134521484375,0.2906951904296875
1776444529070297000,12.925297119140625,-0.9987335205078125,-0.035919189453125,0.29595947265625
1776444529095315000,12.95031494140625,-1.0363922119140625,-0.047027587890625,0.2666015625
1776444529120333300,12.975333251953124,-0.9547119140625,-0.172637939453125,0.16357421875
1776444529145347000,13.00034716796875,-0.9129180908203125,-0.3671875,0.2119293212890625
1776444529170366200,13.0253662109375,-0.9687347412109375,-0.323272705078125,0.0079803466796875
1776444529195384300,13.05038427734375,-0.9702606201171875,-0.3451080322265625,0.0324249267578125
1776444529220402200,13.075402099609375,-0.8561248779296875,-0.268463134765625,0.06219482421875
1776444529245420300,13.100420166015626,-0.883575439453125,-0.260284423828125,0.0535125732421875
1776444529270438100,13.125438232421875,-0.92120361328125,-0.2272796630859375,0.00506591796875
1776444529295457000,13.15045703125,-0.98846435546875,-0.241851806640625,-0.1367645263671875
1776444529320475100,13.17547509765625,-0.96240234375,-0.203704833984375,-0.0525665283203125
1776444529345493200,13.2004931640625,-0.9561920166015625,-0.1649627685546875,0.1394500732421875
1776444529370511400,13.225511474609375,-0.9525299072265625,-0.0489654541015625,0.2165679931640625
1776444529395529200,13.250529296875,-0.9310455322265625,-0.0708770751953125,0.164764404296875
1776444529420547300,13.27554736328125,-0.9677734375,-0.107879638671875,0.107147216796875
1776444529445566200,13.300566162109375,-0.93048095703125,-0.216827392578125,0.1284332275390625
1776444529470584000,13.325583984375,-0.889190673828125,-0.339141845703125,0.1400146484375
1776444529495602200,13.350602294921876,-1.050994873046875,-0.2152099609375,0.1417694091796875
1776444529520620000,13.3756201171875,-0.9580535888671875,-0.2945709228515625,0.17791748046875
1776444529545638400,13.400638427734375,-0.9985504150390625,-0.2703704833984375,0.213653564453125
1776444529570656300,13.42565625,-0.9535064697265625,-0.311798095703125,0.2585601806640625
1776444529595675100,13.450675048828124,-0.95733642578125,-0.2964935302734375,0.255706787109375
1776444529620693200,13.475693359375,-0.978668212890625,-0.2932586669921875,0.1824188232421875
1776444529645711000,13.500711181640625,-0.881195068359375,-0.284912109375,0.1395721435546875
1776444529670729200,13.525729248046876,-0.9203338623046875,-0.2688446044921875,0.172882080078125
1776444529695747000,13.5507470703125,-1.0472412109375,-0.1897125244140625,0.1672515869140625
1776444529720766200,13.57576611328125,-0.9481964111328125,-0.123870849609375,0.1634063720703125
1776444529745784300,13.600784423828125,-1.1743927001953125,0.4482574462890625,-0.400421142578125
1776444529770802200,13.62580224609375,-0.95550537109375,-0.0078277587890625,-0.1558837890625
1776444529795820300,13.6508203125,-0.976287841796875,-0.14654541015625,-0.016876220703125
1776444529820838100,13.675838134765625,-0.948089599609375,-0.119354248046875,-0.0990447998046875
1776444529845856300,13.700856201171876,-0.9250946044921875,-0.05645751953125,-0.0522613525390625
1776444529870875100,13.725875244140624,-0.997955322265625,-0.0194091796875,-0.0511932373046875
1776444529895893200,13.750893310546875,-1.009613037109375,-0.0930328369140625,0.0877838134765625
1776444529920911400,13.775911376953125,-0.916412353515625,-0.1207275390625,0.1095123291015625
1776444529945929200,13.80092919921875,-0.8802947998046875,-0.08319091796875,0.0413360595703125
1776444529970947300,13.825947265625,-0.9319000244140625,-0.002716064453125,-0.023712158203125
1776444529995965200,13.850965087890625,-0.9661407470703125,-0.0558319091796875,-0.0458221435546875
1776444530020983300,13.8759833984375,-0.963775634765625,-0.081146240234375,-0.0135955810546875
1776444530046002200,13.901002197265624,-1.0684814453125,-0.0751495361328125,0.0582122802734375
1776444530071020000,13.92602001953125,-1.0334930419921875,-0.109466552734375,0.172637939453125
1776444530096038100,13.9510380859375,-1.048736572265625,-0.0767669677734375,0.149688720703125
1776444530121056300,13.97605615234375,-0.988616943359375,-0.08404541015625,0.176544189453125
1776444530146074600,14.00107470703125,-1.0460662841796875,-0.115264892578125,0.1508026123046875
1776444530171092500,14.026092529296875,-1.071685791015625,-0.1808929443359375,0.0028076171875
1776444530196111600,14.051111572265626,-1.0608978271484375,-0.1607513427734375,-0.01416015625
1776444530221129700,14.076129638671874,-1.034820556640625,-0.0983428955078125,-0.011993408203125
1776444530246147600,14.101147705078125,-0.9918670654296875,-0.057403564453125,-0.0422210693359375
1776444530271165700,14.126165771484375,-0.936431884765625,-0.0877532958984375,0.00244140625
1776444530296183600,14.15118359375,-0.916656494140625,-0.086669921875,0.1131439208984375
1776444530321201700,14.17620166015625,-0.9413909912109375,-0.135223388671875,0.084625244140625
1776444530346220500,14.201220458984375,-0.9325714111328125,-0.0395355224609375,0.0854644775390625
1776444530371238700,14.22623876953125,-0.9282379150390625,-0.031494140625,0.1827239990234375
1776444530396256800,14.2512568359375,-0.947601318359375,-0.046173095703125,0.2581024169921875
1776444530421274600,14.276274658203125,-0.9779510498046875,-0.0985870361328125,0.283355712890625
1776444530446292700,14.301292724609375,-0.9927825927734375,-0.1128692626953125,0.291229248046875
1776444530471310600,14.326310546875,-1.0036773681640625,-0.0933380126953125,0.3539886474609375
1776444530496328700,14.35132861328125,-0.9931640625,-0.0745391845703125,0.4293060302734375
1776444530521347600,14.37634765625,-0.98895263671875,-0.0699462890625,0.4190826416015625
1776444530546365400,14.401365478515626,-1.0008544921875,-0.004638671875,0.405914306640625
1776444530571383600,14.426383544921874,-0.99212646484375,0.0042266845703125,0.395599365234375
1776444530596401700,14.451401611328125,-0.9790496826171875,0.0379486083984375,0.375518798828125
1776444530621419800,14.476419677734375,-0.970428466796875,0.043548583984375,0.3544921875
1776444530646437600,14.501437744140626,-0.982086181640625,-0.003173828125,0.3672332763671875
1776444530671455700,14.526455810546874,-0.990753173828125,-0.0033111572265625,0.3907012939453125
1776444530696474600,14.551474609375,-0.9668731689453125,-0.027923583984375,0.358917236328125
1776444530721492500,14.576492431640625,-0.95709228515625,-0.0318603515625,0.3558197021484375
1776444530746510600,14.601510498046874,-0.9459991455078125,-0.0122833251953125,0.3503265380859375
1776444530771528400,14.626528564453125,-0.987579345703125,0.00335693359375,0.1666259765625
1776444530796546800,14.651546875,-1.033721923828125,0.006744384765625,-0.1863861083984375
1776444530821564700,14.676564697265626,-1.0338897705078125,-0.10498046875,0.05535888671875
1776444530846582500,14.70158251953125,-1.08966064453125,-0.0635223388671875,-0.0077056884765625
1776444530871601700,14.7266015625,-1.1146697998046875,-0.0049896240234375,0.0079498291015625
1776444530896619500,14.75161962890625,-1.0685272216796875,0.01434326171875,-0.036865234375
1776444530921637600,14.7766376953125,-0.9948883056640625,-0.0250701904296875,-0.0761566162109375
1776444530946655500,14.801655517578125,-0.9363250732421875,-0.008758544921875,-0.021759033203125
1776444530971673600,14.826673583984375,-0.92303466796875,-0.0218658447265625,-0.0020751953125
1776444530996691700,14.851691650390626,-0.886322021484375,-0.0605926513671875,-0.0039215087890625
1776444531021709600,14.87670947265625,-0.942626953125,-0.1055755615234375,0.068206787109375
1776444531046728700,14.901728759765625,-0.9538726806640625,-0.1548309326171875,0.12213134765625
1776444531071746600,14.92674658203125,-0.978912353515625,-0.1007232666015625,0.0257415771484375
1776444531096764700,14.9517646484375,-1.0226593017578125,-0.0963134765625,0.002899169921875
1776444531121782500,14.976782470703125,-1.03826904296875,-0.0835418701171875,-0.014495849609375
1776444531146804000,15.001803955078126,-1.017608642578125,-0.054107666015625,-0.1445465087890625
1776444531171822000,15.026822021484374,-0.9608917236328125,-0.1282806396484375,-0.14874267578125
1776444531196840000,15.05183984375,-0.981597900390625,-0.160552978515625,-0.1277313232421875
1776444531221858000,15.076858154296875,-0.996337890625,-0.2124481201171875,-0.1437835693359375
1776444531246877000,15.101876953125,-0.9763031005859375,-0.1889495849609375,-0.1522979736328125
1776444531271895000,15.12689501953125,-0.945220947265625,-0.09320068359375,-0.1126708984375
1776444531296913000,15.151912841796875,-0.923919677734375,-0.072357177734375,-0.0690460205078125
1776444531321931000,15.176930908203126,-0.9663848876953125,0.0209503173828125,-0.0408782958984375
1776444531346948900,15.201948974609374,-0.91693115234375,-0.0062103271484375,-0.1076507568359375
1776444531371967000,15.226967041015625,-0.903076171875,-0.0293426513671875,0.058746337890625
1776444531396985000,15.251985107421875,-1.008148193359375,-0.0604095458984375,0.1211700439453125
1776444531422003000,15.2770029296875,-0.94378662109375,-0.25244140625,0.1847991943359375
1776444531447022000,15.30202197265625,-0.9347076416015625,-0.244720458984375,0.11474609375
1776444531472040000,15.3270400390625,-1.045989990234375,-0.1554718017578125,0.0410308837890625
1776444531497057800,15.352057861328126,-1.073577880859375,-0.281524658203125,0.1135101318359375
1776444531522076000,15.377075927734374,-1.0245513916015625,-0.08172607421875,0.243072509765625
1776444531547093800,15.40209375,-1.0758514404296875,0.025909423828125,0.3833770751953125
1776444531572112100,15.427112060546875,-1.1128082275390625,-0.117645263671875,0.3556060791015625
1776444531597130000,15.4521298828125,-1.028717041015625,-0.201934814453125,0.2906646728515625
1776444531622148000,15.477148193359374,-0.961181640625,-0.2654876708984375,0.2535247802734375
1776444531647167000,15.5021669921875,-0.895172119140625,-0.21343994140625,0.2067108154296875
1776444531672184800,15.527184814453125,-0.9128875732421875,0.02117919921875,0.1334991455078125
1776444531697203000,15.552202880859374,-0.91583251953125,-0.083465576171875,0.150848388671875
1776444531722220800,15.577220703125,-0.9829254150390625,-0.1580963134765625,0.2344818115234375
1776444531747239000,15.602239013671875,-0.8709564208984375,-0.3175811767578125,0.0822601318359375
1776444531772256800,15.6272568359375,-1.0178070068359375,-0.042633056640625,-0.03131103515625
1776444531797275100,15.652275146484374,-0.9762115478515625,-0.18353271484375,-0.102294921875
1776444531822293000,15.67729296875,-1.017425537109375,-0.0904083251953125,-0.019378662109375
1776444531847311000,15.70231103515625,-1.044097900390625,-0.0403289794921875,-0.00482177734375
1776444531872330000,15.727330078125,-1.0247039794921875,-0.2281951904296875,-0.1734466552734375
1776444531897347800,15.752347900390625,-1.1067047119140625,-0.1279296875,-0.2287139892578125
1776444531922366000,15.777365966796875,-1.0628814697265625,-0.26910400390625,-0.1501007080078125
1776444531947383800,15.8023837890625,-1.110992431640625,-0.0886383056640625,-0.0359649658203125
1776444531972402000,15.82740185546875,-1.0843963623046875,-0.053924560546875,-0.0266571044921875
1776444531997420000,15.852419921875,-1.0447845458984375,-0.1016082763671875,0.0308380126953125
1776444532022438100,15.877438232421875,-0.993377685546875,-0.1468658447265625,0.030487060546875
1776444532047456000,15.9024560546875,-1.0008697509765625,-0.0005340576171875,-0.0572509765625
1776444532072474000,15.92747412109375,-0.9907684326171875,-0.182342529296875,-0.0036773681640625
1776444532097493000,15.952492919921875,-0.987762451171875,-0.1118927001953125,-0.0440673828125
1776444532122510800,15.9775107421875,-1.0029296875,-0.032196044921875,-0.1177978515625
1776444532147524900,16.00252490234375,-0.976043701171875,-0.08843994140625,-0.0180511474609375
1776444532172542700,16.027542724609376,-0.9686279296875,0.0451507568359375,0.1270599365234375
1776444532197560800,16.052560791015626,-0.8995361328125,0.106170654296875,0.306121826171875
1776444532222578700,16.07757861328125,-1.040771484375,-0.2726898193359375,0.044708251953125
1776444532247597000,16.10259716796875,-0.8726043701171875,-0.2503204345703125,0.172027587890625
1776444532272615000,16.127614990234374,-0.9677276611328125,-0.18292236328125,0.028594970703125
1776444532297633000,16.152633056640624,-0.914398193359375,-0.010162353515625,-0.175537109375
1776444532322651000,16.17765087890625,-0.9137115478515625,-0.1031494140625,-0.1955108642578125
1776444532347669800,16.202669677734374,-0.9859161376953125,-0.0234222412109375,-0.2388458251953125
1776444532372688000,16.22768798828125,-1.07220458984375,0.100738525390625,-0.070068359375
1776444532397705700,16.252705810546875,-1.4087066650390625,-0.3896331787109375,-0.144989013671875
1776444532422723800,16.277723876953125,-1.207611083984375,-0.1763458251953125,-0.0393829345703125
1776444532447742000,16.302741943359376,-0.9459686279296875,0.0864105224609375,-0.0172119140625
1776444532472760000,16.327760009765626,-0.9119110107421875,0.0393524169921875,-0.0765380859375
1776444532497778000,16.35277783203125,-0.875396728515625,0.001556396484375,-0.095062255859375
1776444532522796000,16.377796142578124,-0.913665771484375,-0.040313720703125,0.0329742431640625
1776444532547814000,16.40281396484375,-1.0402374267578125,-0.2532958984375,-0.0218505859375
1776444532572831700,16.427831787109376,-0.9185333251953125,0.0753326416015625,-0.2240142822265625
1776444532597851000,16.452850830078123,-0.9662628173828125,0.0637969970703125,-0.2933349609375
1776444532622868700,16.47786865234375,-0.9687957763671875,0.030731201171875,-0.1573638916015625
1776444532647887000,16.50288720703125,-0.985321044921875,-0.13262939453125,-0.11572265625
1776444532672905000,16.527905029296875,-0.939727783203125,-0.1175079345703125,-0.114990234375
1776444532697923000,16.552923095703125,-0.91064453125,-0.0384063720703125,-0.0938873291015625
1776444532722941000,16.57794091796875,-0.984039306640625,-0.087646484375,-0.0916290283203125
1776444532747958800,16.602958740234374,-1.0656890869140625,-0.245697021484375,0.1040802001953125
1776444532772977000,16.627976806640625,-0.9249114990234375,-0.2601470947265625,0.2159423828125
1776444532797994800,16.652994873046875,-0.9299774169921875,-0.2105712890625,0.1361541748046875
1776444532823012900,16.678012939453126,-0.857330322265625,-0.0946044921875,0.111328125
1776444532848030700,16.70303076171875,-0.9433746337890625,-0.1209564208984375,0.1187744140625
1776444532873049900,16.7280498046875,-0.8853302001953125,-0.037384033203125,0.0665740966796875
1776444532898068000,16.75306787109375,-0.9990997314453125,-0.039398193359375,0.0498199462890625
1776444532923085800,16.7780859375,-0.9530181884765625,-0.0752716064453125,-0.0517120361328125
1776444532948104000,16.80310400390625,-1.0331268310546875,-0.0375823974609375,-0.080322265625
1776444532973121800,16.828121826171873,-1.0699920654296875,-0.03448486328125,-0.1165924072265625
1776444532998140000,16.853139892578124,-1.0177001953125,-0.0718536376953125,-0.1113128662109375
1776444533023157800,16.87815771484375,-1.0308837890625,-0.072296142578125,-0.0964202880859375
1776444533048175900,16.90317578125,-0.9985809326171875,0.0005340576171875,-0.0932464599609375
1776444533073193700,16.92819384765625,-1.0105438232421875,-0.016204833984375,-0.0836944580078125
1776444533098211800,16.9532119140625,-1.0295562744140625,0.021575927734375,-0.0367431640625
1776444533123230000,16.97822998046875,-1.0236663818359375,0.046173095703125,0.033050537109375
1776444533148252000,17.003251953125,-1.0691986083984375,0.0886993408203125,-0.029541015625
1776444533173270000,17.02827001953125,-1.0661163330078125,0.1489410400390625,-0.1633758544921875
1776444533198289000,17.053288818359373,-1.0794677734375,0.09716796875,-0.195831298828125
1776444533223307000,17.07830712890625,-1.082061767578125,0.03582763671875,-0.07562255859375
1776444533248325000,17.1033251953125,-1.0868988037109375,0.1070404052734375,-0.0597076416015625
1776444533273343000,17.128343017578125,-1.0309295654296875,0.0849609375,-0.1129302978515625
1776444533298361000,17.153361083984375,-0.989349365234375,0.0542144775390625,-0.199798583984375
1776444533323379000,17.17837890625,-1.070220947265625,0.0311737060546875,-0.205413818359375
1776444533348397000,17.20339697265625,-1.0463714599609375,-0.0532379150390625,-0.1897125244140625
1776444533373415000,17.228414794921875,-1.0109405517578125,-0.11767578125,-0.2538909912109375
1776444533398433000,17.25343310546875,-0.94476318359375,-0.093658447265625,-0.1619873046875
1776444533423451000,17.278450927734376,-0.9436187744140625,-0.033111572265625,-0.0578765869140625
1776444533448469000,17.303468994140626,-0.9893035888671875,-0.0691375732421875,-0.070648193359375
1776444533473486800,17.32848681640625,-0.99700927734375,0.010345458984375,-0.102874755859375
1776444533498505200,17.353505126953124,-0.96697998046875,0.0767822265625,-0.1191558837890625
1776444533523524000,17.378524169921874,-0.9333953857421875,0.10479736328125,0.0265655517578125
1776444533548542000,17.4035419921875,-0.9257659912109375,0.024200439453125,0.14703369140625
1776444533573560000,17.42856005859375,-1.0395050048828125,-0.0008392333984375,0.10858154296875
1776444533598578000,17.453577880859374,-1.04974365234375,0.0887451171875,0.0667266845703125
1776444533623596000,17.478595947265624,-1.0368194580078125,0.049163818359375,0.0870208740234375
1776444533648614000,17.50361376953125,-1.0420989990234375,0.041046142578125,0.0807647705078125
1776444533673632000,17.528632080078125,-1.0714263916015625,0.0317535400390625,0.032470703125
1776444533698650000,17.553650146484376,-1.071014404296875,0.0300140380859375,0.0227203369140625
1776444533723668200,17.578668212890626,-1.054534912109375,-0.0102081298828125,0.037567138671875
1776444533748686000,17.60368603515625,-1.042877197265625,-0.0413818359375,0.023468017578125
1776444533773704000,17.628703857421876,-0.9732666015625,-0.131805419921875,-0.13958740234375
1776444533798722000,17.65372216796875,-0.9249725341796875,-0.1643829345703125,-0.243255615234375
1776444533823740000,17.678739990234376,-0.9661712646484375,-0.0608367919921875,-0.3026123046875
1776444533848758000,17.703758056640623,-0.8964080810546875,0.013824462890625,-0.3437957763671875
1776444533873775900,17.72877587890625,-0.8900146484375,-0.030731201171875,-0.3293304443359375
1776444533898795000,17.753794921875,-0.917266845703125,-0.00665283203125,-0.3151092529296875
1776444533923813000,17.778813232421875,-1.021148681640625,-0.0592193603515625,-0.272674560546875
1776444533948831000,17.8038310546875,-1.0153045654296875,-0.0838470458984375,-0.08758544921875
1776444533973849000,17.82884912109375,-0.9699554443359375,-0.0868377685546875,0.05120849609375
1776444533998867000,17.853866943359375,-0.9810943603515625,-0.0186614990234375,0.03369140625
1776444534023885000,17.878885009765625,-0.9925689697265625,0.0459136962890625,0.0275115966796875
1776444534048903000,17.90390283203125,-0.9909210205078125,-0.0426025390625,0.0756988525390625
1776444534073921000,17.928921142578126,-0.9852447509765625,-0.055908203125,0.1163177490234375
1776444534098939000,17.95393896484375,-1.061492919921875,0.0113677978515625,0.0375213623046875
1776444534123957000,17.97895703125,-0.9499969482421875,-0.090789794921875,0.022125244140625
1776444534148971300,18.00397119140625,-0.998382568359375,-0.099365234375,-0.0212860107421875
1776444534173989400,18.0289892578125,-0.9809417724609375,-0.10064697265625,0.0592803955078125
1776444534199007200,18.05400732421875,-1.018585205078125,-0.0840301513671875,0.0573272705078125
1776444534224025300,18.079025390625,-0.99676513671875,-0.02288818359375,0.09759521484375
1776444534249043200,18.104043212890623,-1.0794677734375,0.033599853515625,0.0380096435546875
1776444534274061300,18.129061279296874,-1.03411865234375,0.010833740234375,0.0563201904296875
1776444534299079200,18.1540791015625,-0.9618988037109375,0.04364013671875,-0.2449188232421875
1776444534324097300,18.17909716796875,-0.8842315673828125,0.2879486083984375,-0.3635101318359375
1776444534349115100,18.204115234375,-1.029693603515625,0.285186767578125,-0.1753692626953125
1776444534374134300,18.22913427734375,-0.945068359375,0.1381988525390625,-0.1874542236328125
1776444534399152400,18.25415234375,-0.9562530517578125,-0.025726318359375,-0.0740966796875
1776444534424170200,18.279170166015625,-0.8740692138671875,-0.0783538818359375,-0.0410614013671875
1776444534449188400,18.304188232421875,-0.913787841796875,0.006561279296875,-0.0632781982421875
1776444534474206200,18.329206298828126,-0.934967041015625,-0.0976104736328125,-0.092193603515625
1776444534499224000,18.35422412109375,-1.045166015625,-0.0043487548828125,-0.0414581298828125
1776444534524242200,18.3792421875,-0.9253082275390625,0.1184844970703125,-0.0870819091796875
1776444534549260000,18.404260009765625,-0.9549560546875,0.1706695556640625,-0.0835113525390625
1776444534574278100,18.429278076171876,-0.9970550537109375,-0.074462890625,0.013702392578125
1776444534599296300,18.454296142578126,-0.989898681640625,-0.211761474609375,-0.295745849609375
1776444534624314400,18.479314453125,-0.901580810546875,-0.0972442626953125,0.1976776123046875
1776444534649332200,18.504332275390624,-0.8834228515625,-0.1050262451171875,0.39776611328125
1776444534674350300,18.529350341796874,-0.9634246826171875,-0.087493896484375,0.4173431396484375
1776444534699368200,18.5543681640625,-1.0131988525390625,-0.03765869140625,0.387725830078125
1776444534724386300,18.57938623046875,-1.0174102783203125,-0.0279083251953125,0.4506072998046875
1776444534749404200,18.604404052734374,-0.997344970703125,-0.051422119140625,0.5467681884765625
1776444534774422300,18.62942236328125,-0.983795166015625,-0.035369873046875,0.4672698974609375
1776444534799440100,18.654440185546875,-0.97650146484375,-0.008331298828125,0.3833770751953125
1776444534824458200,18.679458251953125,-0.9963531494140625,-0.0154571533203125,0.4243011474609375
1776444534849476000,18.70447607421875,-1.0048980712890625,-0.03857421875,0.4538726806640625
1776444534874494200,18.729494140625,-0.9936065673828125,-0.0311431884765625,0.4267730712890625
1776444534899512300,18.75451220703125,-0.97418212890625,-0.0432891845703125,0.4321136474609375
1776444534924530200,18.7795302734375,-0.9588623046875,-0.0183868408203125,0.4591522216796875
1776444534949548300,18.80454833984375,-0.937744140625,-0.04547119140625,0.4803619384765625
1776444534974566100,18.829566162109376,-1.00079345703125,0.021759033203125,-0.2057037353515625
1776444534999585000,18.8545849609375,-0.9741973876953125,-0.128173828125,-0.10784912109375
1776444535024603100,18.87960302734375,-0.963348388671875,-0.0744476318359375,-0.132049560546875
1776444535049621000,18.90462109375,-1.0279693603515625,-0.044677734375,0.059051513671875
1776444535074639400,18.929639404296875,-0.99481201171875,-0.1190032958984375,0.109405517578125
1776444535099657200,18.9546572265625,-1.00689697265625,-0.2061004638671875,0.183319091796875
1776444535124675300,18.97967529296875,-0.8989410400390625,-0.1811676025390625,-0.0228118896484375
1776444535149693200,19.004693115234375,-0.8269500732421875,-0.3266448974609375,0.0602874755859375
1776444535174711300,19.029711181640625,-0.8519439697265625,-0.2411651611328125,0.0128631591796875
1776444535199729200,19.054729248046876,-0.875823974609375,-0.29156494140625,0.093780517578125
1776444535224747300,19.079747314453126,-0.9659881591796875,-0.260101318359375,0.183319091796875
1776444535249765000,19.10476513671875,-0.9689483642578125,-0.2978973388671875,0.236541748046875
1776444535274783500,19.129783447265623,-0.9701385498046875,-0.2887725830078125,0.1296234130859375
1776444535299801300,19.15480126953125,-0.9942474365234375,-0.345062255859375,0.18890380859375
1776444535324819200,19.179819091796876,-1.0237579345703125,-0.3967742919921875,0.2285308837890625
1776444535349837300,19.20483740234375,-1.06646728515625,-0.3625946044921875,0.17755126953125
1776444535374855200,19.229855224609373,-1.074310302734375,-0.3280029296875,0.0783538818359375
1776444535399873300,19.254873291015624,-1.0583953857421875,-0.2214202880859375,-0.0293426513671875
1776444535424891100,19.27989111328125,-1.062164306640625,-0.289398193359375,0.0262603759765625
1776444535449909200,19.3049091796875,-1.1292724609375,-0.14239501953125,0.12371826171875
1776444535474927000,19.329927001953124,-1.0712127685546875,-0.3762359619140625,0.1273345947265625
1776444535499945200,19.3549453125,-1.1120452880859375,-0.255615234375,0.174835205078125
1776444535524963000,19.379963134765624,-1.049224853515625,-0.337738037109375,0.044921875
1776444535549981400,19.4049814453125,-1.0434112548828125,-0.376312255859375,-0.079620361328125
1776444535574999300,19.429999267578125,-1.032806396484375,-0.2250213623046875,-0.1462860107421875
1776444535600017400,19.455017333984376,-0.92718505859375,-0.314483642578125,-0.138885498046875
1776444535625035300,19.48003515625,-0.9613189697265625,-0.151702880859375,-0.0561676025390625
1776444535650053400,19.505053466796873,-0.8852996826171875,-0.0904388427734375,-0.122589111328125
1776444535675071200,19.5300712890625,-0.9538421630859375,0.0738677978515625,-0.0882110595703125
1776444535700089300,19.55508935546875,-0.8428955078125,-0.161041259765625,-0.0149993896484375
1776444535725107200,19.580107177734376,-0.9152069091796875,-0.0359649658203125,-0.0124664306640625
1776444535750125000,19.605125,-0.829376220703125,-0.0966033935546875,0.1055755615234375
1776444535775143200,19.63014306640625,-0.89666748046875,-0.149566650390625,0.2163543701171875
1776444535800161300,19.655161376953124,-0.925811767578125,-0.093902587890625,0.062835693359375
1776444535825179400,19.680179443359375,-0.98162841796875,-0.1102294921875,0.041534423828125
1776444535850197200,19.705197265625,-0.9794921875,-0.18701171875,0.0576171875
1776444535875215400,19.73021533203125,-1.062957763671875,0.071502685546875,0.0584564208984375
1776444535900233200,19.755233154296874,-1.0843658447265625,-0.02471923828125,0.010986328125
1776444535925251300,19.780251220703125,-1.042724609375,-0.069610595703125,-0.1412353515625
1776444535950269200,19.805269287109375,-0.9883270263671875,-0.1471405029296875,-0.18109130859375
1776444535975287300,19.830287353515626,-0.9403839111328125,-0.1208648681640625,-0.2083587646484375
1776444536000305200,19.85530517578125,-0.9795074462890625,-0.16510009765625,-0.180633544921875
1776444536025323300,19.8803232421875,-1.0066986083984375,-0.0670928955078125,-0.1134185791015625
1776444536050341400,19.90534130859375,-1.01531982421875,-0.042388916015625,-0.2148284912109375
1776444536075359200,19.930359130859376,-0.9989471435546875,-0.1137542724609375,-0.239715576171875
1776444536100377300,19.95537744140625,-0.9983062744140625,0.01611328125,-0.178741455078125
1776444536125395200,19.980395263671873,-0.9876708984375,-0.037353515625,-0.268096923828125
1776444536150413300,20.005413330078124,-0.99957275390625,-0.0540313720703125,-0.24444580078125
1776444536175431200,20.03043115234375,-1.010162353515625,0.039825439453125,-0.1630401611328125
1776444536200449300,20.05544921875,-1.01385498046875,-0.0043792724609375,-0.1289825439453125
1776444536225467400,20.08046728515625,-1.0285491943359375,0.048370361328125,-0.082611083984375
1776444536250485500,20.105485595703126,-1.04193115234375,0.0537109375,-0.053802490234375
1776444536275503400,20.13050341796875,-1.0108489990234375,-0.026153564453125,-0.12603759765625
1776444536300521500,20.155521484375,-1.015838623046875,-0.021759033203125,-0.1747894287109375
1776444536325539300,20.180539306640625,-1.0106201171875,0.034454345703125,-0.108062744140625
1776444536350557400,20.205557373046876,-0.9859619140625,0.0866241455078125,-0.0202789306640625
1776444536375575300,20.2305751953125,-0.8741302490234375,0.0648345947265625,0.229522705078125
1776444536400593400,20.255593505859373,-0.95794677734375,-0.0572509765625,0.2508087158203125
1776444536425611300,20.280611328125,-0.98333740234375,-0.20849609375,0.2186431884765625
1776444536450629000,20.305629150390626,-1.0533447265625,-0.1410675048828125,0.1020355224609375
1776444536475647500,20.3306474609375,-0.8668670654296875,0.2025604248046875,0.07147216796875
1776444536500665300,20.355665283203123,-0.927459716796875,0.2205352783203125,0.1912841796875
1776444536525683500,20.380683349609374,-1.0604248046875,0.1073150634765625,0.1463775634765625
1776444536550701300,20.405701416015624,-1.1221466064453125,-0.0679931640625,0.0914764404296875
1776444536575719400,20.430719482421875,-0.8502349853515625,0.1016693115234375,-0.0179443359375
1776444536600737300,20.4557373046875,-0.8409881591796875,0.0746917724609375,-0.115997314453125
1776444536625755400,20.48075537109375,-0.990692138671875,0.0798797607421875,-0.061370849609375
1776444536650773200,20.505773193359374,-1.0029449462890625,0.02252197265625,0.023773193359375
1776444536675791400,20.530791259765625,-1.0884552001953125,-0.13397216796875,0.0106048583984375
1776444536700809200,20.555809326171875,-0.9351348876953125,-0.087860107421875,-0.072845458984375
1776444536725827300,20.580827392578126,-1.010223388671875,0.0023040771484375,-0.1007232666015625
1776444536750845400,20.605845458984376,-1.00811767578125,0.03814697265625,-0.0280609130859375
1776444536775863300,20.63086328125,-1.048126220703125,-0.0904083251953125,0.052825927734375
1776444536800881400,20.65588134765625,-0.9929046630859375,-0.0604248046875,0.0158538818359375
1776444536825899300,20.680899169921876,-0.931396484375,0.02142333984375,-0.0390777587890625
1776444536850917400,20.70591748046875,-0.9509429931640625,0.0757293701171875,-0.0471038818359375
1776444536875935200,20.730935302734373,-0.9546966552734375,0.0520172119140625,-0.006927490234375
1776444536900953300,20.755953369140624,-0.9900054931640625,-0.002349853515625,0.0050048828125
1776444536925971200,20.78097119140625,-1.008209228515625,0.0657806396484375,-0.02001953125
1776444536950989300,20.8059892578125,-0.9925384521484375,0.0784759521484375,-0.10821533203125
1776444536976007200,20.831007080078123,-0.977294921875,0.0615692138671875,-0.097808837890625
1776444537001025500,20.856025634765626,-1.010833740234375,0.0819854736328125,0.06121826171875
1776444537026043400,20.88104345703125,-1.0025482177734375,0.08099365234375,0.1600799560546875
1776444537051061500,20.9060615234375,-1.0562591552734375,0.0561370849609375,0.2403411865234375
1776444537076079400,20.931079345703125,-1.0101470947265625,0.1030120849609375,0.1363372802734375
1776444537101097500,20.956097412109376,-1.0184783935546875,0.0558319091796875,0.0048065185546875
1776444537126115300,20.981115234375,-1.05657958984375,-0.000152587890625,-0.0625762939453125
1776444537151133400,21.006133544921877,-1.0446014404296875,0.0623931884765625,-0.002044677734375
1776444537176151600,21.031151611328124,-1.0659332275390625,0.0136260986328125,0.0496063232421875
1776444537201169700,21.056169677734374,-1.032806396484375,0.0262603759765625,0.2080841064453125
1776444537226187800,21.081187744140625,-0.9793701171875,-0.0207366943359375,0.227630615234375
1776444537251205600,21.10620556640625,-0.997802734375,-0.0130462646484375,0.22052001953125
1776444537276223700,21.1312236328125,-1.0168914794921875,0.0034942626953125,0.2173614501953125
1776444537301241600,21.15624169921875,-0.979583740234375,0.019500732421875,0.2101593017578125
1776444537326259700,21.181259765625,-0.988067626953125,-0.0124053955078125,0.2655029296875
1776444537351277600,21.206277587890625,-0.9790802001953125,-0.0729827880859375,0.2086029052734375
1776444537376295700,21.231295654296876,-0.9891815185546875,-0.0666961669921875,0.1663818359375
1776444537401313500,21.2563134765625,-1.006072998046875,-0.0389862060546875,0.1487884521484375
1776444537426331600,21.28133154296875,-0.9777069091796875,-0.0326690673828125,0.16448974609375
1776444537451349800,21.306349853515623,-0.99554443359375,-0.0167236328125,0.1478118896484375
1776444537476367600,21.33136767578125,-0.9927520751953125,-0.0584716796875,0.17669677734375
1776444537501385700,21.3563857421875,-0.9550018310546875,-0.13201904296875,0.1006011962890625
1776444537526403600,21.381403564453127,-0.9931182861328125,-0.07257080078125,0.1164703369140625
1776444537551421700,21.406421630859374,-0.9760284423828125,-0.046722412109375,0.1431884765625
1776444537576439600,21.431439453125,-0.9359588623046875,-0.0762786865234375,0.1091156005859375
1776444537601457700,21.456457763671875,-1.0279998779296875,-0.1033782958984375,0.09136962890625
1776444537626474500,21.481474609375,-0.9878692626953125,-0.070404052734375,0.0085296630859375
1776444537651492600,21.50649267578125,-0.9674835205078125,-0.027740478515625,-0.0429840087890625
1776444537676510500,21.531510498046874,-0.9246673583984375,-0.0302734375,0.0013580322265625
1776444537701528600,21.556528564453124,-1.0223541259765625,-0.1368408203125,-0.004974365234375
1776444537726546400,21.58154638671875,-0.9970245361328125,-0.019073486328125,0.0332183837890625
1776444537751564800,21.606564697265625,-0.9698333740234375,0.0147247314453125,0.0462188720703125
1776444537776582700,21.631582763671876,-1.029571533203125,-0.0259857177734375,-0.0203704833984375
1776444537801600800,21.656600830078126,-1.04559326171875,0.0673065185546875,0.077239990234375
1776444537826618600,21.68161865234375,-1.00250244140625,-0.0936431884765625,0.216888427734375
1776444537851636700,21.70663671875,-0.8928985595703125,-0.2463531494140625,0.116455078125
1776444537876654600,21.731654541015626,-0.9606781005859375,0.0049896240234375,-0.2269439697265625
1776444537901672700,21.756672607421876,-0.944061279296875,0.1495208740234375,-0.2819366455078125
1776444537926690600,21.781690673828123,-1.0699920654296875,0.0605926513671875,-0.296905517578125
1776444537951708700,21.806708740234374,-0.969390869140625,0.0155181884765625,-0.2020263671875
1776444537976726500,21.8317265625,-1.0026702880859375,-0.093780517578125,-0.11431884765625
1776444538001744600,21.85674462890625,-0.9037322998046875,-0.012298583984375,0.074005126953125
1776444538026762800,21.8817626953125,-0.9176788330078125,0.000213623046875,0.15228271484375
1776444538051780600,21.906780517578124,-0.9638671875,-0.1114044189453125,0.2080078125
1776444538076798700,21.931798828125,-0.997344970703125,-0.0413665771484375,0.200775146484375
1776444538101816600,21.956816650390625,-0.99456787109375,-0.0090484619140625,0.1425323486328125
1776444538126834700,21.981834716796875,-0.9907684326171875,-0.1350250244140625,0.089874267578125
1776444538151851800,22.006851806640626,-0.983642578125,-0.1151275634765625,0.149566650390625
1776444538176870000,22.031869873046876,-1.032928466796875,-0.0276336669921875,0.2653045654296875
1776444538201887700,22.0568876953125,-0.9973602294921875,-0.0645599365234375,0.2683868408203125
1776444538226905900,22.08190576171875,-0.9375152587890625,-0.00494384765625,0.260772705078125
1776444538251923700,22.106923828125,-1.0120849609375,-0.1339874267578125,0.1638641357421875
1776444538276940800,22.13194091796875,-1.0393829345703125,-0.06988525390625,0.152069091796875
1776444538301959000,22.156958984375,-0.9673614501953125,-0.1637725830078125,0.140380859375
1776444538326976800,22.181976806640623,-0.9954833984375,-0.108551025390625,0.226654052734375
1776444538351995000,22.206994873046874,-1.0402374267578125,-0.033843994140625,0.2545928955078125
1776444538377012700,22.2320126953125,-1.0181121826171875,-0.00433349609375,0.306182861328125
1776444538402030800,22.25703076171875,-0.990234375,-0.03338623046875,0.2517242431640625
1776444538427049000,22.282049072265625,-1.020416259765625,-0.0625152587890625,0.2362213134765625
1776444538452066800,22.30706689453125,-1.0830230712890625,-0.0034637451171875,0.1628875732421875
1776444538477085000,22.3320849609375,-1.0654449462890625,-0.265228271484375,0.00274658203125
1776444538502102800,22.357102783203125,-0.9388275146484375,0.198577880859375,0.36041259765625
1776444538527121000,22.382120849609375,-0.91632080078125,-0.0433502197265625,0.3017730712890625
1776444538552138800,22.407138671875,-1.0311279296875,-0.0912628173828125,0.2506561279296875
1776444538577156900,22.432156982421876,-1.002288818359375,-0.0572509765625,0.248321533203125
1776444538602174700,22.4571748046875,-1.057952880859375,-0.04559326171875,0.2334747314453125
1776444538627192800,22.48219287109375,-0.938995361328125,-0.046600341796875,0.240570068359375
1776444538652211000,22.5072109375,-0.928863525390625,-0.0695648193359375,0.220550537109375
1776444538677228800,22.532228759765626,-0.9666595458984375,-0.08099365234375,0.19757080078125
1776444538702247000,22.557246826171873,-0.9334564208984375,-0.142791748046875,0.196380615234375
1776444538727264000,22.582263916015624,-0.9134979248046875,-0.1698760986328125,0.2157135009765625
1776444538752281900,22.60728173828125,-0.925811767578125,-0.179931640625,0.22021484375
1776444538777300000,22.632300048828125,-0.9375457763671875,-0.1968536376953125,0.22186279296875
1776444538802317800,22.65731787109375,-0.9321441650390625,-0.209197998046875,0.2440185546875
1776444538827336000,22.6823359375,-0.904144287109375,-0.222137451171875,0.2218017578125
1776444538852353800,22.707353759765624,-0.832763671875,-0.24774169921875,0.05645751953125
1776444538877372000,22.732371826171875,-0.7802276611328125,-0.2585296630859375,0.2317352294921875
1776444538902389800,22.7573896484375,-0.907958984375,-0.1909027099609375,0.5994873046875
1776444538927407600,22.78240771484375,-0.988006591796875,-0.281982421875,0.687530517578125
1776444538952426000,22.807426025390626,-1.03033447265625,-0.30767822265625,0.5161285400390625
1776444538977443800,22.83244384765625,-1.0467987060546875,-0.2557830810546875,0.1838836669921875
1776444539002462000,22.8574619140625,-0.9753265380859375,-0.1967620849609375,-0.0495758056640625
1776444539027479800,22.882479736328126,-0.935882568359375,-0.1991424560546875,0.0088653564453125
1776444539052498000,22.907497802734376,-1.0207061767578125,-0.1917572021484375,0.033721923828125
1776444539077515800,22.932515869140627,-1.00262451171875,-0.2099456787109375,0.0747222900390625
1776444539102534000,22.957533935546873,-0.9791717529296875,-0.2700958251953125,0.2427520751953125
1776444539127550700,22.98255078125,-0.9155120849609375,-0.2664031982421875,0.2610321044921875
1776444539152569300,23.0075693359375,-0.9742431640625,-0.3005523681640625,0.2041778564453125
1776444539177587200,23.032587158203125,-0.953125,-0.2912139892578125,0.0834808349609375
1776444539202605600,23.05760546875,-0.9134063720703125,-0.2574615478515625,0.0069427490234375
1776444539227623400,23.08262353515625,-0.8944549560546875,-0.2418060302734375,-0.0355987548828125
1776444539252641500,23.1076416015625,-0.8868408203125,-0.20916748046875,-0.0656280517578125
1776444539277659400,23.132659423828127,-0.9043121337890625,-0.2088470458984375,-0.1399383544921875
1776444539302677500,23.157677490234374,-0.8897857666015625,-0.1817474365234375,-0.290863037109375
1776444539327695400,23.1826953125,-0.9073333740234375,-0.1767425537109375,-0.0187225341796875
1776444539352713500,23.20771337890625,-0.9386444091796875,-0.159942626953125,0.014862060546875
1776444539377731300,23.2327314453125,-0.95513916015625,-0.1854400634765625,0.069854736328125
1776444539402749200,23.257749267578124,-0.97283935546875,-0.2731170654296875,0.0346527099609375
1776444539427767300,23.282767333984374,-1.102203369140625,-0.31732177734375,-0.276519775390625
1776444539452784400,23.307784423828124,-1.0328826904296875,-0.2572174072265625,-0.17919921875
1776444539477802200,23.33280224609375,-1.0073699951171875,-0.2802276611328125,-0.1268157958984375
1776444539502820600,23.357820556640625,-1.0027618408203125,-0.272003173828125,-0.0203704833984375
1776444539527838500,23.38283837890625,-1.002410888671875,-0.2147979736328125,-0.002471923828125
1776444539552856300,23.407856201171874,-1.0245513916015625,-0.1855316162109375,0.02734375
1776444539577874400,23.43287451171875,-1.013763427734375,-0.18475341796875,0.0179595947265625
1776444539602892300,23.457892333984375,-0.9818572998046875,-0.1645965576171875,0.052581787109375
1776444539627910400,23.482910400390626,-1.00262451171875,-0.1981964111328125,0.0379791259765625
1776444539652928300,23.50792822265625,-1.006103515625,-0.2620086669921875,-0.02197265625
1776444539677946400,23.5329462890625,-0.9993896484375,-0.2951202392578125,-0.033294677734375
1776444539702964200,23.557964111328126,-0.968170166015625,-0.294097900390625,-0.053680419921875
1776444539727982300,23.582982421875,-0.9782562255859375,-0.3039398193359375,-0.0294647216796875
1776444539752999400,23.60799951171875,-0.995635986328125,-0.339996337890625,-0.0757293701171875
1776444539778017300,23.633017333984377,-1.0126800537109375,-0.361236572265625,-0.04736328125
1776444539803035400,23.658035400390624,-0.9966278076171875,-0.366943359375,-0.087005615234375
1776444539828053500,23.683053466796874,-1.0150299072265625,-0.3382568359375,-0.0263214111328125
1776444539853071400,23.7080712890625,-0.9653472900390625,-0.3800048828125,-0.1350555419921875
1776444539878089500,23.73308935546875,-0.9325714111328125,-0.456146240234375,-0.3115386962890625
1776444539903107300,23.758107421875,-0.906158447265625,-0.4757080078125,-0.3677825927734375
1776444539928125400,23.78312548828125,-0.9224090576171875,-0.3840179443359375,-0.2978515625
1776444539953143300,23.808143310546875,-0.989288330078125,-0.2595367431640625,-0.180572509765625
1776444539978161400,23.833161376953125,-1.0083160400390625,-0.085296630859375,-0.119903564453125
1776444540003179300,23.85817919921875,-1.0205078125,0.0045318603515625,-0.1494598388671875
1776444540028197400,23.883197265625,-0.9651031494140625,0.210205078125,-0.1805267333984375
1776444540053214200,23.908214111328125,-0.8927764892578125,0.2215576171875,-0.1072235107421875
1776444540078232300,23.933232421875,-0.9174652099609375,0.221099853515625,-0.1087493896484375
1776444540103250200,23.958250244140626,-0.8523712158203125,0.2193145751953125,-0.11029052734375
1776444540128268500,23.9832685546875,-0.7707672119140625,0.264068603515625,-0.0902862548828125
1776444540153286400,24.008286376953127,-0.7852935791015625,0.2627410888671875,-0.1527099609375
1776444540178308000,24.03330810546875,-0.8265838623046875,0.1969451904296875,-0.149505615234375
1776444540203326000,24.058325927734376,-0.84625244140625,0.2005462646484375,-0.119903564453125
1776444540228344300,24.08334423828125,-0.8364105224609375,0.1842193603515625,-0.17938232421875
1776444540253362200,24.108362060546874,-0.862030029296875,0.123779296875,-0.18890380859375
1776444540278380000,24.133380126953124,-0.890838623046875,0.10736083984375,-0.139617919921875
1776444540303398100,24.158398193359375,-0.9084625244140625,0.0866546630859375,-0.185638427734375
1776444540328416000,24.183416015625,-0.9260711669921875,0.0476226806640625,-0.1836700439453125
1776444540353434000,24.20843408203125,-0.9339752197265625,0.020721435546875,-0.1960601806640625
1776444540378452000,24.233451904296874,-0.9957122802734375,-0.036407470703125,-0.116302490234375
1776444540403469000,24.258468994140625,-0.9978790283203125,-0.048248291015625,-0.122039794921875
1776444540428487200,24.283487060546875,-0.90869140625,-0.144805908203125,-0.252288818359375
1776444540453505000,24.308505126953126,-0.95428466796875,-0.091064453125,-0.247283935546875
1776444540478523100,24.333523193359376,-0.940826416015625,-0.1539154052734375,-0.2297210693359375
1776444540503541000,24.358541015625,-1.0529937744140625,-0.2940826416015625,0.035491943359375
1776444540528559000,24.38355908203125,-1.272552490234375,-0.4801025390625,0.323822021484375
1776444540553577200,24.4085771484375,-1.18389892578125,-0.382354736328125,0.0739898681640625
1776444540578595000,24.433594970703126,-0.872894287109375,-0.217376708984375,-0.07293701171875
1776444540603613200,24.45861328125,-0.877044677734375,-0.275787353515625,-0.1266937255859375
1776444540628631000,24.483631103515624,-0.895355224609375,-0.2708892822265625,-0.1524505615234375
1776444540653648100,24.508648193359374,-0.96185302734375,-0.2975311279296875,-0.082000732421875
1776444540678666200,24.533666259765624,-1.0357513427734375,-0.3975677490234375,-0.0373382568359375
1776444540703684000,24.55868408203125,-0.8860931396484375,-0.26214599609375,-0.111297607421875
1776444540728702000,24.583701904296873,-0.972442626953125,-0.2801971435546875,-0.125030517578125
1776444540753720000,24.608719970703124,-0.921417236328125,-0.2599334716796875,-0.119842529296875
1776444540778738000,24.633738037109374,-0.844879150390625,-0.231658935546875,-0.1469879150390625
1776444540803756000,24.658756103515625,-0.881011962890625,-0.209381103515625,-0.2086334228515625
1776444540828774000,24.68377392578125,-0.833892822265625,-0.1658782958984375,-0.2613372802734375
1776444540853792300,24.708792236328126,-0.8410797119140625,-0.240509033203125,-0.295989990234375
1776444540878810000,24.73381005859375,-0.789306640625,-0.29119873046875,-0.38330078125
1776444540903827200,24.7588271484375,-0.6407318115234375,-0.2478790283203125,-0.35467529296875
1776444540928845000,24.783844970703125,-0.63812255859375,-0.1777496337890625,-0.6031036376953125
1776444540953863200,24.80886328125,-0.591888427734375,-0.2153778076171875,-0.64935302734375
1776444540978881000,24.833881103515626,-0.524322509765625,-0.3736419677734375,-0.7816009521484375
1776444541003899100,24.858899169921877,-0.4390411376953125,-0.1345672607421875,-0.763336181640625
1776444541028917000,24.8839169921875,-0.5038604736328125,-0.1324005126953125,-0.899322509765625
1776444541053935000,24.90893505859375,-0.391326904296875,-0.1600189208984375,-0.9210357666015625
1776444541078953000,24.933952880859376,-0.5036468505859375,-0.2123870849609375,-1.1721649169921875
1776444541103971000,24.95897119140625,-0.43133544921875,-0.232086181640625,-1.071868896484375
1776444541128988000,24.98398779296875,-0.2548675537109375,-0.210418701171875,-1.1560516357421875
1776444541154006000,25.009006103515624,-0.2426605224609375,-0.2451934814453125,-1.391998291015625
1776444541179020300,25.034020263671874,-0.1930999755859375,-0.2185516357421875,-1.2913665771484375
1776444541204038400,25.059038330078124,-0.1832122802734375,-0.2517547607421875,-1.1838531494140625
1776444541229056300,25.08405615234375,-0.157958984375,-0.2523345947265625,-1.1278533935546875
1776444541254074400,25.109074462890625,-0.166015625,-0.273651123046875,-1.2117462158203125
1776444541279092200,25.13409228515625,-0.2771148681640625,-0.2355804443359375,-1.1163482666015625
1776444541304110300,25.1591103515625,-0.287811279296875,-0.214630126953125,-1.004638671875
1776444541329128200,25.184128173828125,-0.282806396484375,-0.1256256103515625,-0.9288177490234375
1776444541354145300,25.209145263671875,-0.3152923583984375,-0.0992584228515625,-0.9096527099609375
1776444541379163400,25.234163330078125,-0.35931396484375,-0.104248046875,-0.894622802734375
1776444541404181500,25.259181396484376,-0.3955535888671875,-0.0704193115234375,-0.8616943359375
1776444541429199400,25.284199462890626,-0.41839599609375,-0.06597900390625,-0.879547119140625
1776444541454217500,25.309217529296873,-0.382232666015625,-0.042694091796875,-0.88665771484375
1776444541479235300,25.3342353515625,-0.3295135498046875,-0.0386962890625,-0.92559814453125
1776444541504253400,25.35925341796875,-0.415252685546875,-0.02886962890625,-0.8996734619140625
1776444541529271300,25.384271240234376,-0.453460693359375,-0.179229736328125,-0.9554290771484375
1776444541554288400,25.409288330078127,-0.29522705078125,-0.240234375,-0.990447998046875
1776444541579306200,25.43430615234375,-0.343841552734375,-0.178009033203125,-0.9713134765625
1776444541604324400,25.459324462890624,-0.244659423828125,-0.2724761962890625,-0.998443603515625
1776444541629342200,25.48434228515625,-0.586212158203125,-0.3843994140625,-1.037994384765625
1776444541654360300,25.5093603515625,-0.636016845703125,-0.312408447265625,-0.946044921875
1776444541679378200,25.534378173828124,-0.375335693359375,-0.1067962646484375,-0.8390655517578125
1776444541704396500,25.559396484375,-0.3639984130859375,-0.1360321044921875,-0.753692626953125
1776444541729414400,25.584414306640625,-0.2940216064453125,-0.1556396484375,-0.6897735595703125
1776444541754431500,25.609431396484375,-0.3461456298828125,-0.13360595703125,-0.71533203125
1776444541779449300,25.634449462890625,-0.350677490234375,-0.159515380859375,-0.74151611328125
1776444541804467500,25.659467529296876,-0.4037628173828125,-0.20196533203125,-0.8944244384765625
1776444541829485300,25.6844853515625,-0.35748291015625,-0.3222503662109375,-0.9640655517578125
1776444541854503400,25.70950341796875,-0.304534912109375,-0.592010498046875,-1.030609130859375
1776444541879521300,25.734521240234375,-0.23956298828125,-0.654510498046875,-0.9652862548828125
1776444541904539400,25.759539306640626,-0.1521453857421875,-0.324981689453125,-0.893524169921875
1776444541929557200,25.78455712890625,-0.2995758056640625,-0.2426300048828125,-0.87005615234375
1776444541954574300,25.80957421875,-0.3731536865234375,-0.3394622802734375,-0.7164764404296875
1776444541979592400,25.834592529296874,-0.363861083984375,-0.3997039794921875,-0.750213623046875
1776444542004610300,25.8596103515625,-0.327392578125,-0.3722381591796875,-0.6966094970703125
1776444542029628200,25.884628173828126,-0.280487060546875,-0.36395263671875,-0.7212066650390625
1776444542054646500,25.909646484375,-0.334259033203125,-0.3400421142578125,-0.656005859375
1776444542079664400,25.934664306640624,-0.3010101318359375,-0.3546295166015625,-0.7605133056640625
1776444542104682500,25.9596826171875,-0.2772064208984375,-0.3073577880859375,-0.795166015625
1776444542129700400,25.984700439453125,-0.2101593017578125,-0.1821746826171875,-0.7743072509765625
1776444542154717400,26.009717529296875,-0.2035064697265625,-0.1499176025390625,-0.79083251953125
1776444542179735800,26.03473583984375,-0.068756103515625,-0.062652587890625,-0.7517852783203125
1776444542204754000,26.05975390625,-0.1571197509765625,-0.1927947998046875,-0.79901123046875
1776444542229771800,26.084771728515626,-0.0870819091796875,-0.19598388671875,-0.957183837890625
1776444542254790100,26.1097900390625,-0.0194854736328125,-0.1783294677734375,-1.0303192138671875
1776444542279808000,26.13480810546875,-0.0265045166015625,-0.207122802734375,-1.0195770263671875
1776444542304826000,26.159826171875,0.1649932861328125,-0.04498291015625,-1.0726776123046875
1776444542329843000,26.184843017578125,0.0865478515625,-0.1481781005859375,-1.2203369140625
1776444542354861000,26.209861083984375,0.0426788330078125,-0.20147705078125,-1.363433837890625
1776444542379879000,26.23487890625,0.261993408203125,0.000091552734375,-1.2542877197265625
1776444542404897000,26.25989697265625,0.1483154296875,-0.07135009765625,-1.2368316650390625
1776444542429915000,26.284914794921875,0.1468963623046875,-0.0846099853515625,-1.324798583984375
1776444542454933000,26.30993310546875,0.1721038818359375,-0.056793212890625,-1.2881622314453125
1776444542479950800,26.334950927734376,0.0521240234375,-0.0812835693359375,-1.245025634765625
1776444542504969000,26.359968994140626,0.0861968994140625,0.0355224609375,-1.1613616943359375
1776444542529985800,26.38498583984375,0.044830322265625,0.06195068359375,-1.0639190673828125
1776444542555004000,26.41000390625,0.0104522705078125,0.0039520263671875,-1.0559844970703125
1776444542580021800,26.435021728515625,-0.06048583984375,-0.05255126953125,-1.015869140625
1776444542605040000,26.4600400390625,-0.023101806640625,0.00518798828125,-0.909912109375
1776444542630058000,26.48505810546875,0.1556854248046875,0.0699462890625,-0.8041229248046875
1776444542655076000,26.510076171875,0.17071533203125,-0.002349853515625,-0.688507080078125
1776444542680094000,26.535093994140624,-0.265625,-0.102386474609375,-0.901397705078125
1776444542705111000,26.560111083984374,-0.194610595703125,-0.1646881103515625,-1.005126953125
1776444542730129000,26.58512890625,-0.1635894775390625,0.108367919921875,-0.8871307373046875
1776444542755147000,26.61014697265625,-0.0577239990234375,0.197235107421875,-0.8245849609375
1776444542780164900,26.635164794921874,0.0287933349609375,0.1073455810546875,-0.8992156982421875
1776444542805183000,26.660182861328124,-0.063751220703125,0.053497314453125,-1.1196136474609375
1776444542830200800,26.685200927734375,-0.0648193359375,0.0226898193359375,-1.20135498046875
1776444542855219000,26.710218994140625,0.014617919921875,0.028594970703125,-1.0417633056640625
1776444542880236000,26.735236083984375,0.0693206787109375,0.0733642578125,-0.9270782470703125
1776444542905254000,26.76025390625,0.0731964111328125,0.0032958984375,-0.9569854736328125
1776444542930271700,26.785271728515625,0.0352020263671875,0.0084686279296875,-0.911407470703125
1776444542955290000,26.8102900390625,0.0184326171875,-0.0381622314453125,-1.03192138671875
1776444542980308000,26.835307861328126,-0.0264892578125,-0.0446319580078125,-1.096343994140625
1776444543005326000,26.860326171875,-0.034637451171875,-0.0762939453125,-1.03253173828125
1776444543030343200,26.88534326171875,-0.0696563720703125,0.0270843505859375,-1.0236358642578125
1776444543055361000,26.910361083984377,-0.10113525390625,0.022247314453125,-1.0479888916015625
1776444543080379100,26.935379150390624,-0.15203857421875,0.0428466796875,-1.0222930908203125
1776444543105397000,26.96039697265625,-0.158111572265625,-0.0116729736328125,-0.9941864013671875
1776444543130414800,26.985414794921876,-0.1611175537109375,0.025634765625,-0.976776123046875
1776444543155433000,27.010432861328123,-0.160980224609375,0.065155029296875,-0.950042724609375
1776444543180450300,27.0354501953125,-0.173126220703125,0.0584716796875,-0.910369873046875
1776444543205467100,27.060467041015624,-0.188201904296875,0.0526123046875,-0.887908935546875
1776444543230485200,27.0854853515625,-0.205352783203125,0.0152740478515625,-0.9030303955078125
1776444543255503000,27.110503173828125,-0.218048095703125,-0.0232086181640625,-0.965545654296875
1776444543280521200,27.135521240234375,-0.2155609130859375,-0.1526336669921875,-1.008544921875
1776444543305539300,27.160539306640626,-0.206573486328125,-0.133148193359375,-1.0728607177734375
1776444543330557400,27.185557373046876,-0.177215576171875,-0.1717987060546875,-1.1031951904296875
1776444543355574300,27.21057421875,-0.1628875732421875,-0.1157684326171875,-1.0988311767578125
1776444543380592400,27.23559228515625,-0.1479339599609375,-0.1424102783203125,-1.1256866455078125
1776444543405610200,27.2606103515625,-0.13116455078125,-0.138671875,-1.0781097412109375
1776444543430628400,27.28562841796875,-0.10870361328125,-0.060516357421875,-0.994537353515625
1776444543455646200,27.310646240234377,-0.1125640869140625,-0.0504913330078125,-1.040191650390625
1776444543480664300,27.335664306640624,-0.0040435791015625,-0.086181640625,-1.1127166748046875
1776444543505682200,27.36068212890625,0.1450958251953125,-0.0081939697265625,-1.0150604248046875
1776444543530699300,27.38569921875,0.0964508056640625,0.0385589599609375,-0.9649658203125
1776444543555717000,27.410717041015626,-0.0388031005859375,0.0533905029296875,-0.8882904052734375
1776444543580735200,27.4357353515625,-0.1541748046875,0.0400543212890625,-1.0181427001953125
1776444543605753000,27.460753173828124,-0.20135498046875,0.00054931640625,-1.1594696044921875
1776444543630771200,27.485771240234374,-0.0858154296875,-0.085845947265625,-1.095306396484375
1776444543655789300,27.510789306640625,-0.02142333984375,0.1271514892578125,-1.0823516845703125
1776444543680806100,27.53580615234375,-0.0150299072265625,0.3223114013671875,-1.00982666015625
1776444543705824300,27.56082421875,-0.044219970703125,0.1955413818359375,-0.88507080078125
1776444543730842400,27.58584228515625,-0.1556854248046875,0.269775390625,-0.8170318603515625
1776444543755860200,27.610860107421875,-0.21026611328125,0.24822998046875,-0.912384033203125
1776444543780878300,27.63587841796875,-0.09307861328125,0.2774810791015625,-0.895477294921875
1776444543805896200,27.660896240234376,-0.0364227294921875,0.21746826171875,-0.842010498046875
1776444543830913300,27.685913330078126,-0.0706329345703125,0.1208648681640625,-0.86767578125
1776444543855931400,27.710931396484376,-0.0799560546875,0.04913330078125,-0.8948822021484375
1776444543880949200,27.73594921875,-0.082489013671875,-0.0484466552734375,-1.031982421875
1776444543905967400,27.76096728515625,-0.02008056640625,-0.0863037109375,-1.1195068359375
1776444543930985200,27.785985107421876,-0.0836639404296875,-0.0181121826171875,-1.1216583251953125
1776444543956003000,27.811003173828126,-0.0465087890625,-0.0749053955078125,-1.0859832763671875
1776444543981020200,27.836020263671877,-0.01361083984375,-0.0573883056640625,-1.0826568603515625
1776444544006038300,27.861038330078124,-0.0305938720703125,0.036102294921875,-1.0916290283203125
1776444544031056100,27.88605615234375,0.01153564453125,-0.0271759033203125,-1.0911102294921875
1776444544056074200,27.91107421875,0.041473388671875,0.0001220703125,-1.0672760009765625
1776444544081092400,27.93609228515625,0.0110321044921875,0.0641937255859375,-1.0609588623046875
1776444544106109200,27.961109130859374,0.0292510986328125,-0.0037994384765625,-1.036346435546875
1776444544131127300,27.986127197265624,0.042694091796875,0.0056915283203125,-0.9869842529296875
1776444544156145400,28.0111455078125,0.0208282470703125,0.0810394287109375,-0.9732513427734375
1776444544181163500,28.03616357421875,0.023895263671875,0.0528717041015625,-0.9959869384765625
1776444544206181600,28.061181640625,0.0336151123046875,0.0030670166015625,-0.9925079345703125
1776444544231199500,28.086199462890626,0.0097198486328125,0.042816162109375,-1.0120697021484375
1776444544256216600,28.111216552734376,-0.00360107421875,0.0298614501953125,-1.0164947509765625
1776444544281234400,28.136234375,-0.02667236328125,0.0509185791015625,-1.01123046875
1776444544306252500,28.16125244140625,-0.0258026123046875,0.0031585693359375,-1.008392333984375
1776444544331270700,28.186270751953124,-0.0505218505859375,0.072723388671875,-1.008331298828125
1776444544356288800,28.211288818359375,-0.0679779052734375,0.0722198486328125,-0.98211669921875
1776444544381306600,28.236306640625,-0.0989990234375,0.133819580078125,-0.92974853515625
1776444544406323700,28.26132373046875,-0.1183319091796875,0.1005859375,-0.9627685546875
1776444544431341600,28.286341552734374,-0.129180908203125,0.0447235107421875,-0.9608154296875
1776444544456359700,28.311359619140624,-0.1512908935546875,0.0361328125,-0.9487152099609375
1776444544481377500,28.33637744140625,-0.1514129638671875,0.109893798828125,-0.985015869140625
1776444544506395600,28.361395751953125,-0.1883544921875,0.0725860595703125,-0.935333251953125
1776444544531412500,28.38641259765625,-0.1927947998046875,0.07989501953125,-0.8919525146484375
1776444544556430600,28.4114306640625,-0.2118377685546875,0.0316314697265625,-0.8582305908203125
1776444544581448400,28.436448486328125,-0.2015533447265625,0.2343292236328125,-0.8177947998046875
1776444544606466600,28.461466552734375,-0.1873779296875,0.0640869140625,-0.883544921875
1776444544631484400,28.486484375,-0.16046142578125,0.0020294189453125,-0.898651123046875
1776444544656502500,28.51150244140625,-0.0863189697265625,0.102996826171875,-0.9546966552734375
1776444544681519600,28.53651953125,-0.070953369140625,0.1575927734375,-1.0499267578125
1776444544706537500,28.561537353515625,-0.08441162109375,0.04388427734375,-1.010833740234375
1776444544731555600,28.5865556640625,0.020416259765625,0.0173797607421875,-0.9505157470703125
1776444544756573700,28.61157373046875,-0.0861663818359375,-0.0121002197265625,-1.0312347412109375
1776444544781591600,28.636591552734377,-0.09991455078125,0.13824462890625,-1.1223602294921875
1776444544806608600,28.661608642578123,0.069793701171875,0.122650146484375,-1.1661224365234375
1776444544831626800,28.686626708984374,-0.035797119140625,0.0384979248046875,-1.109100341796875
1776444544856644600,28.71164453125,-0.0102691650390625,0.053558349609375,-1.07550048828125
1776444544881662700,28.736662841796875,0.0261077880859375,0.0546417236328125,-0.957763671875
1776444544906679600,28.761679443359377,-0.0000152587890625,-0.00616455078125,-1.1233978271484375
1776444544931697700,28.78669775390625,-0.015838623046875,0.0626983642578125,-0.991729736328125
1776444544956715500,28.811715576171874,-0.11981201171875,0.0346832275390625,-0.9019927978515625
1776444544981733600,28.836733642578125,-0.0340118408203125,0.0564117431640625,-1.037109375
1776444545006751500,28.86175146484375,-0.01934814453125,0.0531768798828125,-1.050140380859375
1776444545031769600,28.88676953125,-0.1180877685546875,-0.0019073486328125,-0.9975738525390625
1776444545056786400,28.911786376953124,-0.0791778564453125,0.02215576171875,-0.8727569580078125
1776444545081804500,28.936804443359375,-0.1474761962890625,-0.0284423828125,-0.7884063720703125
1776444545106822400,28.961822509765625,-0.1687774658203125,-0.07440185546875,-0.80023193359375
1776444545131840800,28.9868408203125,-0.1069183349609375,-0.091400146484375,-0.85284423828125
1776444545156858600,29.011858642578126,0.0274810791015625,-0.0063934326171875,-0.9530181884765625
1776444545181875000,29.036875,0.153411865234375,-0.0076446533203125,-1.09521484375
1776444545206893000,29.06189306640625,0.1513519287109375,-0.061126708984375,-1.113311767578125
1776444545231911000,29.086910888671873,0.072967529296875,-0.1251373291015625,-1.075103759765625
1776444545256929000,29.111928955078124,0.1209869384765625,-0.1343841552734375,-1.1477508544921875
1776444545281947000,29.13694677734375,0.194488525390625,-0.1107025146484375,-1.2198944091796875
1776444545306964000,29.1619638671875,0.132965087890625,-0.1512298583984375,-1.2778167724609375
1776444545331981800,29.18698193359375,0.1087188720703125,-0.09918212890625,-1.1102142333984375
1776444545357000000,29.212,0.1295166015625,-0.08734130859375,-1.038116455078125
1776444545382017800,29.237017822265624,0.0456085205078125,-0.1772918701171875,-0.988372802734375
1776444545407036200,29.2620361328125,-0.0623931884765625,-0.1714630126953125,-0.9774017333984375
1776444545432052700,29.287052734375,-0.10369873046875,-0.11285400390625,-0.930084228515625
1776444545457071000,29.312071044921876,-0.125579833984375,-0.091461181640625,-0.934112548828125
1776444545482089000,29.3370888671875,-0.1992645263671875,-0.055816650390625,-0.920166015625
1776444545507107000,29.362107177734377,-0.178497314453125,-0.0010223388671875,-0.921661376953125
1776444545532125000,29.387125,-0.150421142578125,0.0657806396484375,-0.9073944091796875
1776444545557142000,29.41214208984375,-0.068817138671875,0.1190338134765625,-0.9065399169921875
1776444545582160000,29.437159912109376,-0.0753326416015625,0.0897064208984375,-0.9013214111328125
1776444545607178000,29.462177978515626,-0.0920257568359375,0.0591583251953125,-0.918182373046875
1776444545632195800,29.48719580078125,-0.0912628173828125,0.0359649658203125,-0.9509124755859375
1776444545657214000,29.5122138671875,-0.06585693359375,0.0171051025390625,-0.9840240478515625
1776444545682231000,29.53723095703125,0.0067901611328125,0.06494140625,-1.0236663818359375
1776444545707249000,29.562248779296876,-0.0330810546875,-0.0244140625,-1.02008056640625
1776444545732267000,29.58726708984375,-0.083892822265625,-0.065582275390625,-1.0141143798828125
1776444545757284900,29.612284912109374,-0.1075592041015625,-0.1020355224609375,-1.0023193359375
1776444545782303000,29.637302978515624,-0.134918212890625,-0.115478515625,-0.9857177734375
1776444545807319800,29.66231982421875,-0.1409149169921875,-0.1121978759765625,-0.9869537353515625
1776444545832338000,29.687337890625,-0.1579132080078125,-0.0970916748046875,-1.002532958984375
1776444545857356000,29.71235595703125,-0.1820068359375,-0.1005706787109375,-0.9694366455078125
1776444545882374100,29.7373740234375,-0.0963897705078125,-0.0458221435546875,-0.9824981689453125
1776444545907391000,29.762390869140624,-0.1438446044921875,0.0193023681640625,-1.164520263671875
1776444545932409000,29.7874091796875,-0.265899658203125,0.01300048828125,-1.0637969970703125
1776444545957427000,29.812427001953125,-0.152130126953125,-0.085052490234375,-1.018646240234375
1776444545982445000,29.837445068359376,-0.1618499755859375,-0.119720458984375,-0.9659576416015625
1776444546007463000,29.862462890625,-0.1335906982421875,-0.22381591796875,-0.895111083984375
1776444546032480000,29.88747998046875,-0.1182098388671875,-0.23370361328125,-0.9056396484375
1776444546057497900,29.912497802734375,-0.0732879638671875,-0.1823577880859375,-0.970703125
1776444546082516000,29.937515869140626,-0.2280426025390625,-0.13037109375,-0.951141357421875
1776444546107533800,29.962533935546876,-0.1867828369140625,-0.1043701171875,-0.9865570068359375
1776444546132552000,29.987552001953127,-0.180694580078125,0.023590087890625,-0.9519500732421875
1776444546157569000,30.012569091796873,-0.1640167236328125,0.036834716796875,-0.988739013671875
1776444546182587400,30.03758740234375,-0.1168975830078125,0.1057281494140625,-0.9515228271484375
1776444546207605200,30.062605224609374,-0.0306396484375,0.1128692626953125,-0.996368408203125
1776444546232623400,30.087623291015625,-0.08404541015625,0.0889892578125,-1.0141754150390625
1776444546257641200,30.11264111328125,-0.0852508544921875,0.0552978515625,-1.04864501953125
1776444546282658300,30.137658203125,-0.141448974609375,-0.0074462890625,-1.1349029541015625
1776444546307676400,30.162676513671876,-0.20074462890625,-0.0475616455078125,-1.1751251220703125
1776444546332694300,30.1876943359375,-0.2083892822265625,-0.0981292724609375,-1.1251983642578125
1776444546357712400,30.21271240234375,-0.1878662109375,-0.1677703857421875,-1.0774078369140625
1776444546382729200,30.237729248046875,-0.0698699951171875,-0.1655120849609375,-1.0121917724609375
1776444546407747300,30.262747314453126,-0.1275787353515625,-0.118377685546875,-0.969512939453125
1776444546432765200,30.28776513671875,0.0496063232421875,0.104034423828125,-0.856536865234375
1776444546457783600,30.312783447265623,-0.1478424072265625,0.0811004638671875,-0.85723876953125
1776444546482801400,30.337801513671874,-0.0803070068359375,0.0810089111328125,-0.876007080078125
1776444546507818500,30.362818603515624,0.0482940673828125,0.1168060302734375,-0.898468017578125
1776444546532836400,30.38783642578125,-0.11639404296875,-0.0109710693359375,-0.9085540771484375
1776444546557854500,30.4128544921875,-0.168670654296875,-0.045867919921875,-0.9297637939453125
1776444546582872300,30.437872314453124,-0.122833251953125,-0.010467529296875,-0.9383697509765625
1776444546607889400,30.462889404296874,-0.1203765869140625,-0.0087432861328125,-0.9447021484375
1776444546632907300,30.4879072265625,-0.20794677734375,-0.0106658935546875,-0.9498748779296875
1776444546657925400,30.51292529296875,-0.0252685546875,0.1163177490234375,-0.9566192626953125
1776444546682943200,30.537943115234373,-0.0499420166015625,0.101898193359375,-0.98583984375
1776444546707961300,30.56296142578125,-0.2030029296875,-0.00909423828125,-1.0306549072265625
1776444546732978400,30.587978515625,-0.13690185546875,0.0381317138671875,-1.0351409912109375
1776444546757996300,30.612996337890625,-0.014984130859375,0.09954833984375,-0.976654052734375
1776444546783014400,30.638014404296875,-0.2061004638671875,-0.0657196044921875,-0.99945068359375
1776444546808032300,30.6630322265625,-0.2159271240234375,-0.098541259765625,-1.021270751953125
1776444546833049300,30.68804931640625,-0.2133026123046875,-0.0955352783203125,-1.0135040283203125
1776444546858067200,30.713067138671875,-0.1688690185546875,-0.1239776611328125,-1.0959625244140625
1776444546883085300,30.738085205078125,-0.1032257080078125,-0.0653076171875,-1.0708770751953125
1776444546908103200,30.763103271484376,-0.1137237548828125,-0.123687744140625,-1.1339569091796875
1776444546933121500,30.78812158203125,-0.1365509033203125,-0.149383544921875,-1.1870880126953125
1776444546958138000,30.81313818359375,-0.04351806640625,-0.06207275390625,-1.1576385498046875
1776444546983156500,30.838156494140627,-0.0652313232421875,-0.0659027099609375,-1.169036865234375
1776444547008174300,30.86317431640625,-0.0432891845703125,-0.06732177734375,-1.191192626953125
1776444547033192400,30.8881923828125,-0.0214691162109375,-0.0391082763671875,-1.12274169921875
1776444547058209500,30.91320947265625,-0.0852508544921875,-0.0614776611328125,-1.093841552734375
1776444547083227400,30.938227294921877,-0.088134765625,-0.043792724609375,-1.0624542236328125
1776444547108245200,30.963245361328124,-0.0546875,-0.0030517578125,-0.9353179931640625
1776444547133263400,30.988263427734374,-0.15203857421875,-0.041961669921875,-0.8827362060546875
1776444547158281200,31.01328125,-0.2178497314453125,-0.0738525390625,-0.931365966796875
1776444547183302000,31.038302001953124,-0.1140289306640625,0.043060302734375,-0.9034423828125
1776444547208320000,31.063320068359374,-0.048675537109375,0.01611328125,-0.778045654296875
1776444547233337900,31.088337890625,-0.238739013671875,-0.0563201904296875,-0.815887451171875
1776444547258356000,31.11335595703125,-0.1839447021484375,-0.0383758544921875,-0.84429931640625
1776444547283372800,31.138372802734374,-0.0537261962890625,0.054290771484375,-0.787567138671875
1776444547308391000,31.163390869140624,0.0008392333984375,0.019989013671875,-0.759033203125
1776444547333408800,31.18840869140625,-0.06640625,-0.109771728515625,-0.9774322509765625
1776444547358427000,31.213427001953125,-0.1590423583984375,-0.1415557861328125,-1.051361083984375
1776444547383443700,31.238443603515623,-0.1875457763671875,-0.06805419921875,-1.0033721923828125
1776444547408461800,31.2634619140625,-0.1544952392578125,0.09393310546875,-1.01019287109375
1776444547433479700,31.288479736328124,-0.090423583984375,0.070556640625,-1.1118316650390625
1776444547458497800,31.313497802734375,-0.1200714111328125,-0.0505828857421875,-1.117767333984375
1776444547483515600,31.338515625,-0.08209228515625,-0.0763702392578125,-1.0301971435546875
1776444547508532700,31.36353271484375,-0.037322998046875,0.0217437744140625,-0.9784393310546875
1776444547533550800,31.38855078125,0.0375518798828125,0.0122528076171875,-0.983795166015625
1776444547558569000,31.41356884765625,0.054046630859375,-0.051361083984375,-0.9228668212890625
1776444547583586800,31.4385869140625,-0.033935546875,-0.0739593505859375,-0.9044342041015625
1776444547608604000,31.46360400390625,-0.01934814453125,-0.018585205078125,-0.901580810546875
1776444547633622000,31.4886220703125,-0.0305328369140625,-0.1114654541015625,-0.969757080078125
1776444547658640000,31.513639892578126,-0.04852294921875,-0.2230224609375,-0.9783477783203125
1776444547683658000,31.538657958984373,-0.074188232421875,-0.2474212646484375,-0.9449462890625
1776444547708674800,31.5636748046875,-0.092376708984375,-0.209136962890625,-0.911407470703125
1776444547733693000,31.58869287109375,-0.11846923828125,-0.17474365234375,-0.97174072265625
1776444547758710800,31.613710693359376,-0.155548095703125,-0.1377410888671875,-1.0352935791015625
1776444547783729000,31.63872900390625,-0.1549072265625,-0.125152587890625,-1.0389862060546875
1776444547808746000,31.66374609375,-0.1365966796875,-0.1241607666015625,-1.0125274658203125
1776444547833763800,31.688763916015624,-0.1506500244140625,-0.084686279296875,-1.049224853515625
1776444547858781700,31.71378173828125,-0.15264892578125,-0.048309326171875,-1.052947998046875
1776444547883799800,31.7387998046875,-0.145355224609375,-0.07379150390625,-1.0904388427734375
1776444547908817000,31.76381689453125,-0.1218414306640625,-0.09100341796875,-1.0540008544921875
1776444547933834800,31.788834716796874,-0.130096435546875,-0.087005615234375,-1.009307861328125
1776444547958852900,31.813852783203124,-0.108856201171875,-0.116943359375,-0.9782562255859375
1776444547983870700,31.83887060546875,-0.1094970703125,-0.0937652587890625,-1.0142364501953125
1776444548008887800,31.8638876953125,-0.088714599609375,-0.0999755859375,-1.024444580078125
1776444548033905700,31.88890576171875,-0.0827789306640625,-0.1226654052734375,-0.9782867431640625
1776444548058924000,31.913924072265626,-0.0731353759765625,-0.109771728515625,-0.9839019775390625
1776444548083942000,31.93894189453125,-0.0755157470703125,-0.1438751220703125,-1.03411865234375
1776444548108959000,31.963958984375,-0.0728759765625,-0.1702117919921875,-1.045501708984375
