time,seconds_elapsed,z,y,x
1776444516244636200,0.09963623046875,-39.5748291015625,10.507568359375,12.528457641601562
1776444516269654000,0.124654052734375,-40.006134033203125,10.299880981445312,12.599365234375
1776444516294673200,0.149673095703125,-40.093505859375,10.163650512695312,13.073410034179688
1776444516319691300,0.174691162109375,-40.557281494140625,10.14752197265625,12.750961303710938
1776444516344710100,0.199710205078125,-40.74786376953125,10.19146728515625,12.792587280273438
1776444516369728000,0.22472802734375,-40.441558837890625,10.136993408203125,12.6611328125
1776444516394747100,0.2497470703125,-40.644012451171875,10.26885986328125,12.975021362304688
1776444516419765000,0.274764892578125,-40.4765625,10.219772338867188,13.087799072265625
1776444516444784000,0.2997841796875,-40.84564208984375,9.804779052734375,13.1748046875
1776444516469802200,0.32480224609375,-40.363067626953125,10.084564208984375,13.385116577148438
1776444516494821000,0.349821044921875,-40.590057373046875,9.819351196289062,13.38995361328125
1776444516519839000,0.3748388671875,-40.295989990234375,9.633255004882812,13.158920288085938
1776444516544857900,0.39985791015625,-40.48077392578125,9.636398315429688,13.362579345703125
1776444516569876200,0.424876220703125,-40.27996826171875,9.724746704101562,13.487106323242188
1776444516594895000,0.44989501953125,-40.29742431640625,9.441436767578125,13.641586303710938
1776444516619913200,0.474913330078125,-40.019378662109375,9.638229370117188,13.712448120117188
1776444516644932000,0.49993212890625,-40.415802001953125,9.706375122070312,14.1549072265625
1776444516669950000,0.524949951171875,-39.843505859375,10.045303344726562,15.094589233398438
1776444516694969000,0.549968994140625,-39.92437744140625,10.090042114257812,15.678497314453125
1776444516719987200,0.5749873046875,-38.9244384765625,10.148056030273438,16.804306030273438
1776444516745006000,0.600006103515625,-38.9366455078125,10.398040771484375,17.171890258789062
1776444516770024000,0.62502392578125,-38.3973388671875,10.331375122070312,18.353851318359375
1776444516795043000,0.65004296875,-38.057403564453125,10.341278076171875,18.60614013671875
1776444516820061200,0.675061279296875,-37.668731689453125,9.704299926757812,18.853836059570312
1776444516845080000,0.700080078125,-37.893218994140625,9.368499755859375,18.804412841796875
1776444516870098200,0.72509814453125,-38.32794189453125,8.637100219726562,18.847396850585938
1776444516895117000,0.750116943359375,-38.496795654296875,8.123809814453125,18.9263916015625
1776444516920135000,0.775135009765625,-38.362274169921875,7.1408233642578125,18.717391967773438
1776444516945154300,0.800154296875,-39.096923828125,6.4130859375,18.688430786132812
1776444516970172200,0.825172119140625,-38.719085693359375,5.4074249267578125,18.735061645507812
1776444516995191000,0.85019091796875,-38.937225341796875,4.7005767822265625,18.503768920898438
1776444517020209200,0.875209228515625,-38.867156982421875,4.0402069091796875,18.807266235351562
1776444517045228000,0.90022802734375,-39.036102294921875,3.4429473876953125,18.591049194335938
1776444517070246000,0.925245849609375,-39.369110107421875,2.158782958984375,18.211578369140625
1776444517095265000,0.95026513671875,-39.62835693359375,1.04974365234375,18.15411376953125
1776444517120283100,0.975283203125,-39.44830322265625,-0.3228302001953125,18.309280395507812
1776444517145301800,1.0003017578125,-39.89105224609375,-1.42987060546875,18.004501342773438
1776444517170320000,1.02531982421875,-39.722137451171875,-3.0377044677734375,17.3355712890625
1776444517195338800,1.0503388671875,-40.00726318359375,-3.9981231689453125,17.432907104492188
1776444517220356600,1.075356689453125,-40.19464111328125,-5.3426666259765625,16.6405029296875
1776444517245375700,1.100375732421875,-40.254730224609375,-5.964935302734375,16.590057373046875
1776444517270393600,1.1253935546875,-40.38250732421875,-6.996368408203125,15.462615966796875
1776444517295412700,1.150412841796875,-40.575531005859375,-8.104293823242188,15.455154418945312
1776444517320430800,1.175430908203125,-39.85986328125,-8.967453002929688,14.538406372070312
1776444517345449700,1.20044970703125,-40.235321044921875,-9.645751953125,14.700759887695312
1776444517370467600,1.225467529296875,-40.04754638671875,-10.314590454101562,14.034912109375
1776444517395486700,1.25048681640625,-40.13983154296875,-10.270431518554688,13.927032470703125
1776444517420504800,1.2755048828125,-40.580841064453125,-10.847213745117188,13.200820922851562
1776444517445522700,1.300522705078125,-40.2720947265625,-11.245025634765625,13.028335571289062
1776444517470541800,1.325541748046875,-40.8470458984375,-11.811660766601562,12.106964111328125
1776444517495559700,1.3505595703125,-40.466888427734375,-12.064163208007812,11.79620361328125
1776444517520578600,1.37557861328125,-40.345611572265625,-12.157516479492188,11.929031372070312
1776444517545596700,1.4005966796875,-40.803558349609375,-12.079299926757812,11.683364868164062
1776444517570615800,1.42561572265625,-40.8394775390625,-12.761337280273438,11.180496215820312
1776444517595633700,1.450633544921875,-40.766937255859375,-13.1192626953125,11.06134033203125
1776444517620652800,1.47565283203125,-40.665557861328125,-13.79315185546875,10.694366455078125
1776444517645670700,1.500670654296875,-40.65765380859375,-14.076309204101562,10.28509521484375
1776444517670689800,1.525689697265625,-40.29412841796875,-14.657302856445312,9.795547485351562
1776444517695708000,1.5507080078125,-40.4515380859375,-15.527587890625,9.31121826171875
1776444517720726800,1.575726806640625,-41.04840087890625,-15.880142211914062,8.296966552734375
1776444517745744600,1.60074462890625,-40.46142578125,-16.547439575195312,7.6441802978515625
1776444517770763500,1.625763427734375,-40.579437255859375,-17.275543212890625,6.602508544921875
1776444517795781600,1.65078173828125,-40.56744384765625,-17.83270263671875,6.0490875244140625
1776444517820800800,1.67580078125,-40.770477294921875,-18.09564208984375,4.9862823486328125
1776444517845819000,1.70081884765625,-40.47723388671875,-18.1708984375,4.264892578125
1776444517870836700,1.725836669921875,-39.78546142578125,-18.90673828125,3.725616455078125
1776444517895855600,1.750855712890625,-40.1571044921875,-19.175430297851562,3.256805419921875
1776444517920873700,1.775873779296875,-40.0357666015625,-19.840591430664062,2.5142059326171875
1776444517945892900,1.800892822265625,-39.1888427734375,-20.1751708984375,2.2342681884765625
1776444517970910700,1.82591064453125,-39.580963134765625,-20.491714477539062,1.5979156494140625
1776444517995929600,1.8509296875,-39.446807861328125,-21.36932373046875,0.741546630859375
1776444518020947700,1.87594775390625,-38.976104736328125,-21.761520385742188,0.231170654296875
1776444518045966600,1.900966552734375,-38.558380126953125,-22.79522705078125,-0.968048095703125
1776444518070984700,1.925984619140625,-38.1444091796875,-22.88916015625,-1.9197998046875
1776444518096003800,1.95100390625,-38.381072998046875,-23.210235595703125,-3.451904296875
1776444518121021700,1.976021728515625,-37.834228515625,-23.041168212890625,-4.8080596923828125
1776444518146037500,2.00103759765625,-37.781402587890625,-22.561447143554688,-7.07086181640625
1776444518171055600,2.0260556640625,-37.534759521484375,-22.211090087890625,-8.55279541015625
1776444518196074500,2.051074462890625,-37.3529052734375,-21.82269287109375,-10.382598876953125
1776444518221092400,2.07609228515625,-37.531280517578125,-21.4075927734375,-11.115814208984375
1776444518246110500,2.1011103515625,-37.49591064453125,-20.954849243164062,-11.646194458007812
1776444518271129600,2.126129638671875,-37.5084228515625,-20.089950561523438,-12.3392333984375
1776444518296147700,2.151147705078125,-38.54608154296875,-19.12432861328125,-13.103225708007812
1776444518321166600,2.17616650390625,-38.743133544921875,-18.489593505859375,-13.498123168945312
1776444518346184400,2.201184326171875,-39.15740966796875,-16.951568603515625,-13.7230224609375
1776444518371203300,2.226203369140625,-39.170013427734375,-16.755142211914062,-14.180923461914062
1776444518396221400,2.251221435546875,-39.48492431640625,-16.059280395507812,-14.61328125
1776444518421240600,2.276240478515625,-39.081451416015625,-15.65478515625,-14.97100830078125
1776444518446258400,2.301258544921875,-38.687286376953125,-15.231201171875,-16.318740844726562
1776444518471277600,2.326277587890625,-38.163238525390625,-14.7388916015625,-17.395294189453125
1776444518496295400,2.35129541015625,-38.15350341796875,-13.97442626953125,-18.541534423828125
1776444518521314600,2.376314453125,-38.251922607421875,-13.65899658203125,-19.061767578125
1776444518546332700,2.401332763671875,-38.057403564453125,-13.373214721679688,-19.719467163085938
1776444518571350500,2.4263505859375,-37.555877685546875,-12.86297607421875,-20.26708984375
1776444518596369400,2.451369384765625,-37.5399169921875,-13.062118530273438,-20.761184692382812
1776444518621387500,2.476387451171875,-37.53387451171875,-13.014358520507812,-20.722991943359375
1776444518646406400,2.501406494140625,-37.5787353515625,-13.13372802734375,-21.001846313476562
1776444518671424500,2.526424560546875,-37.252838134765625,-12.888351440429688,-21.2843017578125
1776444518696443600,2.551443603515625,-37.0008544921875,-12.706771850585938,-22.117431640625
1776444518721461500,2.57646142578125,-36.611358642578125,-12.453704833984375,-22.492889404296875
1776444518746480400,2.60148046875,-36.322357177734375,-11.877273559570312,-22.996017456054688
1776444518771498500,2.62649853515625,-36.183013916015625,-11.2117919921875,-23.79827880859375
1776444518796517600,2.651517578125,-35.926177978515625,-10.385330200195312,-24.740676879882812
1776444518821535500,2.676535400390625,-36.223663330078125,-9.759124755859375,-24.765045166015625
1776444518846553600,2.7015537109375,-35.978759765625,-9.040054321289062,-24.7325439453125
1776444518871572500,2.726572509765625,-35.959716796875,-8.593826293945312,-24.817031860351562
1776444518896590600,2.751590576171875,-36.916839599609375,-8.240997314453125,-24.335891723632812
1776444518921609500,2.776609375,-37.07452392578125,-8.128372192382812,-23.682205200195312
1776444518946627600,2.801627685546875,-37.56121826171875,-7.840850830078125,-23.25225830078125
1776444518971646500,2.826646484375,-37.295501708984375,-7.8421630859375,-22.808761596679688
1776444518996664600,2.85166455078125,-37.539215087890625,-7.720367431640625,-22.8031005859375
1776444519021683500,2.876683349609375,-37.9862060546875,-7.08258056640625,-22.288070678710938
1776444519046701300,2.901701416015625,-38.324249267578125,-6.4510345458984375,-21.291183471679688
1776444519071720700,2.926720703125,-38.9033203125,-6.19329833984375,-20.8123779296875
1776444519096738600,2.951738525390625,-39.372161865234375,-5.7196502685546875,-19.895767211914062
1776444519121756700,2.976756591796875,-39.536895751953125,-5.668426513671875,-19.642776489257812
1776444519146775600,3.001775634765625,-39.75048828125,-5.362274169921875,-19.111495971679688
1776444519171793700,3.026793701171875,-39.483001708984375,-4.8773345947265625,-18.902084350585938
1776444519196812500,3.0518125,-39.709869384765625,-4.1988067626953125,-18.787155151367188
1776444519221830700,3.07683056640625,-39.932403564453125,-3.048095703125,-18.631484985351562
1776444519246849500,3.101849609375,-39.918365478515625,-1.721466064453125,-18.477294921875
1776444519271867400,3.126867431640625,-39.731201171875,-1.0276641845703125,-18.225112915039062
1776444519296886800,3.15188671875,-39.91094970703125,-0.014007568359375,-18.1097412109375
1776444519321904600,3.176904541015625,-39.69122314453125,0.5228729248046875,-17.860321044921875
1776444519346922800,3.2019228515625,-39.963165283203125,2.0980072021484375,-17.558441162109375
1776444519371941600,3.226941650390625,-39.997528076171875,2.648468017578125,-17.261276245117188
1776444519396959500,3.25195947265625,-39.999969482421875,3.581878662109375,-16.323715209960938
1776444519421978400,3.276978271484375,-40.01318359375,4.217559814453125,-15.964080810546875
1776444519446996700,3.301996826171875,-40.413818359375,5.180419921875,-15.167877197265625
1776444519472015600,3.327015625,-40.163482666015625,5.472991943359375,-14.963638305664062
1776444519497033500,3.352033447265625,-40.605621337890625,6.1727752685546875,-14.2177734375
1776444519522052600,3.377052490234375,-40.89111328125,6.2459259033203125,-14.080154418945312
1776444519547070500,3.402070556640625,-40.6142578125,6.147186279296875,-13.903778076171875
1776444519572088600,3.427088623046875,-40.780853271484375,5.850830078125,-13.92425537109375
1776444519597107700,3.452107666015625,-40.59942626953125,5.9856109619140625,-14.147171020507812
1776444519622125600,3.47712548828125,-40.750030517578125,6.05810546875,-14.234710693359375
1776444519647144400,3.50214453125,-40.388397216796875,6.4419403076171875,-14.492034912109375
1776444519672162600,3.52716259765625,-40.362701416015625,6.80712890625,-14.017471313476562
1776444519697181700,3.552181640625,-40.468597412109375,7.666534423828125,-13.443756103515625
1776444519722199600,3.577199462890625,-40.453155517578125,8.493316650390625,-12.64862060546875
1776444519747218700,3.60221875,-40.119476318359375,9.85040283203125,-11.642303466796875
1776444519772236500,3.627236572265625,-39.830841064453125,10.968048095703125,-10.164901733398438
1776444519797254700,3.652254638671875,-40.2318115234375,12.426803588867188,-8.957504272460938
1776444519822273500,3.6772734375,-40.501800537109375,13.249725341796875,-7.888214111328125
1776444519847291600,3.702291748046875,-40.7232666015625,14.162750244140625,-5.5666351318359375
1776444519872310500,3.727310546875,-40.8128662109375,14.691619873046875,-4.0279998779296875
1776444519897328600,3.75232861328125,-40.511566162109375,15.082260131835938,-2.5809173583984375
1776444519922347500,3.777347412109375,-40.3592529296875,15.334915161132812,-1.70196533203125
1776444519947365600,3.80236572265625,-40.48883056640625,15.48345947265625,-0.7806854248046875
1776444519972383500,3.827383544921875,-40.363677978515625,16.123214721679688,0.4031829833984375
1776444519997402600,3.852402587890625,-40.195068359375,16.414337158203125,1.2360687255859375
1776444520022420700,3.877420654296875,-39.967437744140625,16.397872924804688,2.3411865234375
1776444520047439600,3.902439697265625,-40.038848876953125,16.51898193359375,2.8510284423828125
1776444520072457500,3.92745751953125,-40.003509521484375,16.623321533203125,3.6684112548828125
1776444520097476600,3.9524765625,-40.356231689453125,16.5482177734375,4.292144775390625
1776444520122494700,3.97749462890625,-39.518402099609375,16.5146484375,4.4521636962890625
1776444520147512800,4.002512939453125,-39.79217529296875,15.993927001953125,4.87921142578125
1776444520172531000,4.027531005859375,-39.413177490234375,15.7451171875,5.77935791015625
1776444520197548800,4.052548828125,-40.153839111328125,15.47857666015625,6.5462799072265625
1776444520222568000,4.07756787109375,-40.180816650390625,14.669769287109375,7.4237213134765625
1776444520247586000,4.1025859375,-40.519561767578125,14.497055053710938,7.715484619140625
1776444520272605000,4.12760498046875,-40.225738525390625,13.888870239257812,8.443099975585938
1776444520297623000,4.152623046875,-40.27008056640625,13.50311279296875,9.007675170898438
1776444520322642000,4.177641845703125,-39.969390869140625,12.821212768554688,9.902877807617188
1776444520347660000,4.202659912109375,-40.199005126953125,12.450973510742188,10.217636108398438
1776444520372678100,4.22767822265625,-40.626068115234375,11.686676025390625,10.96063232421875
1776444520397697000,4.252697021484375,-40.425537109375,11.089035034179688,11.423309326171875
1776444520422715000,4.27771484375,-40.944580078125,10.082977294921875,12.44964599609375
1776444520447733800,4.302733642578125,-40.598175048828125,9.263198852539062,12.9931640625
1776444520472751900,4.327751953125,-40.718292236328125,8.364990234375,13.151657104492188
1776444520497771000,4.35277099609375,-41.2755126953125,7.3446502685546875,13.153274536132812
1776444520522789000,4.3777890625,-40.896453857421875,6.2366485595703125,13.115692138671875
1776444520547807000,4.402806884765625,-41.39788818359375,5.8310699462890625,13.059036254882812
1776444520572825900,4.427825927734375,-41.393646240234375,5.0963134765625,12.654815673828125
1776444520597844000,4.452843994140625,-41.766510009765625,4.61865234375,12.304336547851562
1776444520622863000,4.477863037109375,-41.917633056640625,4.379364013671875,11.931777954101562
1776444520647881000,4.502880859375,-42.379974365234375,3.738128662109375,11.63275146484375
1776444520672899000,4.527899169921875,-42.250274658203125,3.5022430419921875,11.628585815429688
1776444520697918000,4.55291796875,-42.602996826171875,3.0016021728515625,11.662460327148438
1776444520722935800,4.577935791015625,-42.7086181640625,2.4215545654296875,10.973785400390625
1776444520747955200,4.602955078125,-42.93780517578125,2.008087158203125,11.026153564453125
1776444520772973000,4.62797314453125,-42.9683837890625,1.6226654052734375,10.50030517578125
1776444520797992000,4.652991943359375,-42.926513671875,1.370452880859375,10.069473266601562
1776444520823010000,4.678010009765625,-42.69482421875,1.0372314453125,9.794479370117188
1776444520848028000,4.70302783203125,-42.876068115234375,1.00616455078125,9.461318969726562
1776444520873046800,4.728046875,-43.0924072265625,0.4046478271484375,9.461624145507812
1776444520898065000,4.75306494140625,-43.02484130859375,0.5370635986328125,9.32855224609375
1776444520923084000,4.778083984375,-43.140380859375,0.38812255859375,8.857421875
1776444520948102000,4.803101806640625,-43.423980712890625,0.5042724609375,9.059661865234375
1776444520973120000,4.8281201171875,-43.17364501953125,-0.0264892578125,8.811141967773438
1776444520998139000,4.853138916015625,-43.319091796875,0.18841552734375,9.150421142578125
1776444521023157000,4.878156982421875,-43.000091552734375,0.328399658203125,10.074554443359375
1776444521048176000,4.903176025390625,-42.864471435546875,0.465667724609375,10.963699340820312
1776444521073194000,4.928194091796875,-42.311920166015625,0.1967926025390625,12.713943481445312
1776444521098212900,4.953212890625,-41.5469970703125,-0.1381683349609375,13.902084350585938
1776444521123231000,4.97823095703125,-41.432159423828125,-0.971771240234375,15.346939086914062
1776444521148249000,5.0032490234375,-40.615203857421875,-1.441131591796875,16.066864013671875
1776444521173268000,5.02826806640625,-40.30224609375,-2.9838104248046875,17.720199584960938
1776444521198286000,5.0532861328125,-39.9632568359375,-3.8277587890625,18.190582275390625
1776444521223305000,5.078304931640625,-39.51416015625,-5.4021759033203125,18.654159545898438
1776444521248323300,5.1033232421875,-39.36114501953125,-6.5221405029296875,18.778778076171875
1776444521273341200,5.128341064453125,-39.272186279296875,-8.037994384765625,18.639022827148438
1776444521298360000,5.153360107421875,-38.785858154296875,-9.234207153320312,18.720596313476562
1776444521323378200,5.178378173828125,-39.002288818359375,-10.60107421875,18.584747314453125
1776444521348397000,5.20339697265625,-39.01824951171875,-11.131973266601562,18.351211547851562
1776444521373415000,5.228414794921875,-38.4893798828125,-12.075103759765625,18.716033935546875
1776444521398433300,5.253433349609375,-38.56298828125,-12.621414184570312,19.058731079101562
1776444521423452200,5.2784521484375,-38.127349853515625,-13.143081665039062,18.395660400390625
1776444521448470000,5.303469970703125,-38.540283203125,-13.601394653320312,18.0001220703125
1776444521473489200,5.3284892578125,-38.360382080078125,-14.354202270507812,16.982009887695312
1776444521498507000,5.353507080078125,-38.657684326171875,-14.54412841796875,16.38409423828125
1776444521523525000,5.378525146484375,-38.728790283203125,-14.395797729492188,15.240814208984375
1776444521548544300,5.403544189453125,-38.740631103515625,-14.404754638671875,14.853042602539062
1776444521573562000,5.42856201171875,-38.974609375,-14.64581298828125,14.88165283203125
1776444521598581000,5.4535810546875,-39.428192138671875,-14.872772216796875,14.960845947265625
1776444521623599000,5.47859912109375,-39.02447509765625,-15.286895751953125,14.976058959960938
1776444521648617000,5.503616943359375,-38.429412841796875,-15.488555908203125,15.315536499023438
1776444521673636000,5.528635986328125,-38.36865234375,-15.807891845703125,15.863372802734375
1776444521698654200,5.553654296875,-37.8463134765625,-15.864578247070312,16.889236450195312
1776444521723673000,5.578673095703125,-37.723846435546875,-16.334747314453125,17.458450317382812
1776444521748691200,5.603691162109375,-37.522186279296875,-16.355178833007812,17.3720703125
1776444521773709000,5.628708984375,-37.997100830078125,-16.693161010742188,16.430007934570312
1776444521798728000,5.65372802734375,-38.28466796875,-17.281600952148438,15.801025390625
1776444521823746300,5.678746337890625,-38.2244873046875,-17.88531494140625,15.123092651367188
1776444521848764200,5.70376416015625,-38.026611328125,-18.537124633789062,14.360595703125
1776444521873783000,5.728782958984375,-37.914642333984375,-18.753036499023438,14.332305908203125
1776444521898801200,5.75380126953125,-37.6920166015625,-19.162139892578125,13.9669189453125
1776444521923820000,5.778820068359375,-38.015899658203125,-19.566436767578125,13.762619018554688
1776444521948838000,5.803837890625,-37.648223876953125,-19.80133056640625,13.515457153320312
1776444521973856000,5.82885595703125,-37.907562255859375,-20.131271362304688,12.923263549804688
1776444521998875100,5.853875244140625,-38.0960693359375,-20.437896728515625,12.75555419921875
1776444522023893000,5.87889306640625,-37.350921630859375,-20.769500732421875,12.295440673828125
1776444522048912100,5.903912109375,-37.967803955078125,-21.424224853515625,11.669967651367188
1776444522073930000,5.928929931640625,-37.29754638671875,-21.659423828125,11.287750244140625
1776444522098948000,5.953947998046875,-37.872161865234375,-22.144805908203125,9.933258056640625
1776444522123967200,5.97896728515625,-37.7132568359375,-22.42205810546875,9.055221557617188
1776444522148984800,6.00398486328125,-38.116119384765625,-22.601089477539062,7.80987548828125
1776444522174003200,6.029003173828125,-38.214935302734375,-22.53753662109375,7.02581787109375
1776444522199022000,6.05402197265625,-38.242645263671875,-22.783798217773438,6.3798980712890625
1776444522224040000,6.0790400390625,-37.9078369140625,-22.94354248046875,6.4923095703125
1776444522249059000,6.10405908203125,-37.891845703125,-23.117111206054688,5.3961181640625
1776444522274077000,6.129076904296875,-38.204437255859375,-23.309036254882812,4.6220245361328125
1776444522299095000,6.154094970703125,-38.0865478515625,-23.004486083984375,3.2340545654296875
1776444522324114200,6.1791142578125,-38.165985107421875,-23.42462158203125,2.130859375
1776444522349132000,6.204132080078125,-38.522918701171875,-23.718963623046875,0.0354156494140625
1776444522374150100,6.229150146484375,-38.319244384765625,-23.78570556640625,-1.00579833984375
1776444522399169000,6.2541689453125,-38.370025634765625,-23.8043212890625,-2.8943328857421875
1776444522424187000,6.279186767578125,-38.137176513671875,-23.861114501953125,-3.6642303466796875
1776444522449206000,6.3042060546875,-38.213775634765625,-23.948104858398438,-4.6983489990234375
1776444522474224000,6.32922412109375,-38.320648193359375,-23.715240478515625,-5.5278167724609375
1776444522499242000,6.354241943359375,-38.72509765625,-23.367706298828125,-6.5720367431640625
1776444522524261000,6.37926123046875,-38.814727783203125,-23.039962768554688,-7.49359130859375
1776444522549279000,6.404279052734375,-38.751007080078125,-22.373428344726562,-8.385482788085938
1776444522574296800,6.429296875,-38.607696533203125,-21.660140991210938,-8.728485107421875
1776444522599316200,6.454316162109375,-39.24737548828125,-20.590850830078125,-9.65716552734375
1776444522624334000,6.479333984375,-39.5228271484375,-19.2196044921875,-10.365768432617188
1776444522649353000,6.50435302734375,-40.017486572265625,-18.16705322265625,-11.07330322265625
1776444522674371000,6.52937109375,-40.236724853515625,-17.556640625,-11.259674072265625
1776444522699389000,6.554388916015625,-40.3585205078125,-16.651809692382812,-11.797943115234375
1776444522724407800,6.57940771484375,-40.428253173828125,-15.915939331054688,-11.967269897460938
1776444522749426200,6.60442626953125,-40.623748779296875,-15.275604248046875,-12.333786010742188
1776444522774444000,6.629444091796875,-40.759674072265625,-14.690048217773438,-12.522903442382812
1776444522799463000,6.654462890625,-40.857574462890625,-13.992355346679688,-13.742630004882812
1776444522824481000,6.67948095703125,-40.320709228515625,-13.019058227539062,-14.332412719726562
1776444522849499000,6.704498779296875,-40.262359619140625,-11.69598388671875,-15.522125244140625
1776444522874518000,6.72951806640625,-40.5408935546875,-10.971206665039062,-16.179718017578125
1776444522899536000,6.754535888671875,-40.496551513671875,-9.825088500976562,-17.307785034179688
1776444522924555000,6.779554931640625,-40.42559814453125,-8.956817626953125,-18.171829223632812
1776444522949573000,6.804572998046875,-40.06610107421875,-7.2957611083984375,-18.874786376953125
1776444522974591000,6.829591064453125,-40.25006103515625,-6.2961273193359375,-18.896224975585938
1776444522999609900,6.85460986328125,-40.3486328125,-4.4640045166015625,-19.034408569335938
1776444523024628000,6.8796279296875,-40.43817138671875,-3.1761322021484375,-18.791717529296875
1776444523049645800,6.904645751953125,-40.443817138671875,-2.1346282958984375,-18.5540771484375
1776444523074665000,6.9296650390625,-40.664215087890625,-1.4758758544921875,-18.0916748046875
1776444523099683000,6.95468310546875,-40.595184326171875,-0.712066650390625,-17.7398681640625
1776444523124701000,6.979700927734375,-40.350067138671875,0.079376220703125,-17.657394409179688
1776444523149720600,7.004720458984375,-40.5126953125,0.5497894287109375,-17.643478393554688
1776444523174738700,7.02973876953125,-40.346221923828125,0.404205322265625,-18.182037353515625
1776444523199756500,7.054756591796875,-39.60211181640625,0.3757781982421875,-19.072052001953125
1776444523224775700,7.079775634765625,-39.5064697265625,0.6108245849609375,-19.982040405273438
1776444523249793800,7.104793701171875,-39.1251220703125,0.0168914794921875,-20.697341918945312
1776444523274811600,7.129811767578125,-39.1627197265625,0.0355682373046875,-20.9505615234375
1776444523299830800,7.154830810546875,-38.6123046875,0.459503173828125,-20.900909423828125
1776444523324848600,7.1798486328125,-39.035369873046875,0.831207275390625,-20.879043579101562
1776444523349867800,7.20486767578125,-38.98138427734375,1.5201568603515625,-20.512008666992188
1776444523374886000,7.229885986328125,-39.0008544921875,1.707183837890625,-19.984832763671875
1776444523399903700,7.25490380859375,-39.474639892578125,2.4447784423828125,-19.582687377929688
1776444523424922600,7.279922607421875,-39.41058349609375,2.781951904296875,-19.505706787109375
1776444523449940700,7.304940673828125,-39.3603515625,3.3861846923828125,-20.069137573242188
1776444523474958600,7.32995849609375,-38.928863525390625,3.920654296875,-20.003311157226562
1776444523499977700,7.354977783203125,-38.662506103515625,4.8292999267578125,-20.596893310546875
1776444523524995800,7.379995849609375,-38.60260009765625,5.8833160400390625,-20.763778686523438
1776444523550013700,7.405013671875,-38.971435546875,6.9832305908203125,-20.987945556640625
1776444523575032800,7.43003271484375,-38.670196533203125,7.9902191162109375,-20.664215087890625
1776444523600050700,7.45505078125,-38.455078125,9.267654418945312,-19.994598388671875
1776444523625068500,7.480068603515625,-38.239410400390625,9.603179931640625,-19.583755493164062
1776444523650088000,7.505087890625,-38.312347412109375,9.767715454101562,-19.5521240234375
1776444523675105800,7.530105712890625,-38.490020751953125,9.713638305664062,-19.884872436523438
1776444523700124000,7.5551240234375,-37.856353759765625,9.244400024414062,-20.228607177734375
1776444523725142800,7.580142822265625,-37.84820556640625,9.2265625,-20.621978759765625
1776444523750160600,7.60516064453125,-37.62152099609375,10.09332275390625,-20.823837280273438
1776444523775178800,7.6301787109375,-37.598663330078125,10.675796508789062,-20.78948974609375
1776444523800197600,7.65519775390625,-36.94403076171875,11.838821411132812,-20.594070434570312
1776444523825215700,7.6802158203125,-36.8946533203125,12.576522827148438,-20.231719970703125
1776444523850233900,7.70523388671875,-37.577667236328125,13.265884399414062,-19.218414306640625
1776444523875252700,7.730252685546875,-37.330718994140625,14.211166381835938,-18.236190795898438
1776444523900270600,7.7552705078125,-37.243988037109375,15.685104370117188,-16.6455078125
1776444523925288700,7.780288818359375,-37.478668212890625,16.013595581054688,-15.378158569335938
1776444523950307600,7.8053076171875,-38.038299560546875,16.98980712890625,-13.765045166015625
1776444523975325700,7.83032568359375,-38.41485595703125,17.661209106445312,-12.945022583007812
1776444524000343800,7.85534375,-38.073333740234375,18.510055541992188,-11.698455810546875
1776444524025362700,7.88036279296875,-38.039947509765625,18.746597290039062,-11.177764892578125
1776444524050380800,7.905380859375,-38.09368896484375,19.226516723632812,-10.007553100585938
1776444524075398700,7.930398681640625,-38.097747802734375,20.0447998046875,-9.208282470703125
1776444524100417500,7.95541748046875,-38.013275146484375,19.94952392578125,-8.42889404296875
1776444524125436000,7.980435791015625,-37.660675048828125,20.079208374023438,-7.4757537841796875
1776444524150453000,8.005452880859375,-37.59075927734375,20.246551513671875,-6.1196746826171875
1776444524175472000,8.03047216796875,-37.680145263671875,21.0565185546875,-4.7703094482421875
1776444524200490000,8.055489990234374,-37.85736083984375,20.848953247070312,-3.698760986328125
1776444524225508000,8.080508056640625,-38.094940185546875,20.797561645507812,-2.1935882568359375
1776444524250527000,8.10552685546875,-37.716033935546875,20.377593994140625,-1.2215576171875
1776444524275545000,8.130545166015626,-38.555084228515625,20.395980834960938,0.580413818359375
1776444524300563200,8.155563232421875,-38.795806884765625,20.004364013671875,1.3809661865234375
1776444524325582000,8.18058203125,-38.398529052734375,19.47430419921875,2.5140838623046875
1776444524350600000,8.205599853515626,-38.756011962890625,19.13201904296875,3.2801361083984375
1776444524375618000,8.2306181640625,-38.8775634765625,18.356704711914062,4.700103759765625
1776444524400636000,8.255635986328125,-38.67529296875,18.125595092773438,5.679046630859375
1776444524425655000,8.280655029296875,-38.892303466796875,17.055908203125,6.268402099609375
1776444524450673200,8.305673095703124,-39.048736572265625,17.235946655273438,7.0266265869140625
1776444524475691000,8.33069091796875,-39.70745849609375,16.186538696289062,8.181015014648438
1776444524500710000,8.3557099609375,-39.6624755859375,15.862472534179688,8.784103393554688
1776444524525728000,8.38072802734375,-39.50048828125,15.302505493164062,9.6473388671875
1776444524550745900,8.405745849609374,-39.65283203125,14.765823364257812,10.100250244140625
1776444524575765000,8.430764892578125,-39.55712890625,14.312088012695312,11.234390258789062
1776444524600783000,8.455783203125,-40.112213134765625,13.190338134765625,11.60040283203125
1776444524625801000,8.480801025390624,-40.092529296875,12.251983642578125,12.5887451171875
1776444524650820000,8.505820068359375,-40.220611572265625,11.8118896484375,12.954208374023438
1776444524675838000,8.530837890625,-40.506500244140625,11.07568359375,13.559097290039062
1776444524700856000,8.55585595703125,-40.066162109375,10.274322509765625,14.46441650390625
1776444524725874000,8.5808740234375,-40.49432373046875,9.271530151367188,15.464019775390625
1776444524750893000,8.60589306640625,-39.65118408203125,8.385986328125,16.56854248046875
1776444524775911200,8.6309111328125,-40.06683349609375,6.8994293212890625,17.564743041992188
1776444524800929000,8.655928955078124,-39.406707763671875,6.16937255859375,18.826492309570312
1776444524825948000,8.680947998046875,-39.03277587890625,4.012176513671875,20.178787231445312
1776444524850966000,8.705966064453126,-39.097412109375,3.3362884521484375,20.699722290039062
1776444524875984000,8.73098388671875,-38.456939697265625,1.6508941650390625,21.632110595703125
1776444524901003000,8.7560029296875,-38.44097900390625,0.3739166259765625,22.030624389648438
1776444524926021000,8.781021240234375,-38.83856201171875,-0.9880828857421875,22.022598266601562
1776444524951039000,8.8060390625,-38.280853271484375,-1.4109954833984375,21.831268310546875
1776444524976058000,8.83105810546875,-38.617889404296875,-2.2220306396484375,21.530364990234375
1776444525001076000,8.856075927734375,-38.97711181640625,-2.6491241455078125,21.044174194335938
1776444525026094000,8.881093994140626,-39.6094970703125,-3.505340576171875,20.448760986328125
1776444525051112000,8.90611181640625,-39.618438720703125,-3.6198272705078125,20.08172607421875
1776444525076131000,8.931131103515625,-39.940093994140625,-3.8900909423828125,19.977615356445312
1776444525101149200,8.956149169921876,-39.585662841796875,-3.796356201171875,20.541473388671875
1776444525126167000,8.9811669921875,-38.93084716796875,-4.1936492919921875,21.244140625
1776444525151186000,9.00618603515625,-38.880615234375,-4.673004150390625,21.825576782226562
1776444525176204000,9.0312041015625,-37.903778076171875,-5.6094207763671875,22.45904541015625
1776444525201222000,9.056221923828126,-37.594482421875,-6.096038818359375,23.119110107421875
1776444525226240800,9.08124072265625,-37.74212646484375,-7.043792724609375,23.540496826171875
1776444525251259000,9.1062587890625,-36.8330078125,-7.46881103515625,23.860137939453125
1776444525276276700,9.13127685546875,-36.748809814453125,-8.39324951171875,24.14422607421875
1776444525301294800,9.156294921875,-36.468231201171875,-9.288955688476562,24.34423828125
1776444525326314000,9.18131396484375,-36.2078857421875,-9.463150024414062,24.593994140625
1776444525351331800,9.206331787109375,-35.9764404296875,-10.190414428710938,24.477676391601562
1776444525376350000,9.231349853515624,-36.383941650390625,-10.81646728515625,23.894577026367188
1776444525401368800,9.256368896484375,-36.756622314453125,-11.562728881835938,23.030685424804688
1776444525426387000,9.281386962890625,-38.037384033203125,-11.672561645507812,21.865966796875
1776444525451404800,9.30640478515625,-37.8270263671875,-11.739898681640625,20.94378662109375
1776444525476423000,9.3314228515625,-38.488677978515625,-11.155502319335938,19.800506591796875
1776444525501442000,9.356442138671875,-39.087493896484375,-11.12823486328125,18.739227294921875
1776444525526460000,9.3814599609375,-40.123016357421875,-10.672821044921875,17.2763671875
1776444525551478000,9.40647802734375,-40.264892578125,-10.424942016601562,16.988983154296875
1776444525576497000,9.431496826171875,-40.7794189453125,-9.688247680664062,16.810195922851562
1776444525601514800,9.4565146484375,-40.820281982421875,-9.64837646484375,16.674667358398438
1776444525626532900,9.481532958984374,-41.2186279296875,-9.150161743164062,16.525222778320312
1776444525651550700,9.50655078125,-40.836883544921875,-9.337692260742188,16.885635375976562
1776444525676569900,9.53156982421875,-40.302734375,-9.83026123046875,17.187271118164062
1776444525701588000,9.556587890625,-40.512359619140625,-10.383758544921875,17.384490966796875
1776444525726605800,9.581605712890624,-40.00421142578125,-10.931671142578125,17.7093505859375
1776444525751624700,9.606624755859375,-39.65789794921875,-12.124664306640625,17.683914184570312
1776444525776642800,9.631642822265626,-40.053558349609375,-13.74468994140625,16.74066162109375
1776444525801660700,9.65666064453125,-40.099517822265625,-14.679855346679688,15.6707763671875
1776444525826679000,9.681678955078125,-39.824676513671875,-16.209426879882812,14.402847290039062
1776444525851698000,9.706697998046875,-39.988800048828125,-17.417877197265625,13.826446533203125
1776444525876715800,9.7317158203125,-39.69024658203125,-18.28326416015625,12.671722412109375
1776444525901734000,9.75673388671875,-39.95184326171875,-18.578414916992188,11.975112915039062
1776444525926751700,9.781751708984375,-39.666351318359375,-19.135269165039062,11.425247192382812
1776444525951771000,9.80677099609375,-39.558685302734375,-19.562881469726562,11.30682373046875
1776444525976789000,9.8317890625,-39.37158203125,-19.922775268554688,10.79205322265625
1776444526001806800,9.856806884765625,-39.422821044921875,-19.410385131835938,10.558090209960938
1776444526026826000,9.881825927734376,-39.306060791015625,-19.446365356445312,10.499542236328125
1776444526051843800,9.90684375,-39.687408447265625,-19.264785766601562,10.482711791992188
1776444526076862000,9.931862060546875,-39.677154541015625,-19.363601684570312,10.216705322265625
1776444526101879800,9.9568798828125,-39.7235107421875,-18.934677124023438,10.124481201171875
1776444526126898700,9.981898681640626,-39.801300048828125,-18.635360717773438,10.185440063476562
1776444526151917600,10.00691748046875,-39.912445068359375,-18.184661865234375,10.124008178710938
1776444526176935700,10.031935791015625,-40.375396728515625,-17.983291625976562,9.784225463867188
1776444526201953500,10.05695361328125,-40.722808837890625,-18.204330444335938,9.391555786132812
1776444526226972700,10.08197265625,-40.636566162109375,-17.956375122070312,9.524276733398438
1776444526251990500,10.106990478515625,-40.4368896484375,-18.126434326171875,9.288772583007812
1776444526277008600,10.132008544921876,-40.808807373046875,-18.159255981445312,8.61895751953125
1776444526302026800,10.15702685546875,-40.778167724609375,-17.719985961914062,7.4087677001953125
1776444526327045600,10.182045654296875,-40.896209716796875,-18.048721313476562,6.098388671875
1776444526352063700,10.207063720703125,-41.166656494140625,-18.657928466796875,4.1805419921875
1776444526377081600,10.23208154296875,-41.011932373046875,-18.907257080078125,3.0070953369140625
1776444526402100500,10.2571005859375,-40.905548095703125,-19.439361572265625,1.20306396484375
1776444526427118600,10.28211865234375,-41.053070068359375,-19.888900756835938,-0.2479095458984375
1776444526452136400,10.307136474609376,-40.821380615234375,-20.060577392578125,-2.1763153076171875
1776444526477154800,10.33215478515625,-40.789031982421875,-20.24639892578125,-3.2870330810546875
1776444526502173700,10.357173583984375,-40.713531494140625,-20.133331298828125,-4.4788055419921875
1776444526527191600,10.382191650390626,-40.55621337890625,-19.974456787109375,-5.192657470703125
1776444526552209700,10.407209716796874,-41.1116943359375,-19.81982421875,-5.9782867431640625
1776444526577227500,10.4322275390625,-41.124237060546875,-19.727371215820312,-6.459686279296875
1776444526602246400,10.457246337890625,-40.64044189453125,-19.506256103515625,-7.2065277099609375
1776444526627264800,10.4822646484375,-40.6932373046875,-19.532440185546875,-7.6645050048828125
1776444526652282600,10.50728271484375,-40.396331787109375,-19.009536743164062,-8.557357788085938
1776444526677300700,10.53230078125,-40.045806884765625,-18.554107666015625,-8.944595336914062
1776444526702319600,10.557319580078126,-40.7620849609375,-18.399185180664062,-9.870773315429688
1776444526727337500,10.58233740234375,-40.21923828125,-18.619338989257812,-10.73016357421875
1776444526752355600,10.60735546875,-39.764617919921875,-18.573272705078125,-11.839584350585938
1776444526777373400,10.63237353515625,-39.28790283203125,-18.845169067382812,-12.879867553710938
1776444526802392800,10.657392822265624,-39.390594482421875,-18.5830078125,-14.741867065429688
1776444526827410700,10.68241064453125,-38.527618408203125,-18.415603637695312,-16.227035522460938
1776444526852428800,10.7074287109375,-37.9844970703125,-17.397933959960938,-18.37689208984375
1776444526877446700,10.73244677734375,-37.1866455078125,-16.936111450195312,-19.669631958007812
1776444526902465500,10.757465576171874,-36.91583251953125,-16.172805786132812,-21.692413330078125
1776444526927483600,10.782483642578125,-37.0738525390625,-15.116653442382812,-22.346832275390625
1776444526952501500,10.80750146484375,-36.940032958984375,-13.921340942382812,-22.896774291992188
1776444526977519900,10.832519775390624,-36.9661865234375,-12.766937255859375,-23.13031005859375
1776444527002538800,10.857538818359375,-37.2265625,-11.330154418945312,-23.013595581054688
1776444527027556600,10.882556640625,-37.867156982421875,-10.2410888671875,-22.789474487304688
1776444527052574700,10.90757470703125,-38.142669677734375,-8.755859375,-22.50286865234375
1776444527077592600,10.932592529296874,-38.33648681640625,-7.26934814453125,-22.409652709960938
1776444527102611500,10.957611572265625,-38.406463623046875,-5.9307403564453125,-22.163360595703125
1776444527127629600,10.982629638671876,-39.088592529296875,-4.625518798828125,-22.069473266601562
1776444527152647200,11.007647216796874,-38.655975341796875,-2.747039794921875,-21.725357055664062
1776444527177665300,11.032665283203125,-39.262481689453125,-1.7454376220703125,-21.563217163085938
1776444527202684400,11.057684326171875,-39.6104736328125,-0.6219635009765625,-20.972763061523438
1776444527227702300,11.082702392578126,-39.686737060546875,0.3630218505859375,-20.661941528320312
1776444527252720400,11.107720458984375,-40.136962890625,0.94488525390625,-20.180313110351562
1776444527277738200,11.13273828125,-40.531494140625,1.302398681640625,-20.235748291015625
1776444527302757400,11.15775732421875,-40.011993408203125,1.605712890625,-20.226531982421875
1776444527327775200,11.182775146484374,-39.81640625,1.8633880615234375,-20.5045166015625
1776444527352793300,11.20779345703125,-40.018768310546875,1.8665771484375,-20.923355102539062
1776444527377811500,11.2328115234375,-39.797088623046875,1.872772216796875,-20.455642700195312
1776444527402829300,11.257829345703126,-39.883331298828125,1.9378662109375,-19.749969482421875
1776444527427848400,11.282848388671875,-40.878204345703125,1.7677764892578125,-18.96942138671875
1776444527452866300,11.3078662109375,-40.938568115234375,1.927734375,-18.23052978515625
1776444527477884400,11.332884521484376,-40.6500244140625,2.2952423095703125,-17.712051391601562
1776444527502902300,11.35790234375,-41.27532958984375,2.3664703369140625,-16.41046142578125
1776444527527921400,11.38292138671875,-41.367523193359375,2.5811004638671875,-15.780044555664062
1776444527552939500,11.407939453125,-41.292724609375,3.1000213623046875,-15.367477416992188
1776444527577957400,11.432957275390624,-41.494720458984375,3.5126495361328125,-14.878005981445312
1776444527602975500,11.4579755859375,-41.649749755859375,4.2240142822265625,-14.144729614257812
1776444527627994400,11.482994384765625,-41.70001220703125,4.65350341796875,-13.885025024414062
1776444527653012200,11.50801220703125,-41.338134765625,4.9553985595703125,-13.389251708984375
1776444527678030300,11.5330302734375,-41.906707763671875,5.4322052001953125,-13.0025634765625
1776444527703048200,11.558048095703125,-42.372802734375,5.5101165771484375,-12.08453369140625
1776444527728066600,11.583066650390625,-42.6214599609375,5.688232421875,-11.57672119140625
1776444527753085400,11.60808544921875,-42.35986328125,5.7084808349609375,-11.4239501953125
1776444527778103300,11.633103271484375,-41.817352294921875,6.0474853515625,-11.62677001953125
1776444527803121400,11.658121337890625,-41.741363525390625,6.2584228515625,-12.04669189453125
1776444527828139300,11.68313916015625,-42.1036376953125,6.0625762939453125,-12.279342651367188
1776444527853158100,11.708158203125,-42.25579833984375,6.252593994140625,-11.949844360351562
1776444527878176500,11.733176513671875,-42.4024658203125,6.2513885498046875,-11.590423583984375
1776444527903194400,11.7581943359375,-42.23431396484375,6.6691741943359375,-11.379806518554688
1776444527928212500,11.78321240234375,-42.274383544921875,7.23065185546875,-11.082504272460938
1776444527953230300,11.808230224609375,-41.750732421875,7.93243408203125,-10.9996337890625
1776444527978249200,11.833249267578125,-41.909423828125,8.973968505859375,-10.388214111328125
1776444528003267300,11.858267333984376,-41.873565673828125,10.187545776367188,-9.64190673828125
1776444528028285200,11.88328515625,-42.072021484375,10.660781860351562,-8.858169555664062
1776444528053303300,11.90830322265625,-42.38812255859375,11.383514404296875,-8.034500122070312
1776444528078321400,11.9333212890625,-42.272735595703125,11.791595458984375,-7.2498626708984375
1776444528103340300,11.95834033203125,-41.94573974609375,12.19647216796875,-7.0921478271484375
1776444528128358400,11.9833583984375,-41.807952880859375,13.028366088867188,-6.3291168212890625
1776444528153380000,12.008380126953124,-42.062469482421875,13.149566650390625,-6.4007110595703125
1776444528178398200,12.033398193359375,-42.10498046875,13.615447998046875,-5.992462158203125
1776444528203417000,12.0584169921875,-41.780609130859375,13.663848876953125,-5.807464599609375
1776444528228435000,12.08343505859375,-41.44207763671875,13.816024780273438,-5.9431915283203125
1776444528253453000,12.108453125,-41.413726806640625,13.975311279296875,-5.764068603515625
1776444528278471000,12.133470947265625,-41.82293701171875,13.960891723632812,-5.0618896484375
1776444528303489300,12.1584892578125,-41.701416015625,13.841659545898438,-4.8200225830078125
1776444528328508200,12.183508056640624,-42.43548583984375,13.647979736328125,-4.247802734375
1776444528353526000,12.208526123046875,-41.661224365234375,13.77490234375,-3.484832763671875
1776444528378544000,12.233544189453125,-41.826019287109375,13.834243774414062,-2.6680908203125
1776444528403562000,12.25856201171875,-41.70550537109375,13.839889526367188,-2.272491455078125
1776444528428580000,12.283580078125,-41.620574951171875,14.08270263671875,-0.7787933349609375
1776444528453599000,12.308598876953125,-41.76824951171875,13.93743896484375,0.285369873046875
1776444528478617000,12.3336171875,-41.5921630859375,14.101043701171875,2.463775634765625
1776444528503635200,12.35863525390625,-41.302276611328125,14.5792236328125,3.6326751708984375
1776444528528653000,12.383653076171875,-40.960205078125,14.824844360351562,5.434600830078125
1776444528553671200,12.408671142578125,-40.787628173828125,14.910812377929688,6.57781982421875
1776444528578690000,12.43368994140625,-40.19757080078125,14.848434448242188,8.4149169921875
1776444528603708000,12.4587080078125,-39.953216552734375,15.025161743164062,9.752349853515625
1776444528628726000,12.48372607421875,-39.723602294921875,14.584259033203125,11.798492431640625
1776444528653743900,12.508743896484376,-39.68450927734375,14.10125732421875,13.2064208984375
1776444528678762200,12.53376220703125,-39.04803466796875,13.718368530273438,15.077133178710938
1776444528703781000,12.558781005859375,-38.6669921875,13.18975830078125,16.405593872070312
1776444528728799200,12.58379931640625,-38.31085205078125,12.530532836914062,17.974822998046875
1776444528753817000,12.608817138671874,-37.828704833984375,12.091567993164062,18.643173217773438
1776444528778835000,12.6338349609375,-37.53485107421875,11.300689697265625,20.136428833007812
1776444528803853000,12.65885302734375,-36.710174560546875,11.156051635742188,20.88848876953125
1776444528828872200,12.6838720703125,-37.30096435546875,10.355300903320312,21.4046630859375
1776444528853890300,12.708890380859375,-36.9371337890625,9.932785034179688,21.801773071289062
1776444528878908200,12.733908203125,-36.86297607421875,9.464691162109375,21.978836059570312
1776444528903926000,12.758926025390625,-37.53741455078125,8.617584228515625,22.193252563476562
1776444528928944000,12.783944091796876,-37.186767578125,7.2234954833984375,22.501022338867188
1776444528953963000,12.808962890625,-37.357330322265625,6.9228668212890625,22.472549438476562
1776444528978981000,12.833981201171875,-37.779571533203125,5.6458587646484375,22.414443969726562
1776444529003999000,12.8589990234375,-38.057647705078125,5.07373046875,22.519149780273438
1776444529029017000,12.88401708984375,-38.192840576171875,4.01007080078125,22.359481811523438
1776444529054035200,12.90903515625,-38.304656982421875,3.5152130126953125,22.159698486328125
1776444529079054000,12.93405419921875,-38.564056396484375,2.312774658203125,21.92156982421875
1776444529104072200,12.959072265625,-38.71868896484375,1.5345306396484375,21.635116577148438
1776444529129090000,12.984090087890625,-38.712799072265625,-0.2807159423828125,21.234115600585938
1776444529154104300,13.009104248046874,-38.90826416015625,-0.855255126953125,21.011856079101562
1776444529179122200,13.0341220703125,-39.506744384765625,-1.87078857421875,20.769927978515625
1776444529204140300,13.059140380859375,-39.7855224609375,-2.0542449951171875,19.966140747070312
1776444529229159200,13.0841591796875,-40.010162353515625,-2.5931854248046875,19.332672119140625
1776444529254177300,13.10917724609375,-40.14593505859375,-2.68316650390625,18.886734008789062
1776444529279195400,13.1341953125,-40.312835693359375,-3.272003173828125,18.3516845703125
1776444529304213200,13.159213134765626,-40.208740234375,-3.043914794921875,18.348922729492188
1776444529329231400,13.1842314453125,-40.21417236328125,-3.31378173828125,18.184097290039062
1776444529354250200,13.209250244140625,-39.865478515625,-3.4491729736328125,18.496994018554688
1776444529379268000,13.23426806640625,-40.038726806640625,-3.9017181396484375,18.753402709960938
1776444529404286200,13.2592861328125,-39.661102294921875,-3.985260009765625,18.86468505859375
1776444529429304000,13.284303955078125,-40.083038330078125,-4.83441162109375,19.253707885742188
1776444529454322200,13.309322265625,-39.081878662109375,-5.2840423583984375,19.7977294921875
1776444529479340300,13.33434033203125,-38.77227783203125,-6.026397705078125,20.261398315429688
1776444529504359200,13.359359130859374,-38.96868896484375,-6.5980987548828125,20.689971923828125
1776444529529377300,13.384377197265625,-38.25726318359375,-7.8495330810546875,21.131546020507812
1776444529554395100,13.40939501953125,-38.067474365234375,-8.502105712890625,21.400604248046875
1776444529579413200,13.434413330078126,-37.611480712890625,-9.108718872070312,21.76727294921875
1776444529604431000,13.45943115234375,-37.25433349609375,-9.580902099609375,21.630859375
1776444529629449200,13.48444921875,-37.591583251953125,-9.963287353515625,21.521133422851562
1776444529654468400,13.50946826171875,-37.454498291015625,-10.2755126953125,21.343597412109375
1776444529679486200,13.534486328125,-37.77398681640625,-10.820724487304688,20.955841064453125
1776444529704504300,13.55950439453125,-37.9801025390625,-10.533065795898438,20.56695556640625
1776444529729522200,13.584522216796875,-38.525909423828125,-10.825668334960938,19.460479736328125
1776444529754540300,13.609540283203126,-39.075653076171875,-10.511993408203125,18.985595703125
1776444529779558100,13.63455810546875,-39.029693603515625,-9.918075561523438,18.060699462890625
1776444529804577000,13.659576904296875,-39.2882080078125,-9.679061889648438,17.80352783203125
1776444529829595400,13.684595458984376,-39.377349853515625,-9.6556396484375,17.462326049804688
1776444529854613200,13.70961328125,-39.430572509765625,-9.901458740234375,17.594680786132812
1776444529879631400,13.73463134765625,-39.18695068359375,-10.11639404296875,17.810012817382812
1776444529904649200,13.759649169921875,-38.84716796875,-10.343032836914062,17.692550659179688
1776444529929667300,13.784667236328126,-38.8106689453125,-10.697235107421875,17.840682983398438
1776444529954686200,13.809686279296875,-39.09722900390625,-10.72869873046875,17.451370239257812
1776444529979704000,13.8347041015625,-38.87896728515625,-11.146697998046875,17.2864990234375
1776444530004722200,13.85972216796875,-38.826812744140625,-11.49847412109375,17.425033569335938
1776444530029740300,13.884740234375,-38.679046630859375,-11.693466186523438,17.32220458984375
1776444530054758400,13.90975830078125,-38.804840087890625,-11.7818603515625,17.612457275390625
1776444530079776300,13.9347763671875,-38.374359130859375,-12.205642700195312,18.032501220703125
1776444530104795100,13.959795166015626,-37.60089111328125,-12.625381469726562,18.398971557617188
1776444530129813200,13.984813232421875,-37.904052734375,-13.30426025390625,18.852890014648438
1776444530154831600,14.00983154296875,-37.93115234375,-13.818435668945312,19.033981323242188
1776444530179849700,14.034849609375,-37.826507568359375,-13.998336791992188,19.055068969726562
1776444530204867600,14.05986767578125,-37.131927490234375,-13.985565185546875,19.011459350585938
1776444530229885700,14.0848857421875,-37.345123291015625,-14.22052001953125,18.486801147460938
1776444530254904600,14.109904541015625,-37.387451171875,-14.625213623046875,18.315521240234375
1776444530279922400,14.13492236328125,-37.21441650390625,-14.8372802734375,17.8509521484375
1776444530304940800,14.15994091796875,-38.008087158203125,-15.877655029296875,17.041427612304688
1776444530329958700,14.184958740234375,-37.729827880859375,-15.844070434570312,16.56982421875
1776444530354976800,14.209976806640626,-37.914764404296875,-16.8011474609375,15.793853759765625
1776444530379994600,14.23499462890625,-37.801361083984375,-17.113922119140625,15.560211181640625
1776444530405012500,14.260012451171875,-37.816314697265625,-18.10107421875,14.775390625
1776444530430031600,14.285031494140625,-37.68115234375,-18.529678344726562,14.404769897460938
1776444530455049500,14.310049560546876,-38.294921875,-19.027191162109375,14.15826416015625
1776444530480067600,14.335067626953125,-38.055267333984375,-18.985015869140625,13.83203125
1776444530505085700,14.360085693359375,-37.792633056640625,-18.793563842773438,14.158798217773438
1776444530530103800,14.385103759765625,-37.93450927734375,-18.718780517578125,13.96807861328125
1776444530555121700,14.41012158203125,-37.801788330078125,-18.71197509765625,13.898941040039062
1776444530580139500,14.435139404296875,-37.60028076171875,-18.58807373046875,13.808868408203125
1776444530605158700,14.46015869140625,-37.92681884765625,-18.497283935546875,13.1409912109375
1776444530630176500,14.485176513671876,-38.0294189453125,-18.191558837890625,13.1102294921875
1776444530655194600,14.510194580078124,-38.113372802734375,-18.582504272460938,12.907333374023438
1776444530680212500,14.53521240234375,-38.332550048828125,-18.2197265625,12.810394287109375
1776444530705230600,14.560230712890625,-38.81219482421875,-18.239395141601562,12.082565307617188
1776444530730248700,14.585248779296874,-38.77392578125,-18.353561401367188,11.593780517578125
1776444530755267600,14.610267578125,-38.817657470703125,-18.008010864257812,10.948287963867188
1776444530780285700,14.63528564453125,-38.902435302734375,-17.839981079101562,10.365768432617188
1776444530805303600,14.660303466796876,-39.36279296875,-17.691940307617188,9.69085693359375
1776444530830321700,14.68532177734375,-39.52130126953125,-17.465591430664062,8.655853271484375
1776444530855339500,14.710339599609375,-39.9324951171875,-17.585098266601562,7.7554931640625
1776444530880357400,14.735357421875,-40.115325927734375,-17.280487060546875,6.85955810546875
1776444530905375500,14.76037548828125,-40.319854736328125,-17.037933349609375,5.3044586181640625
1776444530930393600,14.7853935546875,-40.84820556640625,-17.166885375976562,4.1425628662109375
1776444530955412700,14.810412841796875,-40.582672119140625,-17.07635498046875,1.6388702392578125
1776444530980430600,14.8354306640625,-41.1182861328125,-17.127853393554688,0.05718994140625
1776444531005448700,14.86044873046875,-40.616851806640625,-17.195953369140625,-2.1322784423828125
1776444531030466600,14.885466552734375,-40.447784423828125,-17.207962036132812,-3.6294403076171875
1776444531055484400,14.910484375,-39.915191650390625,-17.48089599609375,-5.5229949951171875
1776444531080502500,14.93550244140625,-39.727630615234375,-17.571395874023438,-6.5583343505859375
1776444531105520400,14.960520263671874,-39.618408203125,-17.464202880859375,-8.05572509765625
1776444531130539800,14.985539794921875,-39.416290283203125,-17.204421997070312,-9.252304077148438
1776444531155561000,15.01056103515625,-39.00494384765625,-16.8214111328125,-10.305084228515625
1776444531180579000,15.0355791015625,-38.902557373046875,-16.643753051757812,-11.240463256835938
1776444531205597000,15.060596923828125,-38.531982421875,-16.240875244140625,-11.933242797851562
1776444531230614800,15.08561474609375,-38.692535400390625,-15.783660888671875,-12.53277587890625
1776444531255633000,15.1106328125,-39.023223876953125,-14.962158203125,-12.5111083984375
1776444531280650800,15.135650634765625,-39.550994873046875,-14.81097412109375,-12.788894653320312
1776444531305669000,15.160669189453126,-39.64508056640625,-14.172439575195312,-12.1552734375
1776444531330688000,15.18568798828125,-39.9007568359375,-13.594161987304688,-11.862396240234375
1776444531355705900,15.210705810546875,-40.0247802734375,-13.354400634765625,-11.642288208007812
1776444531380724000,15.235723876953125,-40.113311767578125,-12.890579223632812,-11.273635864257812
1776444531405741800,15.260741943359376,-40.240478515625,-12.719711303710938,-11.026779174804688
1776444531430760000,15.285760009765625,-40.623748779296875,-12.530471801757812,-11.556289672851562
1776444531455777800,15.31077783203125,-40.017120361328125,-12.4583740234375,-12.409408569335938
1776444531480796000,15.3357958984375,-40.152313232421875,-11.853164672851562,-12.907791137695312
1776444531505814000,15.36081396484375,-39.347991943359375,-11.10595703125,-14.499282836914062
1776444531530833000,15.3858330078125,-39.5,-10.386093139648438,-15.254043579101562
1776444531555851000,15.41085107421875,-39.17498779296875,-9.478790283203125,-16.068740844726562
1776444531580868900,15.435868896484376,-39.64764404296875,-9.16741943359375,-16.346755981445312
1776444531605887000,15.460886962890624,-39.710357666015625,-8.56134033203125,-16.688613891601562
1776444531630904800,15.48590478515625,-39.954681396484375,-7.9606781005859375,-16.456039428710938
1776444531655923000,15.5109228515625,-39.73516845703125,-7.2590484619140625,-15.921600341796875
1776444531680940800,15.53594091796875,-40.130706787109375,-6.7484588623046875,-15.55108642578125
1776444531705959200,15.560959228515625,-40.527374267578125,-6.825531005859375,-14.642791748046875
1776444531730978000,15.58597802734375,-40.550079345703125,-6.8957977294921875,-14.45172119140625
1776444531755996000,15.610995849609376,-40.908050537109375,-6.4186859130859375,-14.428054809570312
1776444531781014000,15.636013916015624,-40.355194091796875,-6.030120849609375,-14.431549072265625
1776444531806032000,15.661031982421875,-40.37982177734375,-6.001007080078125,-15.0260009765625
1776444531831050000,15.686050048828125,-40.424896240234375,-5.689605712890625,-15.307937622070312
1776444531856067800,15.71106787109375,-40.296295166015625,-4.7834625244140625,-15.933700561523438
1776444531881086000,15.7360859375,-40.441650390625,-4.3904876708984375,-15.929412841796875
1776444531906103800,15.761103759765625,-39.9619140625,-3.311614990234375,-16.316986083984375
1776444531931122200,15.7861220703125,-39.711761474609375,-2.6694488525390625,-16.255935668945312
1776444531956141000,15.81114111328125,-39.5123291015625,-1.4760894775390625,-16.469497680664062
1776444531981159000,15.836158935546875,-40.181976318359375,-0.7763519287109375,-16.531158447265625
1776444532006177000,15.861177001953125,-39.710601806640625,0.445526123046875,-16.6644287109375
1776444532031195000,15.88619482421875,-39.7833251953125,0.8213958740234375,-16.819381713867188
1776444532056213000,15.911212890625,-39.1519775390625,2.425018310546875,-17.137603759765625
1776444532081230800,15.93623095703125,-38.8643798828125,2.9884033203125,-17.588729858398438
1776444532106249000,15.9612490234375,-38.733367919921875,4.30230712890625,-18.081573486328125
1776444532131267000,15.98626708984375,-38.459197998046875,5.0756378173828125,-17.757049560546875
1776444532156281000,16.011281005859374,-38.28656005859375,6.76654052734375,-17.3460693359375
1776444532181300000,16.036300048828124,-38.196868896484375,7.064239501953125,-17.090591430664062
1776444532206317800,16.06131787109375,-38.1566162109375,8.072586059570312,-16.992233276367188
1776444532231336000,16.0863359375,-38.294891357421875,8.432891845703125,-16.670669555664062
1776444532256353800,16.111353759765624,-38.240203857421875,8.75457763671875,-16.399002075195312
1776444532281372000,16.136371826171874,-38.700225830078125,8.90167236328125,-16.547317504882812
1776444532306389800,16.1613896484375,-38.07861328125,9.069183349609375,-16.302230834960938
1776444532331408000,16.186407958984375,-38.098480224609375,9.00250244140625,-16.27752685546875
1776444532356426000,16.211426025390626,-38.213104248046875,8.9976806640625,-16.219711303710938
1776444532381444000,16.236444091796876,-38.021514892578125,8.9859619140625,-16.299896240234375
1776444532406462000,16.2614619140625,-37.691375732421875,8.971099853515625,-16.623428344726562
1776444532431480800,16.286480712890626,-38.11944580078125,9.428009033203125,-15.997161865234375
1776444532456499000,16.3114990234375,-37.74755859375,9.977432250976562,-15.702621459960938
1776444532481516800,16.336516845703127,-37.973602294921875,10.367874145507812,-15.3663330078125
1776444532506535000,16.361534912109374,-37.419769287109375,10.720611572265625,-15.574600219726562
1776444532531552800,16.386552734375,-37.56964111328125,11.09002685546875,-15.451644897460938
1776444532556571000,16.41157080078125,-37.70562744140625,11.320602416992188,-15.426406860351562
1776444532581589000,16.436589111328125,-37.70379638671875,11.882537841796875,-15.17333984375
1776444532606606800,16.46160693359375,-37.75384521484375,11.622772216796875,-15.19268798828125
1776444532631625000,16.486625,-37.74267578125,11.904937744140625,-14.67840576171875
1776444532656642800,16.511642822265625,-37.7789306640625,11.966354370117188,-14.24267578125
1776444532681661000,16.536660888671875,-38.500244140625,11.630935668945312,-12.839492797851562
1776444532706679800,16.5616796875,-38.84246826171875,11.57244873046875,-11.783340454101562
1776444532731698000,16.586697998046876,-39.6513671875,11.55810546875,-9.799789428710938
1776444532756715800,16.6117158203125,-39.84674072265625,11.333892822265625,-8.34942626953125
1776444532781734000,16.63673388671875,-39.909393310546875,10.86639404296875,-6.700347900390625
1776444532806752000,16.661751953125,-40.6553955078125,11.093612670898438,-5.6141204833984375
1776444532831769900,16.686769775390626,-40.183380126953125,11.68896484375,-4.38671875
1776444532856788000,16.7117880859375,-40.063995361328125,12.050079345703125,-3.7779693603515625
1776444532881805800,16.736805908203124,-40.1259765625,12.555145263671875,-3.1035003662109375
1776444532906824000,16.761823974609374,-40.15185546875,12.7064208984375,-2.6157073974609375
1776444532931841800,16.786841796875,-39.922332763671875,13.033065795898438,-2.170013427734375
1776444532956860000,16.81185986328125,-39.95062255859375,13.059112548828125,-1.84344482421875
1776444532981877800,16.836877685546874,-39.8504638671875,13.550628662109375,-1.6370697021484375
1776444533006897000,16.86189697265625,-39.647918701171875,14.010269165039062,-1.1866302490234375
1776444533031915000,16.8869150390625,-39.89996337890625,14.382125854492188,-0.904052734375
1776444533056932900,16.911932861328125,-39.270721435546875,14.895065307617188,-0.2803802490234375
1776444533081951000,16.936950927734376,-39.09783935546875,15.54974365234375,-0.0196075439453125
1776444533106968800,16.96196875,-39.45855712890625,15.55145263671875,-0.022918701171875
1776444533131987000,16.986987060546873,-39.113555908203125,16.01690673828125,0.0886688232421875
1776444533157009200,17.012009033203125,-38.949920654296875,16.4105224609375,-0.4467620849609375
1776444533182027000,17.037027099609375,-38.40887451171875,16.32000732421875,-0.72943115234375
1776444533207045000,17.062045166015626,-38.844329833984375,16.671676635742188,-1.0134124755859375
1776444533232063000,17.08706298828125,-38.4105224609375,17.158599853515625,-0.796142578125
1776444533257081000,17.1120810546875,-38.64849853515625,17.080764770507812,-1.1385650634765625
1776444533282099000,17.137098876953125,-38.3201904296875,16.7784423828125,-0.576873779296875
1776444533307117000,17.162116943359376,-38.606536865234375,16.515121459960938,-0.14898681640625
1776444533332136000,17.187135986328126,-38.5782470703125,16.065322875976562,0.621337890625
1776444533357153800,17.21215380859375,-38.7725830078125,15.733444213867188,1.07421875
1776444533382172200,17.237172119140624,-38.971221923828125,15.210952758789062,2.479400634765625
1776444533407190000,17.26218994140625,-39.1702880859375,14.914321899414062,3.528564453125
1776444533432208100,17.2872080078125,-39.322418212890625,14.026321411132812,5.2390289306640625
1776444533457226000,17.31222607421875,-38.90380859375,13.72296142578125,6.190338134765625
1776444533482244000,17.337244140625,-38.664031982421875,12.89642333984375,8.332489013671875
1776444533507262000,17.362261962890624,-38.815155029296875,12.4619140625,9.541122436523438
1776444533532280000,17.387280029296875,-38.148406982421875,11.21112060546875,11.302291870117188
1776444533557298000,17.4122978515625,-38.108795166015625,10.350067138671875,12.341232299804688
1776444533582316000,17.43731591796875,-38.416656494140625,9.421066284179688,13.415924072265625
1776444533607334000,17.462333984375,-38.491943359375,8.496612548828125,13.896041870117188
1776444533632352000,17.48735205078125,-38.911712646484375,7.24822998046875,14.1573486328125
1776444533657370000,17.5123701171875,-38.485076904296875,6.3883819580078125,14.320404052734375
1776444533682389000,17.537388916015626,-39.265289306640625,5.1586456298828125,14.232391357421875
1776444533707407000,17.562406982421876,-39.499847412109375,4.215789794921875,13.779006958007812
1776444533732425000,17.587425048828123,-39.92083740234375,2.9320068359375,13.243698120117188
1776444533757443000,17.612443115234374,-40.086273193359375,1.7547149658203125,13.043655395507812
1776444533782461000,17.6374609375,-40.212158203125,0.1307373046875,12.233612060546875
1776444533807478800,17.662478759765627,-40.305877685546875,-0.582275390625,11.722381591796875
1776444533832497200,17.6874970703125,-40.78533935546875,-1.5888519287109375,11.081008911132812
1776444533857515000,17.712514892578124,-40.7518310546875,-2.0592498779296875,11.197998046875
1776444533882533000,17.737533203125,-41.1102294921875,-3.2424468994140625,11.2803955078125
1776444533907551000,17.762551025390625,-40.9112548828125,-3.68499755859375,11.120590209960938
1776444533932569000,17.787569091796875,-40.97906494140625,-4.4724884033203125,11.46429443359375
1776444533957587000,17.8125869140625,-40.666229248046875,-4.473663330078125,11.904647827148438
1776444533982605000,17.83760498046875,-40.59783935546875,-4.890472412109375,12.083847045898438
1776444534007623000,17.862622802734375,-40.399169921875,-4.9066619873046875,12.672073364257812
1776444534032641000,17.88764111328125,-40.21112060546875,-5.07879638671875,13.040206909179688
1776444534057659000,17.912658935546876,-39.685272216796875,-5.5205230712890625,13.634170532226562
1776444534082678000,17.937677978515627,-40.1207275390625,-6.4190826416015625,13.861495971679688
1776444534107696000,17.962696044921874,-39.740570068359375,-6.607147216796875,14.153167724609375
1776444534132714000,17.9877138671875,-39.675201416015625,-7.0114898681640625,14.332473754882812
1776444534157728300,18.012728271484374,-39.366973876953125,-7.398162841796875,14.379501342773438
1776444534182746000,18.03774609375,-38.9356689453125,-8.211135864257812,14.5751953125
1776444534207764200,18.06276416015625,-39.136932373046875,-8.590164184570312,14.53533935546875
1776444534232782000,18.087781982421873,-39.192596435546875,-9.883544921875,14.350372314453125
1776444534257800200,18.11280029296875,-39.254791259765625,-10.658233642578125,13.504745483398438
1776444534282818300,18.137818359375,-39.637969970703125,-11.369583129882812,12.7147216796875
1776444534307836400,18.16283642578125,-39.273040771484375,-12.243927001953125,12.166458129882812
1776444534332854300,18.187854248046875,-39.059814453125,-13.214950561523438,11.500579833984375
1776444534357872000,18.2128720703125,-39.412322998046875,-13.403884887695312,10.720550537109375
1776444534382890200,18.23789013671875,-39.34814453125,-13.6295166015625,10.589874267578125
1776444534407908000,18.262908203125,-39.119903564453125,-13.7276611328125,10.626678466796875
1776444534432926200,18.28792626953125,-39.093414306640625,-13.477767944335938,10.744857788085938
1776444534457944000,18.312944091796876,-38.96441650390625,-13.363021850585938,11.303787231445312
1776444534482962200,18.337962158203126,-39.01153564453125,-13.3736572265625,11.162841796875
1776444534507980000,18.36297998046875,-39.152069091796875,-13.84173583984375,12.055389404296875
1776444534532998400,18.387998291015624,-38.797637939453125,-14.195327758789062,12.618698120117188
1776444534558016300,18.413016357421874,-38.228485107421875,-14.470504760742188,13.439529418945312
1776444534583035100,18.43803515625,-38.218231201171875,-14.453216552734375,14.27911376953125
1776444534608053200,18.46305322265625,-36.67987060546875,-14.835403442382812,15.6871337890625
1776444534633071000,18.488071044921874,-36.44110107421875,-15.239776611328125,16.153915405273438
1776444534658089200,18.513089111328124,-36.843658447265625,-15.406814575195312,16.779251098632812
1776444534683107000,18.538107177734375,-37.036651611328125,-16.016433715820312,16.537643432617188
1776444534708125200,18.563125244140625,-36.6192626953125,-16.798065185546875,16.501678466796875
1776444534733143300,18.588143310546876,-36.77301025390625,-16.935958862304688,16.026962280273438
1776444534758161400,18.613161376953126,-36.851531982421875,-17.746780395507812,14.901596069335938
1776444534783179300,18.63817919921875,-36.72381591796875,-18.23687744140625,14.109115600585938
1776444534808197400,18.663197265625,-37.020751953125,-18.481414794921875,12.857742309570312
1776444534833215200,18.68821533203125,-37.000732421875,-18.928466796875,12.303329467773438
1776444534858233000,18.713233154296876,-37.2779541015625,-19.40289306640625,11.254562377929688
1776444534883251200,18.738251220703123,-37.7626953125,-19.736541748046875,10.784500122070312
1776444534908269000,18.76326904296875,-37.51715087890625,-19.759780883789062,9.8218994140625
1776444534933287200,18.788287109375,-37.155792236328125,-19.652267456054688,8.833267211914062
1776444534958305000,18.813304931640626,-37.676849365234375,-19.823165893554688,8.122894287109375
1776444534983323100,18.8383232421875,-37.87396240234375,-19.851150512695312,7.67626953125
1776444535008341200,18.86334130859375,-37.342193603515625,-19.706939697265625,7.212310791015625
1776444535033359400,18.888359375,-37.59014892578125,-19.952438354492188,6.7848968505859375
1776444535058377200,18.913377197265625,-37.626312255859375,-20.394973754882812,6.155059814453125
1776444535083395300,18.938395263671875,-37.42041015625,-20.547271728515625,5.376617431640625
1776444535108413200,18.9634130859375,-38.0233154296875,-21.192916870117188,3.392913818359375
1776444535133431300,18.988431396484376,-37.68719482421875,-21.383148193359375,1.997772216796875
1776444535158449200,19.01344921875,-37.652862548828125,-21.477386474609375,-0.5765228271484375
1776444535183467300,19.03846728515625,-37.496368408203125,-21.433731079101562,-1.8353424072265625
1776444535208485400,19.0634853515625,-37.3651123046875,-21.855865478515625,-3.5824737548828125
1776444535233503200,19.088503173828126,-37.2939453125,-21.847549438476562,-4.6061248779296875
1776444535258521300,19.113521240234373,-36.660858154296875,-22.026397705078125,-6.2617034912109375
1776444535283539200,19.138539306640624,-36.845703125,-21.563385009765625,-7.2357330322265625
1776444535308557300,19.163557373046874,-36.543792724609375,-21.390625,-7.8869476318359375
1776444535333575200,19.1885751953125,-36.255401611328125,-21.553909301757812,-8.912429809570312
1776444535358594300,19.21359423828125,-36.29498291015625,-21.52880859375,-9.788284301757812
1776444535383612200,19.238612060546874,-35.86041259765625,-21.488662719726562,-10.719284057617188
1776444535408630300,19.26363037109375,-35.437530517578125,-21.033233642578125,-11.270065307617188
1776444535433648400,19.2886484375,-35.9810791015625,-20.767425537109375,-11.673538208007812
1776444535458666200,19.313666259765625,-35.36529541015625,-20.25445556640625,-12.711029052734375
1776444535483684400,19.338684326171876,-35.970947265625,-19.672103881835938,-13.490829467773438
1776444535508702200,19.3637021484375,-36.083526611328125,-18.274642944335938,-14.446548461914062
1776444535533720300,19.38872021484375,-36.364044189453125,-17.367294311523438,-15.668228149414062
1776444535558738200,19.41373828125,-35.95306396484375,-15.72015380859375,-16.980758666992188
1776444535583756300,19.43875634765625,-36.451690673828125,-13.977096557617188,-18.051528930664062
1776444535608774100,19.463774169921876,-36.272613525390625,-11.748855590820312,-19.453765869140625
1776444535633792300,19.488792236328123,-36.170989990234375,-10.42877197265625,-20.143508911132812
1776444535658810400,19.513810302734374,-35.602508544921875,-8.591934204101562,-21.315872192382812
1776444535683828500,19.538828369140624,-35.818115234375,-7.188079833984375,-21.825637817382812
1776444535708846300,19.563846435546875,-36.363128662109375,-6.1270904541015625,-21.8646240234375
1776444535733864200,19.5888642578125,-36.285614013671875,-5.420562744140625,-22.031936645507812
1776444535758882300,19.61388232421875,-36.451446533203125,-4.3880767822265625,-22.017669677734375
1776444535783900200,19.638900146484374,-36.56219482421875,-3.79901123046875,-21.88494873046875
1776444535808918300,19.663918212890625,-36.625,-3.266082763671875,-21.589736938476562
1776444535833936100,19.68893603515625,-37.52813720703125,-3.11651611328125,-21.566864013671875
1776444535858954200,19.713954345703126,-37.519073486328125,-2.7533416748046875,-21.389389038085938
1776444535883972000,19.73897216796875,-37.086151123046875,-2.51568603515625,-21.43524169921875
1776444535908990200,19.763990234375,-37.248016357421875,-2.4283294677734375,-22.059295654296875
1776444535934008300,19.78900830078125,-37.52838134765625,-2.391754150390625,-21.672409057617188
1776444535959026400,19.8140263671875,-37.0775146484375,-1.6919403076171875,-22.090866088867188
1776444535984044300,19.839044189453126,-37.418182373046875,-1.314361572265625,-21.76953125
1776444536009062400,19.8640625,-37.7022705078125,-0.6633758544921875,-21.5377197265625
1776444536034080300,19.889080322265624,-37.9425048828125,-0.258056640625,-21.733245849609375
1776444536059098400,19.914098388671874,-37.76531982421875,0.5876922607421875,-21.574417114257812
1776444536084116200,19.9391162109375,-37.41253662109375,1.257537841796875,-21.405319213867188
1776444536109134000,19.964134033203123,-37.026885986328125,2.2821044921875,-21.6334228515625
1776444536134152200,19.989152099609374,-37.20526123046875,2.9904937744140625,-21.205596923828125
1776444536159170300,20.01417041015625,-37.0528564453125,4.3600311279296875,-20.833358764648438
1776444536184188400,20.0391884765625,-37.084442138671875,4.99591064453125,-20.679763793945312
1776444536209206300,20.064206298828125,-37.167724609375,6.3489837646484375,-20.026840209960938
1776444536234224400,20.089224365234376,-37.137359619140625,7.1985015869140625,-19.496902465820312
1776444536259242200,20.1142421875,-37.039031982421875,7.77703857421875,-19.30572509765625
1776444536284260400,20.13926025390625,-37.26409912109375,8.913131713867188,-18.842071533203125
1776444536309278200,20.1642783203125,-36.982757568359375,9.814224243164062,-18.897628784179688
1776444536334296300,20.18929638671875,-37.4874267578125,10.5616455078125,-18.251785278320312
1776444536359314400,20.214314453125,-37.354766845703125,10.898849487304688,-17.8448486328125
1776444536384332500,20.23933251953125,-37.53082275390625,11.450958251953125,-17.12542724609375
1776444536409350400,20.264350341796874,-37.397674560546875,11.70391845703125,-16.666763305664062
1776444536434368300,20.2893681640625,-37.7135009765625,11.97686767578125,-16.109375
1776444536459386400,20.314386474609375,-37.87860107421875,11.81207275390625,-15.761322021484375
1776444536484404200,20.339404296875,-38.053375244140625,12.073959350585938,-15.179718017578125
1776444536509422300,20.36442236328125,-38.154083251953125,11.90533447265625,-15.176071166992188
1776444536534440200,20.389440185546874,-38.160614013671875,11.682357788085938,-15.054595947265625
1776444536559458300,20.414458251953125,-38.061767578125,11.536270141601562,-15.3695068359375
1776444536584476200,20.43947607421875,-37.657928466796875,12.073898315429688,-15.400894165039062
1776444536609494500,20.46449462890625,-38.116668701171875,12.103530883789062,-15.303390502929688
1776444536634512400,20.489512451171876,-37.80194091796875,12.612335205078125,-14.688323974609375
1776444536659530500,20.514530517578127,-38.3709716796875,12.54449462890625,-13.831588745117188
1776444536684548400,20.53954833984375,-38.6014404296875,13.09368896484375,-12.142562866210938
1776444536709566500,20.56456640625,-38.36962890625,13.4520263671875,-10.758804321289062
1776444536734584300,20.589584228515626,-39.141571044921875,14.048599243164062,-8.915542602539062
1776444536759602400,20.6146025390625,-39.184722900390625,14.61627197265625,-7.17266845703125
1776444536784620300,20.639620361328124,-39.0418701171875,15.245498657226562,-4.8383636474609375
1776444536809638100,20.66463818359375,-39.183197021484375,15.402053833007812,-3.359130859375
1776444536834656300,20.68965625,-39.62762451171875,15.721298217773438,-1.487762451171875
1776444536859674400,20.71467431640625,-38.911376953125,16.104843139648438,-0.321014404296875
1776444536884692500,20.7396923828125,-38.73577880859375,16.418777465820312,1.3584747314453125
1776444536909710300,20.76471044921875,-38.291656494140625,16.524261474609375,2.298431396484375
1776444536934728400,20.789728515625,-38.708221435546875,16.492050170898438,3.387939453125
1776444536959746300,20.814746337890625,-38.4227294921875,16.555313110351562,4.0070953369140625
1776444536984764400,20.839764404296876,-37.88421630859375,17.005294799804688,5.125
1776444537009782300,20.8647822265625,-37.61126708984375,17.179901123046875,5.465606689453125
1776444537034800400,20.88980029296875,-37.539886474609375,17.239974975585938,6.320953369140625
1776444537059818200,20.914818359375,-37.615325927734375,17.325393676757812,6.5096282958984375
1776444537084836400,20.93983642578125,-37.308837890625,17.5460205078125,6.766204833984375
1776444537109854500,20.9648544921875,-37.744842529296875,17.484298706054688,7.1521148681640625
1776444537134872300,20.989872314453127,-37.430267333984375,17.154586791992188,7.773895263671875
1776444537159890700,21.014890625,-37.58880615234375,16.706741333007812,8.545135498046875
1776444537184908500,21.039908447265624,-37.4197998046875,16.276824951171875,9.924697875976562
1776444537209926700,21.0649267578125,-37.637298583984375,15.5667724609375,10.991287231445312
1776444537234944500,21.089944580078125,-37.3553466796875,14.64556884765625,12.702255249023438
1776444537259962600,21.114962646484376,-37.457916259765625,13.817962646484375,13.523849487304688
1776444537284980500,21.13998046875,-37.441864013671875,12.958755493164062,14.883071899414062
1776444537309997600,21.16499755859375,-37.687408447265625,12.078720092773438,15.313034057617188
1776444537335015400,21.190015380859375,-37.482574462890625,11.208328247070312,16.599395751953125
1776444537360033800,21.21503369140625,-37.614166259765625,10.801849365234375,16.948318481445312
1776444537385051600,21.2400517578125,-37.510284423828125,9.7845458984375,17.52508544921875
1776444537410069800,21.26506982421875,-37.8333740234375,9.319381713867188,17.406753540039062
1776444537435087600,21.290087646484373,-38.039703369140625,8.91448974609375,17.6142578125
1776444537460105700,21.315105712890624,-37.732086181640625,8.417984008789062,17.33502197265625
1776444537485123600,21.34012353515625,-38.425323486328125,7.813446044921875,17.415390014648438
1776444537510141700,21.3651416015625,-38.4849853515625,7.339111328125,17.200439453125
1776444537535159600,21.39015966796875,-38.480133056640625,6.6522369384765625,16.984909057617188
1776444537560177700,21.415177734375,-38.47406005859375,6.7133026123046875,16.9678955078125
1776444537585195500,21.440195556640624,-39.17822265625,6.39337158203125,16.267425537109375
1776444537610213600,21.465213623046875,-39.086151123046875,6.3239288330078125,15.976211547851562
1776444537635231700,21.490231689453125,-39.6856689453125,6.5408935546875,15.44342041015625
1776444537660249600,21.51524951171875,-39.30023193359375,6.5302581787109375,14.944259643554688
1776444537685267700,21.540267822265626,-39.87872314453125,6.7599029541015625,14.687118530273438
1776444537710285600,21.56528564453125,-39.9112548828125,6.6724700927734375,14.807998657226562
1776444537735303700,21.5903037109375,-39.6282958984375,6.696929931640625,15.23687744140625
1776444537760321500,21.615321533203126,-39.46710205078125,6.2722930908203125,15.727340698242188
1776444537785339600,21.640339599609376,-39.804168701171875,5.9397735595703125,16.220565795898438
1776444537810357500,21.665357421875,-39.413177490234375,5.4139556884765625,16.470932006835938
1776444537835375600,21.690375732421874,-39.7872314453125,4.0563812255859375,16.702499389648438
1776444537860393500,21.7153935546875,-39.666290283203125,3.593048095703125,16.916275024414062
1776444537885411800,21.740411865234375,-39.39801025390625,3.1701812744140625,16.704238891601562
1776444537910429700,21.7654296875,-39.74737548828125,2.47003173828125,16.769622802734375
1776444537935447800,21.79044775390625,-40.267486572265625,2.0355377197265625,16.647171020507812
1776444537960465700,21.815465576171874,-39.509918212890625,1.89251708984375,16.673660278320312
1776444537985483500,21.8404833984375,-39.657073974609375,1.0661773681640625,17.347930908203125
1776444538010501600,21.865501708984375,-39.31219482421875,0.8255615234375,17.928192138671875
1776444538035519500,21.89051953125,-39.337432861328125,-0.0736083984375,19.010162353515625
1776444538060536600,21.91553662109375,-38.839508056640625,-0.852508544921875,19.395294189453125
1776444538085554700,21.9405546875,-38.87451171875,-2.414764404296875,20.160934448242188
1776444538110572500,21.965572509765625,-38.979461669921875,-3.4141845703125,20.311080932617188
1776444538135590700,21.990590576171876,-38.263671875,-4.686767578125,20.929412841796875
1776444538160607700,22.015607666015626,-37.73150634765625,-5.069488525390625,21.063323974609375
1776444538185625900,22.0406259765625,-37.8936767578125,-6.199737548828125,21.675033569335938
1776444538210643700,22.065643798828123,-37.234893798828125,-7.5778045654296875,22.10186767578125
1776444538235661800,22.090661865234374,-37.277557373046875,-8.813247680664062,21.796920776367188
1776444538260680000,22.115679931640624,-37.24298095703125,-10.337875366210938,21.469985961914062
1776444538285698000,22.140697998046875,-37.195404052734375,-11.311065673828125,20.936782836914062
1776444538310716000,22.1657158203125,-36.869537353515625,-12.250244140625,21.105758666992188
1776444538335734000,22.190734130859376,-36.8665771484375,-12.820297241210938,20.696258544921875
1776444538360751900,22.215751953125,-37.13555908203125,-13.500350952148438,20.397720336914062
1776444538385769700,22.240769775390625,-36.682647705078125,-13.987838745117188,19.8748779296875
1776444538410787800,22.265787841796875,-36.82989501953125,-14.4293212890625,19.329513549804688
1776444538435805700,22.2908056640625,-37.310028076171875,-15.004074096679688,18.769058227539062
1776444538460823800,22.31582373046875,-37.08477783203125,-15.402252197265625,18.166107177734375
1776444538485841700,22.340841552734375,-37.268707275390625,-15.624786376953125,17.400390625
1776444538510859800,22.36585986328125,-37.28472900390625,-16.240447998046875,17.116424560546875
1776444538535878000,22.3908779296875,-37.53326416015625,-16.783798217773438,16.790802001953125
1776444538560894700,22.415894775390626,-37.22650146484375,-18.009933471679688,15.967239379882812
1776444538585912800,22.440912841796877,-37.28375244140625,-18.507568359375,15.214218139648438
1776444538610931000,22.465930908203124,-36.693817138671875,-19.756393432617188,14.487213134765625
1776444538635948800,22.49094873046875,-36.632965087890625,-20.398147583007812,13.775131225585938
1776444538660967000,22.515966796875,-36.29571533203125,-22.019546508789062,13.019332885742188
1776444538685984800,22.54098486328125,-36.167449951171875,-22.843185424804688,12.322052001953125
1776444538711003000,22.5660029296875,-35.848663330078125,-23.5672607421875,11.37176513671875
1776444538736020700,22.591020751953124,-36.14239501953125,-24.088333129882812,10.558914184570312
1776444538761038800,22.616038818359375,-35.600372314453125,-25.258560180664062,9.696929931640625
1776444538786056700,22.641056640625,-35.630859375,-25.725738525390625,9.220916748046875
1776444538811074800,22.66607470703125,-35.365814208984375,-26.392257690429688,8.290313720703125
1776444538836093000,22.691093017578126,-35.03387451171875,-26.533447265625,7.4281005859375
1776444538861111000,22.716111083984377,-34.425445556640625,-27.1094970703125,7.2005767822265625
1776444538886129000,22.74112890625,-35.10693359375,-27.01300048828125,7.2073516845703125
1776444538911146800,22.766146728515626,-35.0120849609375,-26.71246337890625,7.4543609619140625
1776444538936164900,22.791164794921876,-35.02923583984375,-26.778228759765625,6.942901611328125
1776444538961182700,22.8161826171875,-35.6348876953125,-26.418975830078125,5.4352264404296875
1776444538986199800,22.84119970703125,-36.124908447265625,-26.081192016601562,4.2984771728515625
1776444539011218000,22.866218017578124,-35.950775146484375,-26.0911865234375,3.1843414306640625
1776444539036235800,22.89123583984375,-36.26312255859375,-26.146377563476562,2.85125732421875
1776444539061254000,22.91625390625,-36.24102783203125,-26.371658325195312,1.97796630859375
1776444539086271700,22.941271728515623,-36.56414794921875,-26.582015991210938,1.2109527587890625
1776444539111289900,22.966289794921874,-35.671051025390625,-26.476043701171875,0.868682861328125
1776444539136308000,22.991307861328124,-35.785888671875,-26.841934204101562,0.0226287841796875
1776444539161326300,23.016326416015627,-35.36749267578125,-26.620941162109375,-1.3497772216796875
1776444539186344400,23.041344482421874,-35.6976318359375,-26.78466796875,-2.53961181640625
1776444539211362300,23.0663623046875,-35.9425048828125,-26.677505493164062,-3.5657501220703125
1776444539236380400,23.09138037109375,-35.7054443359375,-26.505538940429688,-4.6479949951171875
1776444539261398300,23.116398193359377,-35.7576904296875,-26.517730712890625,-5.394073486328125
1776444539286416400,23.14141650390625,-35.653106689453125,-26.1597900390625,-6.101776123046875
1776444539311433200,23.16643310546875,-35.337677001953125,-26.411056518554688,-5.8091278076171875
1776444539336451300,23.191451416015624,-35.539398193359375,-26.327911376953125,-5.4486541748046875
1776444539361469200,23.21646923828125,-35.815673828125,-26.505722045898438,-4.8956298828125
1776444539386487600,23.241487548828125,-35.62872314453125,-26.774658203125,-4.6302947998046875
1776444539411505400,23.26650537109375,-35.679168701171875,-26.721405029296875,-4.5511322021484375
1776444539436523500,23.2915234375,-35.618072509765625,-26.885360717773438,-4.44842529296875
1776444539461541400,23.316541259765625,-35.2086181640625,-26.741622924804688,-4.9893646240234375
1776444539486559500,23.3415595703125,-35.701080322265625,-26.372909545898438,-5.7042083740234375
1776444539511577300,23.366577392578126,-35.981781005859375,-25.676925659179688,-7.4693603515625
1776444539536595500,23.391595458984376,-35.7921142578125,-25.005859375,-8.587387084960938
1776444539561613300,23.41661328125,-36.077484130859375,-23.923065185546875,-10.135833740234375
1776444539586631400,23.44163134765625,-36.1365966796875,-23.326583862304688,-11.497817993164062
1776444539611649300,23.466649169921876,-36.270538330078125,-22.147430419921875,-13.23309326171875
1776444539636666400,23.491666259765626,-36.333770751953125,-21.53924560546875,-14.455368041992188
1776444539661684200,23.516684326171877,-36.496673583984375,-20.225936889648438,-16.405624389648438
1776444539686702600,23.54170263671875,-36.45184326171875,-19.420181274414062,-17.637741088867188
1776444539711720400,23.566720458984374,-36.26617431640625,-18.080551147460938,-19.00152587890625
1776444539736738600,23.591738525390625,-36.261444091796875,-17.097885131835938,-19.739181518554688
1776444539761756400,23.61675634765625,-35.691375732421875,-15.577835083007812,-21.354019165039062
1776444539786774300,23.641774169921874,-35.858123779296875,-14.4312744140625,-21.906112670898438
1776444539811792400,23.66679248046875,-36.027587890625,-12.722442626953125,-23.082321166992188
1776444539836810200,23.691810302734375,-35.668548583984375,-11.728485107421875,-23.334243774414062
1776444539861828400,23.716828369140625,-35.62408447265625,-10.680679321289062,-24.496734619140625
1776444539886846200,23.74184619140625,-35.537841796875,-9.990859985351562,-24.397003173828125
1776444539911864300,23.7668642578125,-36.115814208984375,-8.4989013671875,-24.501922607421875
1776444539936882400,23.79188232421875,-36.09039306640625,-7.5174560546875,-24.744949340820312
1776444539961899300,23.816899169921875,-36.5001220703125,-5.4008941650390625,-24.751235961914062
1776444539986917400,23.84191748046875,-36.579345703125,-3.8970794677734375,-24.669662475585938
1776444540011935500,23.866935546875,-36.663604736328125,-2.37603759765625,-24.888458251953125
1776444540036953300,23.891953369140627,-36.679931640625,-0.9698333740234375,-24.615798950195312
1776444540061971500,23.916971435546873,-36.328094482421875,0.9268341064453125,-24.608200073242188
1776444540086989300,23.9419892578125,-36.183746337890625,2.160003662109375,-24.678146362304688
1776444540112007400,23.96700732421875,-35.94866943359375,3.6894378662109375,-24.27734375
1776444540137025300,23.992025390625,-36.289459228515625,4.5217132568359375,-24.041595458984375
1776444540162047200,24.017047119140624,-36.149383544921875,4.9710235595703125,-23.792144775390625
1776444540187065000,24.042065185546875,-36.646453857421875,5.8196563720703125,-23.174163818359375
1776444540212083200,24.067083251953125,-36.471832275390625,6.0074310302734375,-23.099594116210938
1776444540237100000,24.09210009765625,-37.119140625,6.30621337890625,-22.623794555664062
1776444540262118100,24.1171181640625,-37.102203369140625,6.308319091796875,-22.71710205078125
1776444540287136000,24.142135986328125,-36.917083740234375,6.12750244140625,-22.1573486328125
1776444540312154000,24.167154052734375,-36.852813720703125,5.874053955078125,-22.009140014648438
1776444540337172000,24.192171875,-37.439910888671875,5.678680419921875,-21.70770263671875
1776444540362190000,24.217190185546876,-37.58477783203125,5.4917449951171875,-21.518264770507812
1776444540387208000,24.2422080078125,-37.502899169921875,4.9171600341796875,-21.093673706054688
1776444540412226300,24.267226318359373,-37.76800537109375,4.897674560546875,-21.0408935546875
1776444540437244200,24.292244140625,-37.35333251953125,4.2304229736328125,-21.2080078125
1776444540462262300,24.31726220703125,-37.517425537109375,4.018798828125,-21.24176025390625
1776444540487279000,24.342279052734376,-37.99798583984375,3.339630126953125,-20.585800170898438
1776444540512297200,24.367297119140623,-37.7674560546875,3.08935546875,-20.070526123046875
1776444540537315000,24.392315185546874,-38.57647705078125,1.8796844482421875,-19.722137451171875
1776444540562333200,24.417333251953124,-38.839569091796875,1.6010284423828125,-19.741897583007812
1776444540587351000,24.44235107421875,-38.646331787109375,0.7072296142578125,-19.73614501953125
1776444540612369200,24.467369140625,-38.20245361328125,0.2675628662109375,-20.295181274414062
1776444540637387000,24.492386962890624,-38.2354736328125,-0.476287841796875,-20.836776733398438
1776444540662405000,24.517405029296874,-38.380828857421875,-0.76971435546875,-21.230621337890625
1776444540687423000,24.542423095703125,-37.278045654296875,-0.9744873046875,-22.153854370117188
1776444540712441000,24.567441162109375,-36.444122314453125,-0.9948577880859375,-22.828872680664062
1776444540737458000,24.5924580078125,-36.2352294921875,-1.029632568359375,-23.675308227539062
1776444540762476300,24.617476318359376,-35.456634521484375,-1.0273590087890625,-24.725845336914062
1776444540787494100,24.642494140625,-33.949005126953125,-0.37457275390625,-25.907760620117188
1776444540812512300,24.66751220703125,-33.885101318359375,0.18524169921875,-26.704147338867188
1776444540837530000,24.692530029296876,-32.24127197265625,0.708526611328125,-28.3331298828125
1776444540862548200,24.71754833984375,-31.15069580078125,0.735870361328125,-29.658096313476562
1776444540887566000,24.742566162109377,-28.978729248046875,1.1410369873046875,-31.701065063476562
1776444540912584200,24.767584228515624,-27.672027587890625,1.612823486328125,-32.703033447265625
1776444540937601000,24.79260107421875,-26.003021240234375,2.233123779296875,-34.2677001953125
1776444540962619100,24.817619140625,-23.717071533203125,2.6706390380859375,-35.06632995605469
1776444540987637000,24.842636962890627,-21.496734619140625,3.762725830078125,-36.667724609375
1776444541012655000,24.867655029296873,-20.005950927734375,4.6071014404296875,-37.45896911621094
1776444541037673000,24.8926728515625,-18.0118408203125,5.82745361328125,-38.414794921875
1776444541062691000,24.917691162109374,-16.46728515625,6.601593017578125,-38.83509826660156
1776444541087709200,24.942709228515625,-14.96038818359375,7.3533477783203125,-39.32341003417969
1776444541112727000,24.96772705078125,-13.693939208984375,7.7081298828125,-39.77960205078125
1776444541137745200,24.9927451171875,-11.73333740234375,8.268356323242188,-39.923492431640625
1776444541162758400,25.01775830078125,-11.995147705078125,8.421051025390625,-39.912384033203125
1776444541187776300,25.0427763671875,-11.785003662109375,8.9071044921875,-40.00224304199219
1776444541212794400,25.06779443359375,-11.7049560546875,9.490966796875,-39.85694885253906
1776444541237812200,25.092812255859375,-13.113372802734375,9.79290771484375,-39.3878173828125
1776444541262830600,25.11783056640625,-13.37518310546875,10.613601684570312,-39.119171142578125
1776444541287848400,25.142848388671876,-14.764984130859375,10.920425415039062,-38.568084716796875
1776444541312866600,25.167866455078126,-15.304443359375,11.337509155273438,-38.16754150390625
1776444541337884400,25.192884521484373,-16.3865966796875,11.609649658203125,-37.50477600097656
1776444541362902500,25.217902587890624,-17.16326904296875,11.81158447265625,-37.492401123046875
1776444541387919400,25.24291943359375,-17.694732666015625,11.9947509765625,-36.621978759765625
1776444541412937500,25.2679375,-17.768035888671875,12.161270141601562,-36.48028564453125
1776444541437955300,25.292955322265627,-18.37432861328125,11.989456176757812,-36.632720947265625
1776444541462973400,25.317973388671874,-17.94549560546875,12.213088989257812,-36.26422119140625
1776444541487991300,25.3429912109375,-17.799560546875,11.886245727539062,-36.33561706542969
1776444541513009400,25.368009521484375,-17.97723388671875,11.4183349609375,-36.657989501953125
1776444541538027300,25.39302734375,-18.08935546875,10.822296142578125,-36.85084533691406
1776444541563045400,25.41804541015625,-17.87091064453125,10.45166015625,-36.85455322265625
1776444541588062200,25.443062255859374,-17.991851806640625,9.8079833984375,-37.43666076660156
1776444541613080600,25.46808056640625,-18.38446044921875,9.02569580078125,-37.45597839355469
1776444541638098400,25.493098388671875,-18.953277587890625,8.4697265625,-37.16435241699219
1776444541663116500,25.518116455078125,-19.4744873046875,8.203842163085938,-36.79835510253906
1776444541688134400,25.543134521484376,-20.6058349609375,7.5132598876953125,-36.338165283203125
1776444541713152500,25.568152587890626,-21.49212646484375,7.0723724365234375,-35.6678466796875
1776444541738170400,25.59317041015625,-22.295654296875,6.2275543212890625,-35.50529479980469
1776444541763188500,25.6181884765625,-23.071136474609375,5.678466796875,-35.34004211425781
1776444541788206300,25.643206298828126,-23.10186767578125,4.8161468505859375,-35.22894287109375
1776444541813223400,25.668223388671876,-23.466552734375,4.36810302734375,-35.37493896484375
1776444541838241300,25.6932412109375,-23.4207763671875,3.357513427734375,-34.93968200683594
1776444541863259400,25.71825927734375,-23.045074462890625,2.6331634521484375,-35.02293395996094
1776444541888277200,25.74327734375,-23.68603515625,1.35845947265625,-35.50093078613281
1776444541913295400,25.76829541015625,-23.417724609375,0.6643524169921875,-35.42289733886719
1776444541938313500,25.7933134765625,-22.9012451171875,-0.30126953125,-35.697479248046875
1776444541963331600,25.81833154296875,-23.196563720703125,-1.4221038818359375,-35.71745300292969
1776444541988348400,25.843348388671874,-22.893524169921875,-2.81292724609375,-35.85575866699219
1776444542013366500,25.868366455078124,-22.62689208984375,-3.25054931640625,-35.813720703125
1776444542038384400,25.89338427734375,-21.99993896484375,-3.3658599853515625,-35.99867248535156
1776444542063402500,25.918402587890625,-22.377471923828125,-3.07708740234375,-36.31358337402344
1776444542088420400,25.94342041015625,-21.81317138671875,-3.3719329833984375,-36.50726318359375
1776444542113438500,25.9684384765625,-21.017486572265625,-3.1156463623046875,-36.772705078125
1776444542138456300,25.993456298828125,-20.54168701171875,-3.3860931396484375,-37.16294860839844
1776444542163475000,26.018474853515624,-19.55572509765625,-3.3243255615234375,-37.67474365234375
1776444542188492000,26.043491943359374,-18.191131591796875,-3.2992401123046875,-38.082855224609375
1776444542213510100,26.06851025390625,-17.769317626953125,-3.4035186767578125,-38.73390197753906
1776444542238528000,26.093528076171875,-16.432464599609375,-3.0482177734375,-39.18980407714844
1776444542263546000,26.118546142578126,-15.665924072265625,-2.723663330078125,-39.69374084472656
1776444542288564000,26.14356396484375,-14.678863525390625,-1.9891357421875,-40.019073486328125
1776444542313581800,26.168581787109375,-14.004364013671875,-1.8457183837890625,-40.2801513671875
1776444542338600000,26.193599853515625,-13.235626220703125,-1.5306243896484375,-40.52742004394531
1776444542363617000,26.218616943359375,-13.7667236328125,-1.2587890625,-40.35292053222656
1776444542388635000,26.243634765625,-13.56268310546875,-0.769378662109375,-40.532867431640625
1776444542413653000,26.268653076171876,-13.847076416015625,-0.315338134765625,-40.29217529296875
1776444542438670800,26.2936708984375,-14.994598388671875,-0.0478363037109375,-40.12736511230469
1776444542463689000,26.31868896484375,-15.5675048828125,-0.086761474609375,-39.776275634765625
1776444542488707000,26.34370703125,-17.41583251953125,-0.6947479248046875,-39.13465881347656
1776444542513725000,26.368724853515626,-18.292449951171875,-0.9612274169921875,-38.677032470703125
1776444542538743000,26.393742919921873,-19.756195068359375,-1.4827880859375,-37.74964904785156
1776444542563760000,26.418760009765624,-20.56494140625,-2.2323150634765625,-37.2652587890625
1776444542588778000,26.443778076171874,-21.8646240234375,-2.9189300537109375,-36.91798400878906
1776444542613796000,26.468796142578125,-22.12823486328125,-3.5815277099609375,-36.024322509765625
1776444542638814000,26.49381396484375,-22.3353271484375,-4.226806640625,-35.70018005371094
1776444542663832000,26.51883203125,-23.485382080078125,-4.5987701416015625,-35.878570556640625
1776444542688850000,26.543849853515624,-23.10107421875,-4.848388671875,-35.39326477050781
1776444542713867800,26.56886767578125,-22.958892822265625,-5.112396240234375,-35.723419189453125
1776444542738884900,26.593884765625,-23.12762451171875,-5.5126190185546875,-35.685882568359375
1776444542763903000,26.618903076171875,-22.051177978515625,-5.924285888671875,-35.68733215332031
1776444542788920800,26.6439208984375,-20.9664306640625,-6.3709869384765625,-36.44639587402344
1776444542813939000,26.66893896484375,-19.656585693359375,-7.4180145263671875,-37.22215270996094
1776444542838957000,26.69395703125,-18.717559814453125,-8.233856201171875,-37.41636657714844
1776444542863975200,26.71897509765625,-17.6435546875,-8.972991943359375,-37.78273010253906
1776444542888993000,26.743992919921876,-16.67193603515625,-10.172927856445312,-37.94453430175781
1776444542914010000,26.769010009765626,-16.66888427734375,-11.122756958007812,-37.80250549316406
1776444542939028000,26.794028076171877,-15.4495849609375,-12.073211669921875,-37.78717041015625
1776444542964046000,26.819046142578124,-14.32452392578125,-13.171707153320312,-37.88385009765625
1776444542989064000,26.84406396484375,-14.04302978515625,-13.548721313476562,-38.250335693359375
1776444543014082000,26.86908203125,-13.301422119140625,-14.823715209960938,-38.07154846191406
1776444543039100000,26.894099853515623,-12.530517578125,-14.975082397460938,-38.25715637207031
1776444543064117000,26.919116943359374,-11.700439453125,-15.580368041992188,-38.29261779785156
1776444543089134800,26.944134765625,-11.58154296875,-15.908660888671875,-38.4959716796875
1776444543114153000,26.969153076171875,-10.88970947265625,-16.338409423828125,-38.52288818359375
1776444543139170800,26.9941708984375,-9.84619140625,-16.193634033203125,-38.59501647949219
1776444543164188200,27.019188232421875,-9.547332763671875,-16.51666259765625,-38.9630126953125
1776444543189206300,27.044206298828126,-9.032501220703125,-16.792282104492188,-38.97566223144531
1776444543214224400,27.069224365234376,-6.84149169921875,-16.806640625,-38.95127868652344
1776444543239241500,27.094241455078127,-6.05169677734375,-17.044479370117188,-39.22674560546875
1776444543264259300,27.11925927734375,-4.60113525390625,-17.179611206054688,-39.17060852050781
1776444543289277400,27.14427734375,-3.37640380859375,-17.473892211914062,-39.48063659667969
1776444543314295300,27.16929541015625,-2.165130615234375,-17.493148803710938,-39.49468994140625
1776444543339313200,27.194313232421877,-0.9119873046875,-17.225601196289062,-39.44273376464844
1776444543364331300,27.219331298828124,-0.29083251953125,-17.2342529296875,-39.54087829589844
1776444543389348400,27.244348388671874,0.287689208984375,-17.065414428710938,-39.43348693847656
1776444543414366200,27.2693662109375,1.050384521484375,-16.558380126953125,-39.632049560546875
1776444543439384300,27.29438427734375,0.611907958984375,-16.4876708984375,-39.582977294921875
1776444543464402200,27.319402099609373,0.602264404296875,-16.551589965820312,-40.05082702636719
1776444543489420300,27.344420166015624,0.882171630859375,-16.003829956054688,-39.96391296386719
1776444543514438100,27.369438232421874,1.3448486328125,-15.888397216796875,-40.15211486816406
1776444543539455200,27.394455322265625,1.808685302734375,-15.445281982421875,-40.33396911621094
1776444543564473000,27.41947314453125,2.426422119140625,-15.215927124023438,-40.13117980957031
1776444543589491500,27.444491455078126,3.4267578125,-15.185104370117188,-40.49281311035156
1776444543614509300,27.46950927734375,3.832000732421875,-14.732223510742188,-40.37831115722656
1776444543639527400,27.49452734375,4.32318115234375,-14.318923950195312,-40.80958557128906
1776444543664545300,27.519545166015625,4.062713623046875,-13.974380493164062,-40.874664306640625
1776444543689563400,27.5445634765625,3.845245361328125,-13.4610595703125,-40.88661193847656
1776444543714580200,27.569580322265626,3.511688232421875,-13.356521606445312,-41.22239685058594
1776444543739598300,27.594598388671876,3.786041259765625,-13.03497314453125,-41.357818603515625
1776444543764616200,27.6196162109375,4.072967529296875,-12.896926879882812,-41.08436584472656
1776444543789634300,27.64463427734375,3.53411865234375,-12.878585815429688,-41.33845520019531
1776444543814652200,27.669652099609376,3.2806396484375,-12.637191772460938,-41.505218505859375
1776444543839669200,27.694669189453126,3.29052734375,-12.681900024414062,-41.275787353515625
1776444543864687000,27.71968701171875,3.826385498046875,-12.792861938476562,-41.163330078125
1776444543889705200,27.744705322265624,4.086700439453125,-12.657562255859375,-40.849639892578125
1776444543914723000,27.76972314453125,4.356719970703125,-12.989852905273438,-40.96711730957031
1776444543939741400,27.794741455078125,5.01373291015625,-12.614959716796875,-41.0240478515625
1776444543964759300,27.81975927734375,5.20172119140625,-12.365951538085938,-40.90373229980469
1776444543989776400,27.8447763671875,5.973541259765625,-12.029373168945312,-40.688446044921875
1776444544014794200,27.869794189453124,6.315216064453125,-11.670547485351562,-40.795074462890625
1776444544039812400,27.894812255859375,6.917724609375,-11.732208251953125,-40.77665710449219
1776444544064830200,27.919830322265625,7.508453369140625,-11.785354614257812,-40.63139343261719
1776444544089848300,27.944848388671875,8.22955322265625,-11.393508911132812,-40.43731689453125
1776444544114866200,27.9698662109375,9.26458740234375,-11.434417724609375,-40.37103271484375
1776444544139883300,27.99488330078125,9.88616943359375,-11.053314208984375,-40.5303955078125
1776444544164901400,28.0199013671875,10.658782958984375,-10.774505615234375,-40.27058410644531
1776444544189919700,28.044919677734374,10.999053955078125,-10.560516357421875,-40.12034606933594
1776444544214937600,28.0699375,11.42578125,-10.265090942382812,-40.02374267578125
1776444544239955700,28.094955810546875,11.6357421875,-9.451492309570312,-40.147857666015625
1776444544264973600,28.1199736328125,12.039031982421875,-8.783050537109375,-40.40971374511719
1776444544289991700,28.14499169921875,11.88775634765625,-8.25213623046875,-40.28285217285156
1776444544315008800,28.1700087890625,11.7818603515625,-7.5037689208984375,-40.40956115722656
1776444544340026600,28.195026611328124,11.8128662109375,-6.6917877197265625,-40.833404541015625
1776444544365044500,28.22004443359375,11.763458251953125,-6.1461181640625,-40.89947509765625
1776444544390062600,28.2450625,11.220611572265625,-5.1090545654296875,-41.348907470703125
1776444544415080400,28.27008056640625,11.465667724609375,-4.778564453125,-41.23292541503906
1776444544440097500,28.29509765625,11.862548828125,-3.23876953125,-41.16148376464844
1776444544465115600,28.32011572265625,12.400848388671875,-2.5286865234375,-41.03941345214844
1776444544490133500,28.345133544921875,12.6217041015625,-1.9857025146484375,-41.09489440917969
1776444544515151600,28.370151611328126,13.410369873046875,-1.81524658203125,-40.89463806152344
1776444544540169500,28.39516943359375,14.2020263671875,-1.181304931640625,-40.72735595703125
1776444544565187600,28.4201875,14.558197021484375,-1.15771484375,-40.53926086425781
1776444544590204400,28.445204345703125,15.074432373046875,-1.0661163330078125,-40.40296936035156
1776444544615222800,28.470222900390624,15.689727783203125,-1.0478363037109375,-40.35919189453125
1776444544640240600,28.49524072265625,15.758453369140625,-1.5607147216796875,-40.24601745605469
1776444544665258800,28.5202587890625,15.941802978515625,-1.6827239990234375,-39.98463439941406
1776444544690276600,28.545276611328124,16.190216064453125,-2.2904052734375,-40.042083740234375
1776444544715293700,28.570293701171874,16.279937744140625,-2.0933990478515625,-39.90061950683594
1776444544740311600,28.5953115234375,16.23162841796875,-2.343048095703125,-39.77116394042969
1776444544765329700,28.62032958984375,16.315216064453125,-2.322235107421875,-39.7806396484375
1776444544790347500,28.645347412109373,16.750274658203125,-2.3448486328125,-39.51994323730469
1776444544815364600,28.670364501953124,16.942474365234375,-1.935333251953125,-39.79052734375
1776444544840382500,28.695382568359374,16.4437255859375,-1.5345306396484375,-39.8175048828125
1776444544865400600,28.720400634765625,16.02227783203125,-1.194732666015625,-40.21466064453125
1776444544890418400,28.74541845703125,16.405487060546875,-0.6871795654296875,-40.27503967285156
1776444544915436500,28.7704365234375,15.16229248046875,0.0655364990234375,-40.37907409667969
1776444544940453600,28.79545361328125,14.604461669921875,0.84454345703125,-40.48719787597656
1776444544965471500,28.820471435546875,13.73455810546875,2.1851654052734375,-40.73313903808594
1776444544990489600,28.845489501953125,13.651123046875,2.871856689453125,-40.732025146484375
1776444545015507700,28.8705078125,12.59912109375,4.057220458984375,-41.21565246582031
1776444545040525600,28.895525634765626,12.045806884765625,4.5462493896484375,-40.95185852050781
1776444545065542700,28.920542724609376,11.817474365234375,5.6260528564453125,-40.86714172363281
1776444545090560800,28.945560791015627,11.714080810546875,5.7947845458984375,-41.299072265625
1776444545115578600,28.97057861328125,12.066802978515625,5.9037017822265625,-40.94126892089844
1776444545140596700,28.9955966796875,12.52423095703125,6.20477294921875,-40.56219482421875
1776444545165613800,29.02061376953125,13.520538330078125,6.6636505126953125,-40.40696716308594
1776444545190631000,29.045630859375,13.986083984375,7.0760040283203125,-40.29615783691406
1776444545215648800,29.070648681640623,14.46551513671875,7.404266357421875,-39.85401916503906
1776444545240667000,29.0956669921875,13.906280517578125,8.288040161132812,-39.99482727050781
1776444545265685000,29.12068505859375,13.360931396484375,9.513168334960938,-40.10888671875
1776444545290703000,29.145703125,12.91851806640625,10.544296264648438,-39.93695068359375
1776444545315720200,29.17072021484375,10.42425537109375,12.033203125,-39.92073059082031
1776444545340738000,29.195738037109376,8.942596435546875,13.162139892578125,-39.937164306640625
1776444545365756200,29.220756103515626,6.744873046875,14.655426025390625,-39.91510009765625
1776444545390774000,29.24577392578125,5.310272216796875,15.4708251953125,-39.65299987792969
1776444545415791900,29.2707919921875,2.70526123046875,16.709396362304688,-39.347564697265625
1776444545440810000,29.29581005859375,1.368927001953125,17.501922607421875,-39.30169677734375
1776444545465827000,29.3208271484375,0.23516845703125,18.292922973632812,-38.87580871582031
1776444545490845000,29.345844970703126,-0.93121337890625,18.98291015625,-38.456329345703125
1776444545515863000,29.370863037109373,-2.1279296875,19.287521362304688,-38.23564147949219
1776444545540881000,29.395880859375,-1.992919921875,19.468124389648438,-38.28887939453125
1776444545565899000,29.42089892578125,-2.738800048828125,19.583282470703125,-38.37654113769531
1776444545590915800,29.445915771484376,-3.11553955078125,19.19415283203125,-38.328216552734375
1776444545615934000,29.470933837890627,-3.152679443359375,18.958358764648438,-38.39646911621094
1776444545640951800,29.495951904296874,-3.36541748046875,18.696868896484375,-38.49339294433594
1776444545665970000,29.520969970703124,-3.8013916015625,18.304550170898438,-38.80439758300781
1776444545690986800,29.54598681640625,-4.040924072265625,18.08770751953125,-38.5938720703125
1776444545716004900,29.5710048828125,-4.1737060546875,17.884185791015625,-38.86814880371094
1776444545741023000,29.59602294921875,-4.828155517578125,17.610305786132812,-38.90728759765625
1776444545766041000,29.621041015625,-5.35711669921875,17.216079711914062,-39.005828857421875
1776444545791059000,29.646058837890624,-5.72119140625,16.7193603515625,-39.05096435546875
1776444545816076000,29.671075927734375,-5.82879638671875,16.635955810546875,-38.96971130371094
1776444545841094100,29.69609423828125,-5.782623291015625,16.105178833007812,-39.324951171875
1776444545866112000,29.721112060546876,-6.01983642578125,15.909103393554688,-39.0836181640625
1776444545891129900,29.7461298828125,-6.51129150390625,15.711624145507812,-39.30964660644531
1776444545916148000,29.77114794921875,-6.203094482421875,15.48065185546875,-39.41667175292969
1776444545941165000,29.7961650390625,-6.5614013671875,15.038589477539062,-39.52095031738281
1776444545966183000,29.821182861328126,-7.179779052734375,15.00262451171875,-39.85101318359375
1776444545991201000,29.846200927734376,-6.959747314453125,14.789215087890625,-39.67930603027344
1776444546016219000,29.871218994140627,-6.580474853515625,14.643417358398438,-39.588592529296875
1776444546041237000,29.896237060546873,-6.315460205078125,14.469406127929688,-39.74668884277344
1776444546066253800,29.92125390625,-5.886383056640625,14.489212036132812,-39.67106628417969
1776444546091272000,29.94627197265625,-6.137908935546875,14.913604736328125,-39.64527893066406
1776444546116289800,29.971289794921876,-6.287750244140625,15.414398193359375,-39.2586669921875
1776444546141308200,29.99630810546875,-6.438140869140625,15.828369140625,-39.14686584472656
1776444546166325200,30.0213251953125,-6.487060546875,16.481246948242188,-38.651947021484375
1776444546191343400,30.04634326171875,-7.0050048828125,16.789398193359375,-38.763031005859375
1776444546216361200,30.071361328125,-7.19073486328125,17.167221069335938,-38.71534729003906
1776444546241379300,30.09637939453125,-7.085174560546875,17.3465576171875,-38.33964538574219
1776444546266397200,30.121397216796876,-7.149169921875,17.288497924804688,-38.31141662597656
1776444546291414300,30.146414306640626,-7.8455810546875,17.13043212890625,-38.53791809082031
1776444546316432100,30.17143212890625,-7.99920654296875,16.74102783203125,-38.23954772949219
1776444546341450500,30.196450439453123,-9.6513671875,16.875350952148438,-38.113494873046875
1776444546366468400,30.22146826171875,-10.400848388671875,16.750732421875,-38.13890075683594
1776444546391486500,30.246486572265624,-11.124359130859375,16.383010864257812,-37.855072021484375
1776444546416503600,30.271503662109374,-11.5340576171875,16.104248046875,-37.446685791015625
1776444546441521400,30.296521484375,-11.389404296875,15.4024658203125,-37.966644287109375
1776444546466539300,30.321539306640624,-11.532562255859375,14.686004638671875,-38.324951171875
1776444546491557400,30.346557373046874,-11.48101806640625,13.93536376953125,-38.74139404296875
1776444546516574500,30.371574462890624,-11.61505126953125,13.511138916015625,-38.738922119140625
1776444546541592300,30.39659228515625,-12.550140380859375,12.69403076171875,-38.928314208984375
1776444546566610400,30.4216103515625,-12.52490234375,12.569869995117188,-38.88873291015625
1776444546591628300,30.446628173828124,-13.41162109375,12.36767578125,-38.95411682128906
1776444546616646400,30.471646484375,-13.65234375,12.142074584960938,-38.88116455078125
1776444546641663200,30.496663330078125,-14.547393798828125,12.11981201171875,-38.52900695800781
1776444546666681300,30.521681396484375,-15.206390380859375,12.0164794921875,-38.26409912109375
1776444546691699200,30.54669921875,-15.69488525390625,11.523239135742188,-38.363983154296875
1776444546716717300,30.57171728515625,-16.284637451171875,11.322708129882812,-38.13514709472656
1776444546741735400,30.5967353515625,-17.192596435546875,10.938140869140625,-37.96479797363281
1776444546766752300,30.621752197265625,-17.392852783203125,10.668609619140625,-37.97444152832031
1776444546791770400,30.646770263671876,-17.977294921875,10.09625244140625,-37.93644714355469
1776444546816788500,30.67178857421875,-18.00250244140625,9.777023315429688,-37.964385986328125
1776444546841806300,30.696806396484376,-18.448577880859375,9.080215454101562,-38.20103454589844
1776444546866823400,30.721823486328127,-18.503692626953125,8.4342041015625,-38.2210693359375
1776444546891841500,30.746841552734374,-18.538055419921875,7.765594482421875,-38.393524169921875
1776444546916859400,30.771859375,-18.56781005859375,7.1148681640625,-38.61381530761719
1776444546941877200,30.796877197265626,-19.128265380859375,6.6792144775390625,-38.361297607421875
1776444546966894300,30.821894287109377,-19.430328369140625,6.5652923583984375,-38.34794616699219
1776444546991912400,30.846912353515624,-20.126312255859375,6.1168975830078125,-37.737091064453125
1776444547016930300,30.871930419921874,-20.3369140625,5.5959014892578125,-37.62681579589844
1776444547041948400,30.896948486328125,-21.792938232421875,5.1791534423828125,-36.97834777832031
1776444547066966300,30.92196630859375,-22.588897705078125,4.6175994873046875,-36.44781494140625
1776444547091983400,30.9469833984375,-24.211761474609375,4.2710418701171875,-35.66070556640625
1776444547117001200,30.972001220703124,-25.257568359375,3.346343994140625,-35.36235046386719
1776444547142019300,30.997019287109374,-26.25244140625,2.6129913330078125,-34.492889404296875
1776444547167040800,31.022040771484374,-26.723785400390625,1.5865325927734375,-34.490692138671875
1776444547192057900,31.047057861328124,-27.002288818359375,1.103515625,-33.95953369140625
1776444547217075700,31.07207568359375,-27.14404296875,0.8040618896484375,-34.05284118652344
1776444547242093800,31.09709375,-27.058135986328125,0.010894775390625,-34.2125244140625
1776444547267111700,31.122111572265624,-26.3511962890625,-0.42681884765625,-34.47613525390625
1776444547292128800,31.147128662109374,-26.3936767578125,-1.33416748046875,-34.45463562011719
1776444547317147000,31.17214697265625,-25.957611083984375,-2.18695068359375,-34.999237060546875
1776444547342164700,31.197164794921875,-25.375335693359375,-2.7170867919921875,-35.44477844238281
1776444547367182800,31.222182861328125,-24.66607666015625,-2.9518585205078125,-35.548370361328125
1776444547392201000,31.247200927734376,-24.190185546875,-3.6265106201171875,-36.329681396484375
1776444547417217800,31.2722177734375,-23.419189453125,-4.0869598388671875,-36.69398498535156
1776444547442236000,31.29723583984375,-23.067352294921875,-5.004730224609375,-36.99858093261719
1776444547467254000,31.32225390625,-22.908203125,-5.2509765625,-37.37995910644531
1776444547492271900,31.34727197265625,-22.52117919921875,-6.3446044921875,-37.34223937988281
1776444547517289000,31.3722890625,-22.221099853515625,-7.0499725341796875,-37.67207336425781
1776444547542306800,31.397306884765626,-21.910552978515625,-7.867034912109375,-37.1739501953125
1776444547567325000,31.422324951171873,-22.0728759765625,-9.018142700195312,-37.32771301269531
1776444547592342800,31.4473427734375,-21.68267822265625,-10.4310302734375,-36.953704833984375
1776444547617360000,31.47235986328125,-21.211456298828125,-11.450424194335938,-36.875244140625
1776444547642377700,31.497377685546876,-21.23333740234375,-12.921524047851562,-36.310577392578125
1776444547667395800,31.522395751953123,-20.8280029296875,-13.809402465820312,-36.449127197265625
1776444547692413700,31.54741357421875,-20.90069580078125,-14.599533081054688,-36.39543151855469
1776444547717430800,31.5724306640625,-20.73089599609375,-15.454208374023438,-36.38233947753906
1776444547742449000,31.597448974609375,-20.509552001953125,-16.563644409179688,-36.45286560058594
1776444547767466800,31.622466796875,-19.78814697265625,-16.762451171875,-36.59727478027344
1776444547792484900,31.64748486328125,-18.727569580078125,-17.251358032226562,-36.769073486328125
1776444547817501700,31.672501708984374,-17.6595458984375,-17.483352661132812,-37.162933349609375
1776444547842519800,31.697519775390624,-16.721527099609375,-18.204879760742188,-37.149871826171875
1776444547867537700,31.72253759765625,-15.998321533203125,-18.73809814453125,-37.408477783203125
1776444547892556000,31.74755615234375,-14.30120849609375,-19.324951171875,-37.71189880371094
1776444547917574000,31.772573974609376,-13.406829833984375,-19.441024780273438,-38.08526611328125
1776444547942591000,31.797591064453126,-12.32220458984375,-19.485443115234375,-38.17523193359375
1776444547967608800,31.82260888671875,-10.9263916015625,-19.521987915039062,-38.53961181640625
1776444547992627000,31.847626953125,-10.346405029296875,-19.437698364257812,-38.763427734375
1776444548017644800,31.872644775390626,-9.331695556640625,-19.698974609375,-39.192169189453125
1776444548042662000,31.897661865234376,-8.53155517578125,-19.764434814453125,-39.2939453125
1776444548067680000,31.922679931640626,-8.182708740234375,-20.083404541015625,-39.1531982421875
