time,seconds_elapsed,z,y,x
1776444516215864000,0.070864013671875,0.05747580900788307,-0.026499783620238304,0.007655789144337177
1776444516240883200,0.09588330078125,0.11806565523147583,-0.02111780270934105,-0.00899988692253828
1776444516265901000,0.120901123046875,0.17436088621616364,-0.025554362684488297,-0.0031515848822891712
1776444516290920000,0.145919921875,0.19485017657279968,-0.033009082078933716,-0.0013848437229171395
1776444516315938000,0.17093798828125,0.18047469854354858,-0.020238425582647324,-0.021613681688904762
1776444516340957200,0.195957275390625,0.19620546698570251,-0.013925136998295784,-0.07338286936283112
1776444516365975000,0.22097509765625,0.2582557797431946,0.012736834585666656,-0.09856145828962326
1776444516390994200,0.245994140625,0.3130905330181122,0.018428275361657143,-0.09026571363210678
1776444516416012000,0.271011962890625,0.3517740070819855,0.008477906696498394,-0.06862140446901321
1776444516441031000,0.296031005859375,0.39941689372062683,-0.011390073224902153,-0.082740418612957
1776444516466049300,0.32104931640625,0.41977542638778687,-0.029689185321331024,-0.08585525304079056
1776444516491068200,0.346068115234375,0.44734954833984375,-0.03534041345119476,-0.09314219653606415
1776444516516086000,0.3710859375,0.4936390221118927,-0.041419077664613724,-0.11001758277416229
1776444516541105200,0.396105224609375,0.5298723578453064,-0.05284111201763153,-0.12351874262094498
1776444516566123000,0.421123046875,0.5518146753311157,-0.007786816451698542,-0.1290823519229889
1776444516591142100,0.44614208984375,0.5754779577255249,0.03831276670098305,-0.1704646795988083
1776444516616160300,0.47116015625,0.6466274857521057,0.18585136532783508,-0.23735769093036652
1776444516641179100,0.49617919921875,0.7474494576454163,0.4526100754737854,-0.34959396719932556
1776444516666197000,0.521197021484375,0.7592397928237915,0.61328125,-0.4497823417186737
1776444516691216000,0.5462158203125,0.8032634258270264,0.6182621717453003,-0.5456182956695557
1776444516716234200,0.571234130859375,0.9079688191413879,0.5830663442611694,-0.5873441696166992
1776444516741253000,0.596253173828125,1.0695427656173706,0.41738924384117126,-0.6003412008285522
1776444516766271200,0.621271240234375,1.2226336002349854,0.18555282056331635,-0.528552234172821
1776444516791290000,0.6462900390625,1.3343888521194458,-0.04501913860440254,-0.4129364490509033
1776444516816308000,0.671307861328125,1.4679710865020752,-0.30102667212486267,-0.2735322117805481
1776444516841327000,0.6963271484375,1.5863028764724731,-0.45913830399513245,-0.1730697900056839
1776444516866345200,0.72134521484375,1.6117768287658691,-0.4811868667602539,-0.07845326513051987
1776444516891364000,0.746364013671875,1.541139841079712,-0.37690067291259766,0.024264859035611153
1776444516916382000,0.7713818359375,1.4751163721084595,-0.23970180749893188,0.09671615809202194
1776444516941401000,0.796401123046875,1.4010943174362183,-0.168206587433815,0.13533997535705566
1776444516966419000,0.8214189453125,1.3604841232299805,-0.15250298380851746,0.1412934809923172
1776444516991438000,0.84643798828125,1.3437120914459229,-0.18726736307144165,0.1823572963476181
1776444517016456200,0.871456298828125,1.3951174020767212,-0.2574230134487152,0.26015010476112366
1776444517041475000,0.89647509765625,1.4181073904037476,-0.3249890208244324,0.36765843629837036
1776444517066493000,0.921492919921875,1.385793685913086,-0.27893391251564026,0.4911244511604309
1776444517091512300,0.94651220703125,1.348636507987976,-0.22966568171977997,0.6222792863845825
1776444517116530200,0.9715302734375,1.3557285070419312,-0.25143224000930786,0.6962200999259949
1776444517141548500,0.996548583984375,1.3301986455917358,-0.2731114327907562,0.6998715400695801
1776444517166566700,1.021566650390625,1.2458208799362183,-0.2076818197965622,0.6855200529098511
1776444517191585800,1.046585693359375,1.2274903059005737,-0.18071597814559937,0.6333220601081848
1776444517216603600,1.071603759765625,1.2517967224121094,-0.26398345828056335,0.5515313148498535
1776444517241622800,1.096622802734375,1.225203514099121,-0.2971847951412201,0.49354419112205505
1776444517266640600,1.121640625,1.257704496383667,-0.2689145505428314,0.42236775159835815
1776444517291659800,1.14665966796875,1.4369932413101196,-0.20674864947795868,0.29398608207702637
1776444517316678000,1.171677978515625,1.65663480758667,-0.10574400424957275,0.16499188542366028
1776444517341696800,1.19669677734375,1.8017898797988892,-0.04001692309975624,0.03629915043711662
1776444517366714600,1.221714599609375,1.8830360174179077,-0.03664030134677887,-0.16479241847991943
1776444517391733800,1.246733642578125,2.0062246322631836,0.10767080634832382,-0.28850477933883667
1776444517416751600,1.271751708984375,2.148765802383423,0.2090621441602707,-0.26566070318222046
1776444517441769500,1.29676953125,2.1297428607940674,0.12178821861743927,-0.3087301552295685
1776444517466788900,1.321788818359375,1.935913324356079,0.1316797286272049,-0.31461039185523987
1776444517491806700,1.346806640625,1.8398445844650269,0.23286759853363037,-0.33568108081817627
1776444517516825600,1.37182568359375,1.6431533098220825,0.2907783091068268,-0.24664174020290375
1776444517541843700,1.39684375,1.4399216175079346,0.2809232771396637,-0.10914060473442078
1776444517566862800,1.42186279296875,1.4016940593719482,0.2354775071144104,-0.018268486484885216
1776444517591880700,1.446880615234375,1.3914116621017456,0.09515474736690521,0.025380190461874008
1776444517616899800,1.47189990234375,1.2343807220458984,-0.010665161535143852,0.1047048419713974
1776444517641917700,1.496917724609375,1.094917893409729,0.017433052882552147,0.27678605914115906
1776444517666936600,1.5219365234375,1.2417528629302979,-0.05452129989862442,0.3505529463291168
1776444517691954700,1.54695458984375,1.3933615684509277,-0.268047958612442,0.30325016379356384
1776444517716973800,1.571973876953125,1.3385114669799805,-0.4200819730758667,0.30214229226112366
1776444517741991700,1.59699169921875,1.297853946685791,-0.332191526889801,0.38684386014938354
1776444517767010800,1.6220107421875,1.2526057958602905,-0.25441816449165344,0.4513504207134247
1776444517792028700,1.647028564453125,1.2988483905792236,-0.26329076290130615,0.3363593816757202
1776444517817047800,1.6720478515625,1.3321459293365479,-0.2277040034532547,0.21806761622428894
1776444517842066000,1.69706591796875,1.2985764741897583,-0.12788125872612,0.1883411407470703
1776444517867083800,1.722083740234375,1.4287850856781006,0.10066429525613785,0.2625639736652374
1776444517892102700,1.7471025390625,1.4115850925445557,0.10867881029844284,0.27042561769485474
1776444517917120800,1.772120849609375,1.5537960529327393,0.07865513116121292,0.3196443021297455
1776444517942139600,1.7971396484375,1.8844964504241943,0.3090004622936249,0.3705839216709137
1776444517967157500,1.822157470703125,2.1159098148345947,0.2520756423473358,0.6048275828361511
1776444517992177000,1.847177001953125,2.2601583003997803,0.2932790219783783,0.8046610951423645
1776444518017194800,1.87219482421875,2.413801670074463,0.452304869890213,0.7546940445899963
1776444518042213600,1.897213623046875,2.335793972015381,0.3968474864959717,0.503145694732666
1776444518067231700,1.922231689453125,2.4616358280181885,0.17845523357391357,0.35215696692466736
1776444518092251000,1.9472509765625,2.548461437225342,-0.08699002861976624,0.3198970556259155
1776444518117268700,1.972268798828125,2.784019947052002,-0.3724968731403351,0.14358165860176086
1776444518142284300,1.9972841796875,2.680983781814575,-0.4527014195919037,0.03918734937906265
1776444518167302700,2.022302734375,2.339681625366211,-0.23166944086551666,0.034329745918512344
1776444518192321500,2.047321533203125,1.9834219217300415,-0.03260907530784607,0.07436744123697281
1776444518217339400,2.07233935546875,1.9155983924865723,0.23016822338104248,0.03682059794664383
1776444518242357500,2.097357421875,2.0347676277160645,0.5005366206169128,-0.12740962207317352
1776444518267376400,2.12237646484375,2.361140489578247,0.6245011687278748,-0.30586057901382446
1776444518292394500,2.14739453125,2.7094264030456543,0.7573226094245911,-0.28547781705856323
1776444518317413600,2.17241357421875,2.334824562072754,0.8171462416648865,-0.1534595936536789
1776444518342431500,2.197431396484375,2.0643577575683594,0.7249585390090942,-0.050152648240327835
1776444518367450400,2.222450439453125,1.8838030099868774,0.44640013575553894,0.10597623139619827
1776444518392468500,2.247468505859375,1.7880982160568237,0.04207315295934677,0.15247742831707
1776444518417487600,2.272487548828125,1.896476149559021,-0.2506396770477295,0.2406080812215805
1776444518442505500,2.29750537109375,2.071321487426758,-0.49292075634002686,0.29419514536857605
1776444518467524600,2.322524658203125,2.016401767730713,-0.4508638381958008,0.3956802189350128
1776444518492542500,2.34754248046875,1.9424498081207275,-0.28149133920669556,0.5336394309997559
1776444518517561300,2.372561279296875,1.7942811250686646,-0.041729070246219635,0.6458607912063599
1776444518542579500,2.397579345703125,1.6526275873184204,0.2588094472885132,0.7080730199813843
1776444518567597300,2.422597412109375,1.6035242080688477,0.28014883399009705,0.6521948575973511
1776444518592616400,2.447616455078125,1.2749595642089844,0.1721818894147873,0.6817692518234253
1776444518617634600,2.472634521484375,1.1368060111999512,0.2610901892185211,0.49956026673316956
1776444518642653400,2.4976533203125,1.2140491008758545,0.15396693348884583,0.5907090902328491
1776444518667671600,2.522671630859375,1.3243674039840698,-0.05348160117864609,0.5421658158302307
1776444518692690700,2.547690673828125,1.3243476152420044,-0.17669567465782166,0.5741351842880249
1776444518717708500,2.57270849609375,1.316162109375,-0.23612438142299652,0.4722549021244049
1776444518742727400,2.5977275390625,1.7713440656661987,-0.1090838760137558,0.3122335374355316
1776444518767745500,2.62274560546875,1.429287075996399,-0.2043643295764923,0.19666698575019836
1776444518792764400,2.647764404296875,1.3611117601394653,-0.21344676613807678,0.012133894488215446
1776444518817782500,2.672782470703125,0.9504475593566895,0.01143667846918106,-0.08439983427524567
1776444518842800600,2.697800537109375,0.7270427346229553,0.2962324619293213,-0.1625809222459793
1776444518867819500,2.722819580078125,0.5592249631881714,0.4344571828842163,-0.17864803969860077
1776444518892837600,2.747837646484375,0.518986165523529,0.7419835925102234,0.07247313112020493
1776444518917856500,2.7728564453125,0.5103205442428589,0.7912927865982056,0.1399773508310318
1776444518942874400,2.797874267578125,0.5663648843765259,0.5468977093696594,0.09534169733524323
1776444518967893500,2.8228935546875,0.5785461664199829,0.4277622699737549,0.09539336711168289
1776444518992911600,2.84791162109375,0.6942070126533508,0.5227265954017639,-0.002671416848897934
1776444519017930500,2.872930419921875,0.7673389911651611,0.8069327473640442,-0.04694327339529991
1776444519042948600,2.897948486328125,0.8386784195899963,0.9182475209236145,0.05991979315876961
1776444519067967500,2.922967529296875,0.9719365835189819,0.9255161285400391,0.19276785850524902
1776444519092985300,2.9479853515625,1.1873815059661865,0.8150748014450073,0.30648109316825867
1776444519118003700,2.973003662109375,1.3695905208587646,0.5469634532928467,0.3330639898777008
1776444519143022600,2.998022705078125,1.5475921630859375,0.3863133490085602,0.22367064654827118
1776444519168040400,3.02304052734375,1.7754632234573364,0.33929765224456787,0.0861724317073822
1776444519193059600,3.0480595703125,1.8770548105239868,0.23385244607925415,0.004394215997308493
1776444519218077700,3.07307763671875,2.0033669471740723,0.1988433301448822,-0.027940820902585983
1776444519243096600,3.0980966796875,2.1845955848693848,0.2411087602376938,0.0407804511487484
1776444519268114700,3.12311474609375,2.139291524887085,0.20539230108261108,0.0017121462151408195
1776444519293133600,3.148133544921875,2.1897177696228027,0.08151962608098984,0.10353012382984161
1776444519318151400,3.1731513671875,2.2446351051330566,0.1691994071006775,0.10714536160230637
1776444519343169800,3.198169677734375,2.1408934593200684,0.35193806886672974,0.034804053604602814
1776444519368188700,3.223188720703125,1.9185415506362915,0.48018258810043335,-0.0851239487528801
1776444519393206500,3.24820654296875,1.6928415298461914,0.5064482688903809,-0.1987714171409607
1776444519418225400,3.273225341796875,1.5790857076644897,0.3308756649494171,-0.20447005331516266
1776444519443243500,3.298243408203125,1.1920870542526245,0.2887881398200989,-0.14635054767131805
1776444519468262700,3.3232626953125,0.47155874967575073,0.4492691457271576,-0.2616494596004486
1776444519493280800,3.34828076171875,0.3682025372982025,0.4797641932964325,-0.23340237140655518
1776444519518299600,3.373299560546875,0.47968751192092896,0.2136896401643753,0.08394336700439453
1776444519543317500,3.3983173828125,0.5553330183029175,-0.12664449214935303,0.3256278932094574
1776444519568335600,3.423335693359375,0.5445511937141418,-0.26400473713874817,0.2776617109775543
1776444519593354800,3.448354736328125,0.5961390137672424,-0.2828538119792938,0.14526504278182983
1776444519618372600,3.47337255859375,1.0057425498962402,-0.22801318764686584,0.1131337434053421
1776444519643391500,3.4983916015625,1.4477734565734863,0.029354693368077278,-0.0010498181218281388
1776444519668409600,3.52340966796875,1.9048144817352295,0.1305931657552719,-0.10857175290584564
1776444519693428500,3.548428466796875,2.2165801525115967,0.26410195231437683,-0.35574638843536377
1776444519718446600,3.573446533203125,2.491856098175049,0.3430902361869812,-0.4715973436832428
1776444519743465700,3.5984658203125,2.64162278175354,0.43288537859916687,-0.5542858242988586
1776444519768483600,3.623483642578125,2.609869956970215,0.5357321500778198,-0.528619110584259
1776444519793501700,3.648501708984375,2.54990291595459,0.6572186350822449,-0.4286014139652252
1776444519818520600,3.6735205078125,2.526334524154663,0.7867582440376282,-0.359391987323761
1776444519843538400,3.698538330078125,2.422153949737549,0.8372594714164734,-0.27365657687187195
1776444519868557600,3.7235576171875,2.221468925476074,0.7798912525177002,-0.23382528126239777
1776444519893575700,3.74857568359375,1.914704442024231,0.7066532969474792,-0.18234850466251373
1776444519918594600,3.773594482421875,1.6221470832824707,0.6589829325675964,-0.45177197456359863
1776444519943612700,3.79861279296875,1.2177565097808838,0.5355177521705627,-0.49366137385368347
1776444519968630500,3.823630615234375,0.869338870048523,0.5568877458572388,-0.40304598212242126
1776444519993649400,3.8486494140625,0.6172275543212891,0.5397852063179016,-0.18338952958583832
1776444520018667800,3.873667724609375,0.6966776251792908,0.4237757623195648,0.03446316719055176
1776444520043686700,3.898686767578125,0.6744077205657959,0.5450025796890259,-0.04957367852330208
1776444520068704500,3.92370458984375,0.6764746308326721,0.2621948719024658,-0.14185860753059387
1776444520093723600,3.9487236328125,0.8217766880989075,0.06716625392436981,-0.10366754233837128
1776444520118741500,3.973741455078125,0.9686244130134583,-0.008511729538440704,0.036791834980249405
1776444520143760000,3.998759765625,1.0919495820999146,0.16018247604370117,0.1726447492837906
1776444520168778000,4.023778076171875,1.1183114051818848,0.41125544905662537,0.25786617398262024
1776444520193795800,4.0487958984375,0.7736994028091431,0.5079851746559143,0.4017421007156372
1776444520218815000,4.07381494140625,0.7171676754951477,0.27665528655052185,0.42071235179901123
1776444520243833000,4.0988330078125,0.9185857772827148,0.16030605137348175,0.3459451496601105
1776444520268852000,4.12385205078125,1.1248196363449097,0.233286514878273,0.22718387842178345
1776444520293870000,4.1488701171875,1.3297232389450073,0.2425338178873062,0.12204068899154663
1776444520318889000,4.173888916015625,1.6052964925765991,0.11773169040679932,0.07013115286827087
1776444520343906800,4.19890673828125,2.015162944793701,0.034635741263628006,0.05344058945775032
1776444520368925000,4.223925048828125,2.2794227600097656,0.02773522399365902,0.05133029818534851
1776444520393944000,4.248944091796875,2.3726115226745605,-0.007723699789494276,0.11978339403867722
1776444520418962000,4.2739619140625,2.4574460983276367,-0.1532289683818817,0.1816486269235611
1776444520443981000,4.29898095703125,2.4977920055389404,-0.31233659386634827,0.18162386119365692
1776444520468999000,4.3239990234375,2.51662278175354,-0.40225663781166077,0.09517072141170502
1776444520494018000,4.34901806640625,2.410083532333374,-0.48302844166755676,0.05053934082388878
1776444520519036200,4.3740361328125,2.2549190521240234,-0.5972583293914795,0.031032484024763107
1776444520544054000,4.399053955078125,2.1504499912261963,-0.6039572358131409,-0.04923758655786514
1776444520569073000,4.424072998046875,2.0683023929595947,-0.551868200302124,-0.15685006976127625
1776444520594091000,4.449091064453125,2.010479688644409,-0.5338876247406006,-0.23277892172336578
1776444520619110000,4.47410986328125,2.006009817123413,-0.4938741624355316,-0.2601468861103058
1776444520644128000,4.4991279296875,1.9850283861160278,-0.39017972350120544,-0.23835451900959015
1776444520669146000,4.52414599609375,1.9978445768356323,-0.41632771492004395,-0.18158124387264252
1776444520694165000,4.5491650390625,2.110095262527466,-0.39183753728866577,-0.1791045069694519
1776444520719182800,4.574182861328125,2.258284568786621,-0.44951310753822327,-0.20000286400318146
1776444520744202000,4.599201904296875,2.3302392959594727,-0.5511667728424072,-0.24514290690422058
1776444520769219800,4.6242197265625,2.2423999309539795,-0.46433037519454956,-0.2981736361980438
1776444520794239000,4.649239013671875,2.119703531265259,-0.39851248264312744,-0.280486524105072
1776444520819257000,4.674257080078125,2.058401107788086,-0.3632967174053192,-0.18589423596858978
1776444520844275000,4.69927490234375,2.0282421112060547,-0.35265979170799255,-0.12113681435585022
1776444520869293800,4.7242939453125,1.2752161026000977,-0.17750154435634613,-0.20156534016132355
1776444520894312000,4.74931201171875,0.45460957288742065,-0.11226848512887955,-0.22102585434913635
1776444520919331000,4.7743310546875,0.3518030345439911,-0.09879209101200104,-0.10511337220668793
1776444520944349000,4.799348876953125,0.6944053769111633,-0.16573676466941833,0.08890590071678162
1776444520969367000,4.824366943359375,0.7236570119857788,0.13720925152301788,0.03574654459953308
1776444520994386000,4.849385986328125,0.3742732107639313,0.57614666223526,-0.17023910582065582
1776444521019404000,4.874404052734375,0.23479413986206055,0.9445329308509827,-0.21419724822044373
1776444521044423000,4.8994228515625,0.39020290970802307,1.2244524955749512,-0.05457083508372307
1776444521069441000,4.92444091796875,0.6583586931228638,1.3161046504974365,0.17290332913398743
1776444521094460000,4.9494599609375,0.9203463792800903,1.2990548610687256,0.2881729304790497
1776444521119478000,4.97447802734375,1.1740084886550903,1.2790610790252686,0.37358689308166504
1776444521144496000,4.99949609375,1.4768035411834717,1.1828432083129883,0.3818187415599823
1776444521169515000,5.024514892578125,1.8122949600219727,1.014357089996338,0.3269043564796448
1776444521194533000,5.049533203125,2.124650239944458,0.776535153388977,0.2884507179260254
1776444521219552000,5.074552001953125,2.2219431400299072,0.5439882278442383,0.2673371732234955
1776444521244570000,5.099570068359375,2.2684237957000732,0.34762561321258545,0.2525970935821533
1776444521269588000,5.124587890625,2.3812761306762695,0.23395736515522003,0.153226837515831
1776444521294607000,5.149607177734375,2.336352586746216,0.3122899830341339,0.005832589231431484
1776444521319625200,5.174625244140625,2.0800843238830566,0.5068994164466858,-0.06723469495773315
1776444521344644000,5.19964404296875,1.6806995868682861,0.8235750794410706,-0.014166419394314289
1776444521369662000,5.224661865234375,1.5044658184051514,0.7537720799446106,-0.05276254564523697
1776444521394680000,5.24968017578125,1.6219767332077026,0.38955387473106384,-0.13424807786941528
1776444521419699200,5.27469921875,1.6755887269973755,-0.029393574222922325,-0.16908596456050873
1776444521444717000,5.299717041015625,1.518183708190918,-0.27412155270576477,-0.14111530780792236
1776444521469736200,5.324736083984375,1.4169944524765015,-0.2760704755783081,-0.32705989480018616
1776444521494754000,5.349754150390625,1.4923489093780518,-0.26806554198265076,-0.45309531688690186
1776444521519772200,5.374772216796875,1.013840913772583,-0.3162706196308136,-0.4657690227031708
1776444521544791000,5.399791015625,0.4778808057308197,-0.006306897848844528,-0.05338199809193611
1776444521569809200,5.42480908203125,0.4492094814777374,0.10890065133571625,0.03741581365466118
1776444521594828000,5.449828125,0.6024054288864136,0.19671465456485748,-0.08012785762548447
1776444521619846100,5.47484619140625,0.8833191394805908,0.46610087156295776,0.05459000915288925
1776444521644864000,5.499864013671875,0.9772384166717529,0.9360425472259521,-0.016949156299233437
1776444521669883100,5.524883056640625,1.136242151260376,1.2485610246658325,-0.2203827053308487
1776444521694901000,5.54990087890625,1.2637085914611816,1.3773152828216553,-0.36717453598976135
1776444521719920000,5.574920166015625,1.690536618232727,0.946071982383728,-0.6212294697761536
1776444521744938200,5.599938232421875,2.0433080196380615,0.4297729432582855,-0.6941564083099365
1776444521769956000,5.6249560546875,2.299860715866089,0.13378416001796722,-0.6718716025352478
1776444521794975000,5.64997509765625,2.458355188369751,0.07724818587303162,-0.43561673164367676
1776444521819993000,5.6749931640625,2.3381216526031494,0.18666841089725494,-0.3059180974960327
1776444521845011000,5.700010986328125,1.9695085287094116,0.3438766896724701,-0.25066232681274414
1776444521870030000,5.725030029296875,1.6813750267028809,0.5034689903259277,-0.27389413118362427
1776444521895048200,5.750048095703125,1.597920298576355,0.5388437509536743,-0.25569117069244385
1776444521920067000,5.775067138671875,1.5272406339645386,0.4955431818962097,-0.19957409799098969
1776444521945085000,5.8000849609375,1.2702434062957764,0.373622328042984,-0.10644654929637909
1776444521970103000,5.82510302734375,1.0581468343734741,0.23919233679771423,0.0027659591287374496
1776444521995122200,5.8501220703125,1.0123999118804932,0.0794876366853714,0.08312098681926727
1776444522020140300,5.875140380859375,1.028414249420166,-0.06191902607679367,0.10967935621738434
1776444522045159200,5.9001591796875,0.9517444968223572,-0.2685941755771637,0.1557198166847229
1776444522070177000,5.925177001953125,0.7318755388259888,-0.5190831422805786,0.16883721947669983
1776444522095195100,5.950195068359375,0.5137860774993896,-0.7510215640068054,0.15938858687877655
1776444522120214000,5.975214111328125,0.4432855546474457,-0.8949502110481262,0.1767745018005371
1776444522145232000,6.00023193359375,0.31502798199653625,-0.8216970562934875,0.19512102007865906
1776444522170250000,6.02525,0.2838061451911926,-0.4124876856803894,0.19684754312038422
1776444522195269000,6.05026904296875,0.4796387851238251,-0.08688509464263916,0.13535143435001373
1776444522220287000,6.075286865234375,0.6721150279045105,-0.06305726617574692,-0.03339044749736786
1776444522245306000,6.10030615234375,1.2601399421691895,-0.22308208048343658,-0.15099617838859558
1776444522270324000,6.125323974609375,1.7676446437835693,-0.3919917345046997,-0.13144910335540771
1776444522295342000,6.150342041015625,1.835492730140686,-0.25326740741729736,0.04387291520833969
1776444522320361000,6.17536083984375,1.9125131368637085,-0.37529611587524414,0.15675020217895508
1776444522345379000,6.200379150390625,2.061540126800537,-0.42561253905296326,0.18648146092891693
1776444522370397200,6.225397216796875,2.1071314811706543,-0.3722105920314789,0.13604837656021118
1776444522395416000,6.250416015625,1.7732393741607666,-0.1654137223958969,0.17973966896533966
1776444522420434000,6.275433837890625,1.5072849988937378,-0.06701738387346268,0.1922954022884369
1776444522445453000,6.300453125,1.4487487077713013,-0.044442564249038696,0.12008433043956757
1776444522470471000,6.325470947265625,1.4248862266540527,-0.07225129008293152,-0.12643331289291382
1776444522495489000,6.350489013671875,1.4984427690505981,-0.00990189891308546,-0.2715100646018982
1776444522520508200,6.375508056640625,1.5735093355178833,0.03835165128111839,-0.3846752345561981
1776444522545526000,6.400526123046875,1.739879846572876,0.13703908026218414,-0.49565234780311584
1776444522570544000,6.425544189453125,2.0546653270721436,0.330921471118927,-0.5469499230384827
1776444522595563000,6.45056298828125,2.3926942348480225,0.5505920648574829,-0.6347692608833313
1776444522620580900,6.475580810546875,2.6201798915863037,0.6638301610946655,-0.5329645872116089
1776444522645600000,6.50060009765625,2.710446357727051,0.7514896988868713,-0.23234376311302185
1776444522670618000,6.5256181640625,2.6140944957733154,0.7888437509536743,-0.09722854942083359
1776444522695636000,6.550635986328125,2.43310284614563,0.8031973838806152,-0.08834930509328842
1776444522720654800,6.57565478515625,2.319580078125,0.5964207649230957,-0.03231692686676979
1776444522745673000,6.6006728515625,2.1385204792022705,0.32404226064682007,-0.0627206414937973
1776444522770690800,6.62569091796875,2.0989935398101807,-0.01509879156947136,-0.20444181561470032
1776444522795710200,6.650710205078125,2.0011484622955322,-0.24378736317157745,-0.25905394554138184
1776444522820728000,6.67572802734375,1.9499369859695435,-0.27161553502082825,-0.2103164941072464
1776444522845746000,6.700745849609375,1.7800664901733398,-0.3651372194290161,-0.22901028394699097
1776444522870765000,6.72576513671875,1.7725642919540405,-0.4652896523475647,-0.348143607378006
1776444522895783000,6.750782958984375,1.7424814701080322,-0.42105454206466675,-0.4078950881958008
1776444522920802000,6.775802001953125,1.7446967363357544,-0.2947794497013092,-0.46764522790908813
1776444522945820200,6.800820068359375,1.843218207359314,-0.17588794231414795,-0.5371603965759277
1776444522970838000,6.825838134765625,1.8708921670913696,-0.015479356981813908,-0.5461128950119019
1776444522995857000,6.85085693359375,1.9872585535049438,0.24735067784786224,-0.49265071749687195
1776444523020875000,6.875875,1.8871852159500122,0.46220386028289795,-0.3831985294818878
1776444523045892900,6.900892822265625,1.6854182481765747,0.48183801770210266,-0.09424713999032974
1776444523070912000,6.925912109375,1.6379019021987915,0.38744041323661804,0.007722900714725256
1776444523095930000,6.95093017578125,1.7752066850662231,0.28304582834243774,0.14600035548210144
1776444523120948000,6.975947998046875,1.9555541276931763,0.04013463482260704,0.3540355861186981
1776444523145967600,7.000967529296875,1.8744661808013916,-0.3573157787322998,0.6454793810844421
1776444523170985700,7.02598583984375,1.767274260520935,-0.7956526875495911,0.815090537071228
1776444523196003600,7.051003662109375,1.3343573808670044,-0.9474493861198425,0.8053665161132812
1776444523221022700,7.076022705078125,1.1016788482666016,-0.8248326778411865,0.6872398853302002
1776444523246040800,7.101040771484375,1.0928630828857422,-0.5052788853645325,0.4664745032787323
1776444523271058700,7.12605859375,1.0096246004104614,-0.13922765851020813,0.3057412803173065
1776444523296077800,7.151077880859375,0.9415949583053589,0.0972764864563942,0.16315802931785583
1776444523321095700,7.176095703125,0.9349849820137024,0.33071479201316833,0.07137244939804077
1776444523346114600,7.201114501953125,1.0391430854797363,0.45378774404525757,0.024592693895101547
1776444523371132700,7.226132568359375,1.2289021015167236,0.3563120365142822,0.01636858657002449
1776444523396150800,7.25115087890625,1.3290311098098755,0.02767876535654068,0.11122612655162811
1776444523421169700,7.276169677734375,1.4552396535873413,-0.276047021150589,0.14269882440567017
1776444523446187800,7.301187744140625,1.5879486799240112,-0.5251708626747131,0.08205918222665787
1776444523471205600,7.32620556640625,1.644826054573059,-0.6468509435653687,0.010298443958163261
1776444523496224800,7.351224853515625,1.6724289655685425,-0.6012868881225586,-0.0841929093003273
1776444523521242600,7.37624267578125,1.683599591255188,-0.4324912428855896,-0.24518179893493652
1776444523546260700,7.4012607421875,1.7684142589569092,-0.07329898327589035,-0.3022988736629486
1776444523571280000,7.42627978515625,1.7497525215148926,0.22503577172756195,-0.28333744406700134
1776444523596297700,7.451297607421875,1.326468586921692,0.2598949670791626,-0.13443876802921295
1776444523621315800,7.47631591796875,0.7739436626434326,-0.11230363696813583,0.19107887148857117
1776444523646334700,7.501334716796875,0.30448612570762634,-0.23974016308784485,0.441353976726532
1776444523671352600,7.5263525390625,0.2004537433385849,-0.41816315054893494,0.36466583609580994
1776444523696370700,7.55137060546875,0.3351955711841583,-0.40694671869277954,0.19321472942829132
1776444523721389800,7.576389892578125,0.7712807655334473,-0.5480183362960815,-0.041959166526794434
1776444523746407700,7.60140771484375,1.4192895889282227,-0.41258037090301514,-0.012240953743457794
1776444523771425800,7.62642578125,1.6197633743286133,-0.3345942199230194,0.054004646837711334
1776444523796444700,7.651444580078125,1.8311024904251099,-0.010143980383872986,0.07227792590856552
1776444523821462500,7.676462646484375,2.0974018573760986,0.2615216076374054,0.05302540212869644
1776444523846480600,7.701480712890625,2.3951168060302734,0.38822683691978455,0.005028314422816038
1776444523871499800,7.726499755859375,2.4500386714935303,0.41114145517349243,-0.011029215529561043
1776444523896517600,7.751517578125,2.407452344894409,0.4487820565700531,-0.0014077469240874052
1776444523921535700,7.77653564453125,2.386631488800049,0.5656905770301819,-0.01275734044611454
1776444523946554600,7.8015546875,2.2910232543945312,0.34134799242019653,-0.01985866017639637
1776444523971572700,7.82657275390625,1.955423355102539,0.21880771219730377,-0.14742620289325714
1776444523996590600,7.851590576171875,1.5236316919326782,0.25576654076576233,-0.2676050662994385
1776444524021609700,7.876609619140625,1.2093931436538696,0.23232538998126984,-0.293118953704834
1776444524046627800,7.9016279296875,1.1284252405166626,0.2824769616127014,-0.2988908290863037
1776444524071645700,7.926645751953125,0.965202271938324,0.3901786506175995,-0.219708651304245
1776444524096664600,7.95166455078125,0.9423062801361084,0.5156404376029968,-0.13946335017681122
1776444524121682700,7.9766826171875,1.0850155353546143,0.5906156301498413,-0.09827197343111038
1776444524146700000,8.001699951171876,1.3804413080215454,0.44701293110847473,-0.003136138431727886
1776444524171719200,8.02671923828125,1.5628427267074585,0.5443596839904785,0.059250008314847946
1776444524196737000,8.051737060546875,1.4321892261505127,0.545356810092926,0.10821887850761414
1776444524221755100,8.076755126953126,1.2738990783691406,0.5097703337669373,0.19995519518852234
1776444524246774000,8.10177392578125,1.1834019422531128,0.6426689624786377,0.2940193712711334
1776444524271791900,8.1267919921875,1.4272215366363525,0.3866063058376312,0.3215167820453644
1776444524296810000,8.15181005859375,1.5724488496780396,0.144818976521492,0.2352556586265564
1776444524321829000,8.1768291015625,1.5333099365234375,0.21934913098812103,0.3695034682750702
1776444524346847000,8.201846923828125,1.4902921915054321,0.30474233627319336,0.46330854296684265
1776444524371865000,8.226864990234375,1.4637593030929565,0.27761322259902954,0.3875216245651245
1776444524396883000,8.251883056640626,1.5461541414260864,0.16956399381160736,0.3018783628940582
1776444524421901800,8.27690185546875,1.597013235092163,0.08730774372816086,0.2123199850320816
1776444524446920000,8.301919921875,1.7226345539093018,0.09147079288959503,0.14525465667247772
1776444524471937800,8.326937744140626,1.964784860610962,0.11336677521467209,0.13293488323688507
1776444524496957200,8.351957275390625,2.271226406097412,-0.08639321476221085,-0.025602832436561584
1776444524521975000,8.37697509765625,2.478168249130249,-0.1765068620443344,0.022705312818288803
1776444524546993000,8.401992919921875,2.650951623916626,-0.22996821999549866,-0.08192309737205505
1776444524572012000,8.427011962890624,2.7910871505737305,-0.348630428314209,-0.06017465516924858
1776444524597030000,8.45202978515625,2.780223846435547,-0.3817388415336609,-0.11755459010601044
1776444524622048000,8.477048095703125,2.8049914836883545,-0.3821979761123657,-0.15428385138511658
1776444524647067100,8.502067138671874,2.7565298080444336,-0.1538207232952118,-0.1556692272424698
1776444524672085000,8.5270849609375,2.5621414184570312,0.09705943614244461,-0.170822873711586
1776444524697103000,8.55210302734375,2.546900510787964,0.1434093564748764,-0.06353263556957245
1776444524722121000,8.577120849609376,2.386507272720337,0.3906188905239105,-0.1069786474108696
1776444524747139800,8.602139892578125,2.4324021339416504,0.4705158472061157,0.02726810611784458
1776444524772158000,8.627157958984375,2.142354726791382,0.7578086256980896,0.15058018267154694
1776444524797176000,8.652176025390625,2.124955415725708,0.6732865571975708,0.30686700344085693
1776444524822195000,8.67719482421875,1.9506893157958984,0.7331368327140808,0.37590599060058594
1776444524847213000,8.702213134765625,1.8773024082183838,0.7445396780967712,0.472696453332901
1776444524872231000,8.72723095703125,1.7121504545211792,0.5757309198379517,0.485065758228302
1776444524897250000,8.75225,1.3620175123214722,0.2779919505119324,0.5311757326126099
1776444524922268000,8.777267822265625,0.9143335223197937,-0.010147709399461746,0.4899790287017822
1776444524947286000,8.8022861328125,0.4970363974571228,-0.29397329688072205,0.43635228276252747
1776444524972305200,8.82730517578125,0.2979975938796997,-0.4476906955242157,0.35194525122642517
1776444524997323000,8.852322998046875,0.5256230235099792,-0.5341992378234863,0.31121301651000977
1776444525022341000,8.877341064453125,0.5051355957984924,-0.5626417994499207,0.14967763423919678
1776444525047359000,8.90235888671875,0.3022557199001312,-0.11679665744304657,0.005357481073588133
1776444525072377900,8.9273779296875,0.23634116351604462,0.3668863773345947,-0.011171162128448486
1776444525097396000,8.95239599609375,0.4807450473308563,0.6573919653892517,0.010773551650345325
1776444525122414000,8.9774140625,1.0489411354064941,0.7115452289581299,-0.011859322898089886
1776444525147432700,9.0024326171875,1.3484634160995483,0.7746368646621704,-0.09409960359334946
1776444525172450800,9.027450927734375,1.7266665697097778,0.8125495910644531,-0.24625983834266663
1776444525197469000,9.052468994140625,1.8446563482284546,0.8291115760803223,-0.3805393576622009
1776444525222487800,9.07748779296875,1.9036840200424194,0.8907576203346252,-0.5119525194168091
1776444525247506000,9.102505859375,1.9898449182510376,0.8069673776626587,-0.5660766959190369
1776444525272523800,9.127523681640625,2.1304216384887695,0.6846473217010498,-0.7100767493247986
1776444525297542000,9.1525419921875,1.9570233821868896,0.6449068188667297,-0.8412939310073853
1776444525322560800,9.177560791015624,1.809736967086792,0.5797155499458313,-0.808285117149353
1776444525347579000,9.202578857421875,1.8890498876571655,0.2654721438884735,-0.6493266224861145
1776444525372597000,9.227596923828125,2.1771533489227295,-0.2242426872253418,-0.6177553534507751
1776444525397615900,9.252615966796874,1.8341808319091797,-0.6858865022659302,-0.6504837274551392
1776444525422634000,9.277634033203125,0.8102512955665588,-0.7845187783241272,-0.5903253555297852
1776444525447651800,9.30265185546875,0.807925283908844,-0.8609459400177002,-0.7797631621360779
1776444525472670000,9.327669921875,1.2439135313034058,-0.8265780806541443,-0.9920437335968018
1776444525497688800,9.352688720703124,1.4561450481414795,-0.8016192317008972,-0.9431262612342834
1776444525522707000,9.37770703125,1.1312452554702759,-0.5223292708396912,-0.8557684421539307
1776444525547725000,9.40272509765625,0.6126918792724609,-0.41858500242233276,-0.8312322497367859
1776444525572744000,9.427743896484374,0.5265165567398071,-0.05721268802881241,-0.6897763013839722
1776444525597761800,9.45276171875,0.5333347320556641,0.06576303392648697,-0.4936254322528839
1776444525622780000,9.47777978515625,0.8471965193748474,0.33571168780326843,-0.2581031918525696
1776444525647797800,9.5027978515625,1.1153148412704468,0.46432480216026306,-0.30325815081596375
1776444525672817000,9.52781689453125,1.0004748106002808,0.9342518448829651,-0.22111134231090546
1776444525697835000,9.5528349609375,1.2291101217269897,0.5485264658927917,0.13809795677661896
1776444525722852900,9.577852783203125,1.2184808254241943,0.21643243730068207,0.5368895530700684
1776444525747872000,9.6028720703125,1.4657716751098633,-0.09674784541130066,0.6227511763572693
1776444525772889900,9.627889892578125,1.8591290712356567,-0.2812633514404297,0.6490251421928406
1776444525797907700,9.65290771484375,2.241034746170044,-0.29177913069725037,0.4874711334705353
1776444525822925800,9.67792578125,2.474238395690918,-0.12889087200164795,0.31514009833335876
1776444525847945000,9.702945068359375,2.3504674434661865,-0.07241427898406982,0.14853700995445251
1776444525872963000,9.727963134765625,1.8643062114715576,-0.06616783142089844,0.1004650890827179
1776444525897981000,9.75298095703125,1.6503148078918457,0.2513454258441925,0.08631624281406403
1776444525922998800,9.777998779296874,1.5892826318740845,0.4197024703025818,-0.040699224919080734
1776444525948018000,9.803017822265625,1.46974778175354,0.3336956799030304,-0.2186575084924698
1776444525973035800,9.828035888671875,1.2389006614685059,0.19424164295196533,-0.3073421120643616
1776444525998054000,9.853053955078124,0.9709342122077942,0.14190253615379333,-0.37912681698799133
1776444526023073000,9.878072998046875,0.6205580830574036,0.1286538541316986,-0.4340302646160126
1776444526048091000,9.9030908203125,0.3926974833011627,0.1345391720533371,-0.4307652413845062
1776444526073109000,9.92810888671875,0.363050639629364,0.13097825646400452,-0.4275180399417877
1776444526098126800,9.953126953125,0.4143175482749939,0.07134315371513367,-0.40887483954429626
1776444526123145700,9.978145751953125,0.42470815777778625,0.024838769808411598,-0.3448958694934845
1776444526148164900,10.003164794921876,0.4600656032562256,0.016588563099503517,-0.20843283832073212
1776444526173182700,10.0281826171875,0.4039682447910309,-0.052685316652059555,-0.11991548538208008
1776444526198200600,10.05320068359375,0.461491197347641,0.07462150603532791,-0.10895444452762604
1776444526223219700,10.0782197265625,0.6848073601722717,0.05503875017166138,-0.14167536795139313
1776444526248237600,10.103237548828124,0.9821652770042419,-0.08052121102809906,-0.2722853124141693
1776444526273255700,10.128255615234375,1.577277660369873,-0.2501653730869293,-0.39241623878479004
1776444526298273500,10.1532734375,2.0376482009887695,-0.5101338028907776,-0.34883442521095276
1776444526323292700,10.178292724609374,2.1281731128692627,-0.5884864330291748,-0.09301942586898804
1776444526348310800,10.203310791015625,2.1150104999542236,-0.5526357293128967,0.2511608600616455
1776444526373328600,10.22832861328125,2.0950987339019775,-0.6389362812042236,0.43148374557495117
1776444526398347500,10.253347412109376,2.0737223625183105,-0.8318498134613037,0.3600649833679199
1776444526423365600,10.27836572265625,1.8745673894882202,-0.8690669536590576,0.26275864243507385
1776444526448383500,10.303383544921875,1.6894938945770264,-0.5859388709068298,0.2607434391975403
1776444526473401600,10.328401611328125,1.6565195322036743,-0.304289847612381,0.14533615112304688
1776444526498420700,10.353420654296874,1.6295808553695679,-0.047148868441581726,0.09303087741136551
1776444526523438600,10.3784384765625,1.7310022115707397,0.12662479281425476,-0.01124919205904007
1776444526548456700,10.403456787109375,1.8203651905059814,0.31519389152526855,0.1357722133398056
1776444526573474600,10.428474609375,2.1004817485809326,0.4310997426509857,0.21903088688850403
1776444526598493700,10.45349365234375,2.4107894897460938,0.575323760509491,0.2512948215007782
1776444526623511600,10.478511474609375,2.6626169681549072,0.6291124224662781,0.18487903475761414
1776444526648529400,10.503529296875,2.8348419666290283,0.6568902730941772,0.29889801144599915
1776444526673547800,10.5285478515625,2.8548641204833984,0.522566556930542,0.44238194823265076
1776444526698566700,10.553566650390625,2.6442668437957764,0.38273751735687256,0.6227990984916687
1776444526723584800,10.578584716796875,2.2560081481933594,0.197067528963089,0.6363192200660706
1776444526748602600,10.6036025390625,1.982023000717163,-0.17693190276622772,0.5881963968276978
1776444526773620500,10.628620361328124,1.7384297847747803,-0.6325303316116333,0.407958447933197
1776444526798639600,10.6536396484375,1.5974034070968628,-1.155347466468811,0.17764882743358612
1776444526823657700,10.67865771484375,1.5273175239562988,-1.3762511014938354,0.05174149200320244
1776444526848675800,10.70367578125,1.3937523365020752,-1.3855316638946533,-0.07735177874565125
1776444526873693700,10.728693603515625,1.1949702501296997,-1.027667760848999,-0.29129016399383545
1776444526898712600,10.753712646484376,0.9483724236488342,-0.848118007183075,-0.49123629927635193
1776444526923730700,10.778730712890624,0.7325682044029236,-0.4769689440727234,-0.7040303349494934
1776444526948748500,10.80374853515625,0.730972170829773,-0.1641487330198288,-0.802757978439331
1776444526973766700,10.8287666015625,0.7316198945045471,0.15631210803985596,-0.862307071685791
1776444526998785800,10.853785888671876,0.7870618104934692,0.3888947665691376,-0.8618410229682922
1776444527023803600,10.8788037109375,0.9254181385040283,0.5596497058868408,-0.8049164414405823
1776444527048821800,10.90382177734375,1.233207106590271,0.5186644792556763,-0.6560987830162048
1776444527073839600,10.928839599609375,1.4958221912384033,0.39006122946739197,-0.534757137298584
1776444527098858500,10.9538583984375,1.788283348083496,0.3415091335773468,-0.47762221097946167
1776444527123876600,10.978876708984375,1.9983396530151367,0.3646746277809143,-0.4581478536128998
1776444527148894200,11.003894287109375,1.9486656188964844,0.41616952419281006,-0.41488027572631836
1776444527173912300,11.028912353515626,1.7503641843795776,0.4825517237186432,-0.28906723856925964
1776444527198931500,11.053931396484375,1.4786208868026733,0.5068488121032715,-0.18139909207820892
1776444527223949300,11.07894921875,1.531723976135254,0.3631766140460968,0.05264084041118622
1776444527248967400,11.103967529296876,1.5609042644500732,0.15002252161502838,0.19016940891742706
1776444527273985300,11.1289853515625,1.3666239976882935,-0.055804409086704254,0.3261567950248718
1776444527299004400,11.15400439453125,0.9656028151512146,-0.30260220170021057,0.33248475193977356
1776444527324022300,11.179022216796875,0.6305369138717651,-0.23787088692188263,0.30527734756469727
1776444527349040400,11.204040283203126,0.5368474721908569,0.033249832689762115,0.24216975271701813
1776444527374058200,11.229058349609375,0.7011716961860657,0.4469852149486542,0.28834179043769836
1776444527399076000,11.254076171875,0.819127082824707,0.6834043860435486,0.3252771496772766
1776444527424095500,11.279095458984376,0.8187731504440308,0.7555829882621765,0.3693018853664398
1776444527449113300,11.30411328125,0.9572535157203674,0.6966627240180969,0.34593743085861206
1776444527474131500,11.32913134765625,1.3507333993911743,0.6733642816543579,0.3875775635242462
1776444527499149300,11.3541494140625,1.5126477479934692,0.6284993290901184,0.42596009373664856
1776444527524168200,11.379168212890624,1.6085572242736816,0.48080575466156006,0.2806979715824127
1776444527549186300,11.404186279296875,1.8179240226745605,0.3859247863292694,0.1806078553199768
1776444527574204400,11.429204345703125,1.9123570919036865,0.4202795624732971,0.19663822650909424
1776444527599222500,11.454222412109376,1.9616059064865112,0.34842509031295776,0.21112608909606934
1776444527624241400,11.479241455078125,1.9510794878005981,0.13542945683002472,0.18661968410015106
1776444527649259300,11.50425927734375,1.9617843627929688,0.2163943499326706,0.26567187905311584
1776444527674277400,11.52927734375,1.604709267616272,0.39699235558509827,0.32264381647109985
1776444527699295200,11.554295166015624,1.0873346328735352,0.43076735734939575,0.07794353365898132
1776444527724313300,11.579313232421875,0.9936925172805786,0.15931348502635956,-0.04688362032175064
1776444527749332500,11.60433251953125,1.217603087425232,-0.2735567092895508,0.08039230853319168
1776444527774350300,11.629350341796876,1.3732068538665771,-0.579139232635498,0.28314968943595886
1776444527799368400,11.654368408203124,1.1275185346603394,-0.39020636677742004,0.3224627375602722
1776444527824386300,11.67938623046875,0.9983271956443787,-0.1095331534743309,0.27814826369285583
1776444527849405200,11.7044052734375,1.0160353183746338,0.09304339438676834,0.19292257726192474
1776444527874423300,11.72942333984375,1.179949164390564,0.16022562980651855,-0.028973860666155815
1776444527899441200,11.754441162109375,1.5306057929992676,0.24752777814865112,-0.22691065073013306
1776444527924459500,11.77945947265625,1.6989548206329346,0.026915237307548523,-0.09104415774345398
1776444527949477400,11.804477294921876,2.186763048171997,-0.16781562566757202,-0.12571558356285095
1776444527974496300,11.829496337890625,2.3270232677459717,-0.0028101676143705845,-0.3793278932571411
1776444527999514400,11.854514404296875,2.3029141426086426,0.18786604702472687,-0.47455984354019165
1776444528024532200,11.8795322265625,2.177659034729004,0.17711912095546722,-0.19123627245426178
1776444528049550300,11.90455029296875,1.970839023590088,0.2431173175573349,-0.1747467815876007
1776444528074568200,11.929568115234375,2.0361368656158447,0.04944371432065964,-0.13504835963249207
1776444528099587300,11.95458740234375,2.2083637714385986,-0.144335076212883,-0.20860007405281067
1776444528124605400,11.97960546875,2.034705638885498,-0.22812770307064056,-0.10761594027280807
1776444528149627100,12.004627197265625,1.6639769077301025,-0.302413672208786,-0.02352556586265564
1776444528174645200,12.029645263671876,1.3750579357147217,-0.35613787174224854,-0.0036077843979001045
1776444528199664000,12.0546640625,1.2550777196884155,-0.22586029767990112,0.04688122123479843
1776444528224682000,12.079681884765625,1.2563334703445435,-0.13218946754932404,0.10554639995098114
1776444528249700000,12.1047001953125,1.2389483451843262,-0.04162387549877167,0.0525130070745945
1776444528274718000,12.129718017578124,1.0420832633972168,0.08742491900920868,0.0350211001932621
1776444528299736000,12.154736083984375,0.7657544016838074,0.23966185748577118,0.04011812433600426
1776444528324755200,12.179755126953125,0.5324077010154724,0.41604647040367126,0.04283561557531357
1776444528349773000,12.20477294921875,0.3646099269390106,0.5551990270614624,0.020192885771393776
1776444528374791200,12.229791259765625,0.1550508290529251,0.7781162858009338,-0.007159908767789602
1776444528399809000,12.25480908203125,0.4761870503425598,0.7808902263641357,-0.11201521754264832
1776444528424827100,12.2798271484375,0.8631717562675476,0.9185375571250916,-0.13565637171268463
1776444528449846000,12.304845947265624,1.2342385053634644,0.9677024483680725,-0.265581876039505
1776444528474864000,12.329864013671875,1.3690259456634521,1.1600666046142578,-0.41225945949554443
1776444528499882000,12.354882080078125,1.2882777452468872,1.100438117980957,-0.44997382164001465
1776444528524900000,12.379900146484376,1.3465166091918945,0.9548260569572449,-0.4667314887046814
1776444528549918200,12.404918212890625,1.617329716682434,0.8867913484573364,-0.3871415853500366
1776444528574937000,12.42993701171875,2.02807354927063,0.8832743763923645,-0.3844299614429474
1776444528599955200,12.454955078125,2.212904930114746,0.819355309009552,-0.4024939239025116
1776444528624973000,12.47997314453125,2.3461387157440186,0.7603505849838257,-0.4312294125556946
1776444528649991000,12.504990966796875,2.4205634593963623,0.697702944278717,-0.3899059593677521
1776444528675009000,12.530009033203125,2.4370973110198975,0.6132373213768005,-0.40579918026924133
1776444528700028200,12.555028076171874,2.4165914058685303,0.5072586536407471,-0.4522409737110138
1776444528725046300,12.58004638671875,2.2238104343414307,0.4205557405948639,-0.5358482599258423
1776444528750064000,12.605064208984375,2.006619930267334,0.3566177785396576,-0.5742883086204529
1776444528775082000,12.63008203125,1.9609808921813965,0.2760084271430969,-0.5508626103401184
1776444528800100000,12.65510009765625,1.9745960235595703,0.07109788060188293,-0.4894871413707733
1776444528825119000,12.680118896484375,1.900495171546936,-0.15470781922340393,-0.5530099272727966
1776444528850137000,12.70513720703125,1.9242883920669556,-0.23116238415241241,-0.5592489242553711
1776444528875155200,12.7301552734375,2.0226263999938965,-0.2745649814605713,-0.5210791826248169
1776444528900173300,12.75517333984375,2.1210720539093018,-0.31764641404151917,-0.39978256821632385
1776444528925191200,12.780191162109375,1.9246881008148193,-0.2968340814113617,-0.17563867568969727
1776444528950210000,12.8052099609375,1.5207691192626953,-0.3016416132450104,0.028437234461307526
1776444528975228200,12.830228271484375,1.199364423751831,-0.22158858180046082,0.0737016499042511
1776444529000246000,12.85524609375,1.0319831371307373,-0.28029078245162964,0.25625789165496826
1776444529025264000,12.88026416015625,0.966837465763092,-0.31331929564476013,0.29390326142311096
1776444529050282000,12.905281982421876,0.837508499622345,-0.3503502905368805,0.4218766689300537
1776444529075301000,12.930301025390625,0.9136999249458313,-0.40444841980934143,0.6553890109062195
1776444529100319200,12.9553193359375,1.0183600187301636,-0.3445909321308136,0.8094265460968018
1776444529125337000,12.980337158203126,0.8970775604248047,-0.35901540517807007,0.8685553669929504
1776444529150351400,13.005351318359375,0.31135496497154236,-0.47844594717025757,0.6891129016876221
1776444529175369200,13.030369140625,0.12589427828788757,-0.412807822227478,0.3481265604496002
1776444529200387300,13.05538720703125,0.27663958072662354,-0.4149987995624542,0.1422913670539856
1776444529225406200,13.08040625,0.5120052099227905,-0.4321197271347046,0.05631733313202858
1776444529250424000,13.105424072265626,0.616950273513794,-0.36255156993865967,-0.013467871583998203
1776444529275442200,13.130442138671874,0.6495679020881653,-0.24212928116321564,-0.08429756760597229
1776444529300460000,13.1554599609375,0.8251059055328369,-0.08632290363311768,-0.14477290213108063
1776444529325478400,13.180478515625,0.5673878192901611,0.2337816059589386,-0.0849018394947052
1776444529350497300,13.205497314453124,0.5639746785163879,0.3071644604206085,-0.06078958138823509
1776444529375515100,13.23051513671875,0.8236949443817139,0.3608412742614746,-0.06299574673175812
1776444529400533200,13.255533203125,0.9189264178276062,0.3955436050891876,-0.009474461898207664
1776444529425551000,13.280551025390626,0.8830549716949463,0.5492527484893799,0.03357367217540741
1776444529450569200,13.3055693359375,1.0261095762252808,0.6205312013626099,0.06765973567962646
1776444529475587000,13.330587158203125,1.4902831315994263,0.6141055226325989,-0.040717337280511856
1776444529500606200,13.355606201171875,1.9238848686218262,0.7398223876953125,-0.2564978301525116
1776444529525624300,13.380624267578124,2.043459177017212,0.7650654315948486,-0.3481329381465912
1776444529550642200,13.40564208984375,2.040203332901001,0.7154827117919922,-0.4623103737831116
1776444529575660300,13.430660400390625,1.962754726409912,0.5872499346733093,-0.5473166108131409
1776444529600678100,13.45567822265625,2.008268356323242,0.3737677335739136,-0.6855186820030212
1776444529625696300,13.4806962890625,1.7966960668563843,0.25002288818359375,-0.7792214751243591
1776444529650715100,13.505715087890625,1.5505584478378296,0.09988372027873993,-0.7244455814361572
1776444529675733200,13.530733154296875,1.5887649059295654,-0.11139576882123947,-0.811205267906189
1776444529700751400,13.55575146484375,1.585416316986084,-0.27692800760269165,-0.8988666534423828
1776444529725769200,13.580769287109375,1.1058284044265747,-0.6149066090583801,-0.8305075764656067
1776444529750787300,13.605787353515625,0.1173042580485344,-0.28554731607437134,-0.4697038531303406
1776444529775805200,13.63080517578125,0.5751922130584717,-0.593697190284729,-0.5321797132492065
1776444529800824000,13.655823974609374,0.7173929810523987,-0.24843831360340118,-0.5212144255638123
1776444529825842200,13.68084228515625,0.7372769713401794,0.21472641825675964,-0.23217570781707764
1776444529850860000,13.705860107421875,0.8552307486534119,0.36774125695228577,-0.09902298450469971
1776444529875878400,13.73087841796875,1.0427125692367554,0.36804884672164917,-0.22621050477027893
1776444529900896300,13.755896240234375,1.1189590692520142,0.23723359405994415,-0.3278697431087494
1776444529925914400,13.780914306640625,1.0812116861343384,0.11670824140310287,-0.27747979760169983
1776444529950933200,13.805933349609376,1.0405519008636475,0.13375087082386017,-0.23589429259300232
1776444529975951000,13.830951171875,0.9305729269981384,0.1696566790342331,-0.15241724252700806
1776444530000969200,13.85596923828125,0.9429212212562561,0.2626670300960541,-0.20607593655586243
1776444530025987000,13.880987060546875,0.8768430948257446,0.38929635286331177,-0.13283154368400574
1776444530051005200,13.906005126953126,0.987618625164032,0.6682025790214539,0.020612867549061775
1776444530076023000,13.93102294921875,1.044114112854004,0.7169964909553528,0.08630213141441345
1776444530101042200,13.956042236328125,0.9765151143074036,0.6953058242797852,0.08083945512771606
1776444530126060300,13.981060302734376,0.8852994441986084,0.5251950621604919,0.007927698083221912
1776444530151078700,14.00607861328125,0.837741494178772,0.42916786670684814,-0.16775891184806824
1776444530176096800,14.0310966796875,1.076677680015564,0.26278528571128845,-0.28917375206947327
1776444530201114600,14.056114501953125,1.2971572875976562,0.16802814602851868,-0.5008060932159424
1776444530226132700,14.0811328125,1.5947421789169312,0.11998472362756729,-0.5238310098648071
1776444530251151600,14.106151611328125,1.815791130065918,0.17465755343437195,-0.44654580950737
1776444530276169500,14.13116943359375,2.0278828144073486,0.11513111740350723,-0.4375680088996887
1776444530301187600,14.1561875,2.0074610710144043,0.08158461004495621,-0.31896787881851196
1776444530326205400,14.181205322265624,2.017612934112549,0.08527228981256485,-0.24084056913852692
1776444530351223800,14.206223876953125,2.020048141479492,0.17838464677333832,-0.1426468938589096
1776444530376241700,14.23124169921875,1.894736886024475,0.2853100299835205,-0.09962859004735947
1776444530401259800,14.256259765625,1.6661872863769531,0.3475150763988495,-0.09211660921573639
1776444530426278700,14.281278564453125,1.447727084159851,0.4027956426143646,-0.13714107871055603
1776444530451296500,14.306296630859375,1.2950462102890015,0.43142303824424744,-0.23494327068328857
1776444530476314600,14.331314697265626,1.1009612083435059,0.3701317310333252,-0.36628344655036926
1776444530501332500,14.35633251953125,0.8408582210540771,0.2883684039115906,-0.3983367383480072
1776444530526350600,14.3813505859375,0.7045648097991943,0.20442689955234528,-0.3789089620113373
1776444530551368400,14.406368408203125,0.6065279841423035,0.11653513461351395,-0.37192535400390625
1776444530576386800,14.43138671875,0.517267644405365,0.062379222363233566,-0.33311671018600464
1776444530601405700,14.45640576171875,0.45705729722976685,0.025311214849352837,-0.27357909083366394
1776444530626423600,14.481423583984375,0.4342651665210724,-0.006222209427505732,-0.19439370930194855
1776444530651441700,14.506441650390625,0.4306477904319763,-0.09838169813156128,-0.14753219485282898
1776444530676459500,14.53145947265625,0.38822975754737854,-0.2385726273059845,-0.17974233627319336
1776444530701477600,14.5564775390625,0.3882388174533844,-0.33146822452545166,-0.1917944699525833
1776444530726495500,14.58149560546875,0.4060705304145813,-0.3932197391986847,-0.2123602032661438
1776444530751514600,14.6065146484375,0.36475053429603577,-0.4174686074256897,-0.23441143333911896
1776444530776532700,14.63153271484375,0.5121018886566162,-0.49172472953796387,-0.2927948534488678
1776444530801550600,14.656550537109375,0.8335787653923035,-0.3896002173423767,-0.32719355821609497
1776444530826568700,14.681568603515625,0.9546915888786316,-0.38108235597610474,-0.3152138888835907
1776444530851586600,14.706586669921874,1.2580245733261108,-0.3331414759159088,-0.32387155294418335
1776444530876604700,14.731604736328125,1.7241853475570679,-0.5074147582054138,-0.4516119360923767
1776444530901622500,14.75662255859375,2.3078773021698,-0.6409645676612854,-0.4355924725532532
1776444530926640400,14.781640380859375,2.816786766052246,-0.6885184645652771,-0.23292405903339386
1776444530951659800,14.80665966796875,2.8757243156433105,-0.7449679374694824,0.046183206140995026
1776444530976677600,14.831677734375,2.7769713401794434,-0.7101670503616333,0.27588191628456116
1776444531001695700,14.85669580078125,2.685990810394287,-0.6379578113555908,0.36498674750328064
1776444531026713600,14.881713623046876,2.6015679836273193,-0.59257972240448,0.4073296785354614
1776444531051731700,14.906731689453125,2.335218906402588,-0.5681869983673096,0.30931976437568665
1776444531076749600,14.93174951171875,2.0771024227142334,-0.49739620089530945,0.276302695274353
1776444531101767400,14.956767333984375,1.8751485347747803,-0.46232131123542786,0.218453511595726
1776444531126786800,14.981786865234374,1.7139910459518433,-0.4462733566761017,0.15857712924480438
1776444531151808000,15.00680810546875,1.656635046005249,-0.30616018176078796,0.10466063022613525
1776444531176826000,15.031826171875,1.6525425910949707,-0.13080941140651703,0.09463649243116379
1776444531201844000,15.056843994140625,1.6177440881729126,0.07899095863103867,0.038419827818870544
1776444531226862000,15.081862060546875,1.5656497478485107,0.41707712411880493,-0.04144091531634331
1776444531251880000,15.1068798828125,1.7262282371520996,0.679625928401947,-0.09186041355133057
1776444531276897800,15.131897705078124,1.9254558086395264,0.8471542000770569,-0.08532474935054779
1776444531301916000,15.156916015625,2.0082578659057617,1.085210919380188,0.20927253365516663
1776444531326935000,15.18193505859375,1.939210057258606,1.1026430130004883,0.24396578967571259
1776444531351953200,15.206953125,2.0644965171813965,0.998903751373291,0.12117835879325867
1776444531376971000,15.231970947265625,2.0018107891082764,0.8491790294647217,0.25925472378730774
1776444531401988900,15.25698876953125,2.314903974533081,0.6124224066734314,0.4897654354572296
1776444531427007000,15.282007080078126,2.6734602451324463,0.19397692382335663,0.5433745980262756
1776444531452024800,15.30702490234375,2.681380033493042,-0.0959121510386467,0.5059390664100647
1776444531477043000,15.33204296875,2.846632719039917,-0.3089970052242279,0.16478762030601501
1776444531502060800,15.357060791015625,2.868067979812622,-0.31870579719543457,0.037389982491731644
1776444531527080000,15.382079833984376,2.0939624309539795,-0.24524730443954468,0.046835947781801224
1776444531552098000,15.40709814453125,1.3182051181793213,-0.16246268153190613,0.03744084760546684
1776444531577116000,15.432115966796875,0.9018912315368652,0.015866048634052277,-0.1696593463420868
1776444531602134000,15.457134033203126,0.5279328227043152,0.23181964457035065,-0.41386082768440247
1776444531627152000,15.48215185546875,0.4143716096878052,0.5002092719078064,-0.527061402797699
1776444531652170000,15.507169921875,0.4431542754173279,0.6063961982727051,-0.3236262798309326
1776444531677187800,15.532187744140625,0.5724190473556519,0.660415768623352,0.08914052695035934
1776444531702206000,15.5572060546875,0.7092338800430298,0.5276321172714233,0.24051833152770996
1776444531727225000,15.58222509765625,0.933740496635437,0.3669130206108093,0.2713097929954529
1776444531752243000,15.607242919921875,0.9630714654922485,0.055627044290304184,0.09136772900819778
1776444531777261000,15.632260986328125,1.0425779819488525,-0.13589231669902802,-0.01575392857193947
1776444531802279000,15.65727880859375,1.1321033239364624,-0.1506028175354004,-0.15842585265636444
1776444531827297000,15.682297119140625,1.1486908197402954,-0.2331767976284027,-0.19257476925849915
1776444531852315000,15.70731494140625,1.148627519607544,-0.3070715367794037,-0.20001697540283203
1776444531877333000,15.7323330078125,1.3403593301773071,-0.13308295607566833,-0.22270578145980835
1776444531902350800,15.757350830078124,1.5333541631698608,0.13936269283294678,-0.18186967074871063
1776444531927369000,15.782368896484375,1.6725221872329712,0.07904794812202454,-0.2701105773448944
1776444531952388000,15.80738818359375,1.7405201196670532,-0.05811097472906113,-0.31840699911117554
1776444531977406000,15.832406005859376,1.839931607246399,-0.22205224633216858,-0.27949583530426025
1776444532002424000,15.857424072265625,1.9235106706619263,-0.35024750232696533,-0.15351073443889618
1776444532027442000,15.88244189453125,1.9046694040298462,-0.46040675044059753,-0.13599565625190735
1776444532052460000,15.9074599609375,2.128674268722534,-0.47171398997306824,-0.09626688063144684
1776444532077478000,15.932477783203124,2.333914279937744,-0.5521771311759949,0.027530428022146225
1776444532102496000,15.95749609375,2.2869791984558105,-0.47473907470703125,-0.07283239811658859
1776444532127513900,15.982513916015625,2.2134206295013428,-0.22047750651836395,-0.18955501914024353
1776444532152528000,16.00752783203125,2.0696518421173096,-0.07476291805505753,-0.11024847626686096
1776444532177547000,16.032547119140624,1.6768341064453125,-0.04903199151158333,-0.014031397178769112
1776444532202564900,16.05756494140625,1.208999514579773,-0.014030065387487411,0.09859741479158401
1776444532227583000,16.0825830078125,1.207875370979309,0.021876802667975426,0.1554841250181198
1776444532252600800,16.107600830078123,0.994788646697998,0.0011310444679111242,0.2550661265850067
1776444532277619000,16.132618896484374,1.0613794326782227,-0.09750205278396606,0.3119957149028778
1776444532302636800,16.15763671875,1.2856042385101318,-0.2962287366390228,0.3771986961364746
1776444532327655000,16.182655029296875,1.4361034631729126,-0.3642527759075165,0.5526346564292908
1776444532352672800,16.2076728515625,1.5363848209381104,-0.4239131808280945,0.5095750689506531
1776444532377691000,16.23269091796875,1.1728463172912598,-0.6751315593719482,0.20818355679512024
1776444532402708700,16.257708740234374,0.43093806505203247,0.43028533458709717,-0.046291597187519073
1776444532427728000,16.282727783203125,0.4271047115325928,0.10313277691602707,-0.3739815950393677
1776444532452746000,16.30774609375,0.27203312516212463,0.11698680371046066,-0.2741524577140808
1776444532477763800,16.332763916015626,0.45034292340278625,-0.09731243550777435,-0.20778222382068634
1776444532502782000,16.357781982421876,0.48966291546821594,-0.03465624898672104,-0.16603291034698486
1776444532527799800,16.3827998046875,0.5329073071479797,-0.12312939018011093,-0.1276429146528244
1776444532552818000,16.40781787109375,0.558878481388092,-0.0490916445851326,-0.04476507380604744
1776444532577835800,16.432835693359376,0.6805015802383423,-0.12027181684970856,0.0977659747004509
1776444532602854000,16.45785400390625,0.718710720539093,0.10366620868444443,0.27427229285240173
1776444532627872000,16.4828720703125,0.9148021936416626,0.3798522651195526,0.4876897633075714
1776444532652889900,16.507889892578124,1.2260410785675049,0.6648871898651123,0.5751610398292542
1776444532677908000,16.532907958984374,1.6630502939224243,0.8729863166809082,0.6041271686553955
1776444532702926800,16.5579267578125,1.674263834953308,1.161171555519104,0.6655468344688416
1776444532727945000,16.582945068359376,1.7066411972045898,1.1333116292953491,0.6360446214675903
1776444532752962800,16.607962890625,2.0383408069610596,0.936353862285614,0.3359266221523285
1776444532777981000,16.63298095703125,1.9670954942703247,0.8392254114151001,0.14066444337368011
1776444532802998800,16.657998779296875,1.9252986907958984,0.5257332921028137,0.019581690430641174
1776444532828017000,16.683016845703126,1.7814123630523682,0.30971550941467285,-0.18558238446712494
1776444532853035000,16.708034912109376,1.7584842443466187,0.1543419063091278,-0.2181808054447174
1776444532878052900,16.733052978515627,1.6657105684280396,-0.015904132276773453,-0.17014776170253754
1776444532903071000,16.758071044921873,1.5289748907089233,0.11555961519479752,-0.10472375154495239
1776444532928088800,16.7830888671875,1.469698429107666,0.015729160979390144,-0.05555859953165054
1776444532953107000,16.80810693359375,1.2492923736572266,-0.03987577557563782,-0.19407705962657928
1776444532978124800,16.833124755859377,1.1372954845428467,0.02010233886539936,-0.35414981842041016
1776444533003143700,16.858143798828124,1.121145248413086,-0.03598756343126297,-0.38579508662223816
1776444533028161800,16.883161865234374,1.1263477802276611,-0.04944344982504845,-0.39313504099845886
1776444533053180000,16.908179931640625,0.955179750919342,-0.05367973819375038,-0.35813602805137634
1776444533078198000,16.933197998046875,0.869631290435791,-0.08878499269485474,-0.36835724115371704
1776444533103215900,16.9582158203125,0.6728854775428772,-0.19671200215816498,-0.3881714344024658
1776444533128234000,16.98323388671875,0.4203227162361145,-0.3819524347782135,-0.38364726305007935
1776444533153256000,17.008255859375,0.33523231744766235,-0.4817325472831726,-0.3794543743133545
1776444533178273800,17.033273681640626,0.28304556012153625,-0.401946097612381,-0.2573077082633972
1776444533203292000,17.0582919921875,0.4758951663970947,-0.2574150264263153,-0.07054100930690765
1776444533228310000,17.08331005859375,0.7414410710334778,-0.28669968247413635,0.04262122884392738
1776444533253328100,17.108328125,0.8896449208259583,-0.29268699884414673,0.13555996119976044
1776444533278346000,17.133345947265624,1.0362838506698608,-0.18424519896507263,0.30946677923202515
1776444533303364000,17.158364013671875,1.2152392864227295,-0.0019387812353670597,0.40912091732025146
1776444533328383000,17.183383056640626,1.4135295152664185,0.21380256116390228,0.37893107533454895
1776444533353400800,17.20840087890625,1.8444206714630127,0.3179793059825897,0.26565882563591003
1776444533378419000,17.2334189453125,2.28991961479187,0.38776424527168274,0.2349560558795929
1776444533403436800,17.258436767578125,2.573268413543701,0.3947529196739197,0.17928080260753632
1776444533428455200,17.283455078125,2.799736261367798,0.3460575342178345,0.07365398108959198
1776444533453473000,17.30847314453125,3.1527445316314697,0.32976752519607544,-0.04319114610552788
1776444533478491100,17.3334912109375,3.384345769882202,0.41852134466171265,-0.08909206092357635
1776444533503509000,17.358509033203124,3.3310744762420654,0.5420254468917847,-0.07449846714735031
1776444533528527000,17.383527099609374,3.1711835861206055,0.4841373860836029,0.004606469534337521
1776444533553545000,17.408544921875,2.9534878730773926,0.23539280891418457,0.025294704362750053
1776444533578563000,17.43356298828125,2.720475673675537,0.03184022009372711,0.025241706520318985
1776444533603581000,17.458580810546874,2.4993927478790283,-0.12818007171154022,0.08847633749246597
1776444533628599000,17.48359912109375,2.3637773990631104,-0.355807900428772,0.14938601851463318
1776444533653617000,17.508616943359375,2.3511974811553955,-0.5693989992141724,0.18590755760669708
1776444533678636000,17.533635986328125,2.258957862854004,-0.6399285793304443,0.21448646485805511
1776444533703654100,17.558654052734376,2.2600607872009277,-0.7201129198074341,0.28275126218795776
1776444533728672000,17.583672119140626,2.272608757019043,-0.7849938869476318,0.4073390066623688
1776444533753690000,17.608690185546877,2.0076732635498047,-0.8002783060073853,0.5365006923675537
1776444533778708000,17.6337080078125,1.6081641912460327,-0.7281758785247803,0.7125857472419739
1776444533803726000,17.65872607421875,0.9942318201065063,-0.4678787887096405,0.6882100701332092
1776444533828744000,17.683743896484376,0.5393103361129761,-0.10441162437200546,0.5769299268722534
1776444533853761800,17.70876171875,0.4798443615436554,0.055689096450805664,0.578310489654541
1776444533878780200,17.7337802734375,0.696585476398468,0.08152761310338974,0.554400622844696
1776444533903798000,17.758798095703124,0.9316022396087646,0.12549586594104767,0.41693490743637085
1776444533928816000,17.783816162109375,0.6873786449432373,0.4468243718147278,0.16424806416034698
1776444533953834000,17.808833984375,0.6074010133743286,0.635629415512085,-0.028842832893133163
1776444533978852000,17.83385205078125,1.0642329454421997,0.5892750024795532,-0.21804311871528625
1776444534003870000,17.858869873046874,1.4309883117675781,0.6257174015045166,-0.291626513004303
1776444534028888000,17.88388818359375,1.6591988801956177,0.6492621302604675,-0.3078417181968689
1776444534053906000,17.908906005859375,1.9188525676727295,0.6028832197189331,-0.3353087604045868
1776444534078924800,17.9339248046875,2.2769999504089355,0.46475115418434143,-0.38161420822143555
1776444534103943200,17.958943115234376,2.2683324813842773,0.5975715517997742,-0.41309303045272827
1776444534128961000,17.9839609375,2.3518497943878174,0.5966916084289551,-0.3620338439941406
1776444534153975300,18.008975341796877,2.4565935134887695,0.6664962768554688,-0.3638850152492523
1776444534178993200,18.0339931640625,2.558274507522583,0.530870795249939,-0.2980732321739197
1776444534204011300,18.05901123046875,2.6885013580322266,0.3624333143234253,-0.26357197761535645
1776444534229029000,18.084029052734376,2.843738079071045,0.14126898348331451,-0.1530262976884842
1776444534254047200,18.109047119140627,2.885007381439209,0.061520084738731384,-0.053454700857400894
1776444534279065000,18.134065185546874,2.8744895458221436,-0.12774518132209778,0.12500877678394318
1776444534304083200,18.159083251953124,1.4963306188583374,-0.172127828001976,0.30432528257369995
1776444534329101300,18.184101318359374,1.0831515789031982,-0.2900986671447754,0.2613764703273773
1776444534354119400,18.209119384765625,0.9519889950752258,-0.03870238736271858,-0.014565627090632915
1776444534379137300,18.23413720703125,0.7936579585075378,0.3087884783744812,-0.1687069982290268
1776444534404155100,18.259155029296874,0.7162685990333557,0.43576425313949585,-0.3106960952281952
1776444534429173200,18.28417333984375,0.6018869280815125,0.45744451880455017,-0.40993666648864746
1776444534454191000,18.309191162109375,0.6430335640907288,0.5367875695228577,-0.22469462454319
1776444534479209200,18.334209228515626,0.7272259593009949,0.7676551342010498,0.007059773895889521
1776444534504227000,18.35922705078125,0.8031142950057983,0.8560797572135925,0.2139064222574234
1776444534529245200,18.3842451171875,0.8164615631103516,1.0243817567825317,0.22264745831489563
1776444534554263000,18.409262939453125,0.7876248359680176,1.2262588739395142,0.027116572484374046
1776444534579282200,18.4342822265625,0.8909112811088562,1.3777272701263428,-0.1559954583644867
1776444534604300300,18.45930029296875,1.3695611953735352,1.4271116256713867,-0.3797984719276428
1776444534629318100,18.484318115234377,1.4769712686538696,1.0786465406417847,-0.4561590254306793
1776444534654336300,18.509336181640624,1.5046916007995605,0.6858856678009033,-0.33648160099983215
1776444534679354000,18.53435400390625,1.5860748291015625,0.37487906217575073,-0.24334608018398285
1776444534704372200,18.559372314453125,1.7449969053268433,0.21428540349006653,-0.16112683713436127
1776444534729390000,18.58439013671875,1.7790943384170532,-0.07774938642978668,-0.15817153453826904
1776444534754408200,18.609408203125,1.6068015098571777,-0.29555121064186096,-0.10631711781024933
1776444534779426000,18.634426025390624,1.4982744455337524,-0.39364102482795715,-0.018038388341665268
1776444534804444400,18.6594443359375,1.3944487571716309,-0.3677191734313965,0.04507959261536598
1776444534829462300,18.684462158203125,1.197573184967041,-0.368726909160614,0.03413133695721626
1776444534854480400,18.70948046875,0.9905465245246887,-0.3759065270423889,-0.010451575741171837
1776444534879498200,18.734498291015626,0.8427293300628662,-0.38725584745407104,-0.04393203929066658
1776444534904516000,18.75951611328125,0.7430211305618286,-0.4181082844734192,-0.0628705769777298
1776444534929534200,18.7845341796875,0.6839871406555176,-0.4759886562824249,-0.0677737221121788
1776444534954552000,18.809552001953126,0.4822726249694824,-0.3619723320007324,-0.08957862108945847
1776444534979570200,18.834570068359376,0.8008082509040833,0.00962546281516552,-0.0054914383217692375
1776444535004588000,18.859588134765627,0.9443635940551758,0.1332230418920517,-0.05492609739303589
1776444535029606100,18.884606201171874,1.4499069452285767,0.2399928867816925,0.05741002783179283
1776444535054624300,18.909624267578124,1.9982136487960815,0.13600124418735504,0.16891099512577057
1776444535079642400,18.934642333984375,2.4963748455047607,-0.16512291133403778,0.04433417320251465
1776444535104660200,18.95966015625,2.855027437210083,-0.4991986155509949,0.00875194650143385
1776444535129678300,18.98467822265625,3.0679469108581543,-0.396941214799881,0.15316931903362274
1776444535154696200,19.0096962890625,2.8784337043762207,-0.2427055835723877,0.17926296591758728
1776444535179714300,19.03471435546875,2.7240800857543945,-0.04941095784306526,0.2602001428604126
1776444535204732200,19.059732177734375,2.7232115268707275,0.046789076179265976,0.30623316764831543
1776444535229750300,19.084750244140626,2.788278579711914,0.10560552030801773,0.37878113985061646
1776444535254768400,19.109768310546876,2.5470917224884033,0.20212753117084503,0.36231186985969543
1776444535279786200,19.1347861328125,2.3858413696289062,0.3569117784500122,0.34741201996803284
1776444535304804400,19.159804443359373,2.2589426040649414,0.4794076085090637,0.3540704548358917
1776444535329822200,19.184822265625,2.1613707542419434,0.45089608430862427,0.40259379148483276
1776444535354841300,19.20984130859375,2.0694375038146973,0.3662072718143463,0.47864940762519836
1776444535379859200,19.234859130859373,2.0012686252593994,0.25620409846305847,0.37105557322502136
1776444535404877300,19.259877197265624,1.83527672290802,0.31493502855300903,0.3042016923427582
1776444535429895200,19.284895263671874,1.6679569482803345,0.24069170653820038,0.0965462476015091
1776444535454913000,19.3099130859375,1.6215518712997437,0.08223015815019608,-0.11963292211294174
1776444535479931400,19.334931396484375,1.690186619758606,-0.19329436123371124,-0.43223822116851807
1776444535504949200,19.35994921875,1.6762034893035889,-0.4073677659034729,-0.5949507355690002
1776444535529967400,19.38496728515625,1.805760145187378,-0.5524983406066895,-0.7754877209663391
1776444535554985200,19.409985107421875,2.0008225440979004,-0.5693678855895996,-0.924624502658844
1776444535580003300,19.43500341796875,2.1622073650360107,-0.5741580724716187,-0.9728173017501831
1776444535605021200,19.460021240234376,2.1201319694519043,-0.48080337047576904,-0.9202766418457031
1776444535630039300,19.485039306640626,2.056079864501953,-0.42166149616241455,-0.8342240452766418
1776444535655057200,19.51005712890625,1.8020042181015015,-0.1759156435728073,-0.6521889567375183
1776444535680075300,19.5350751953125,1.5613716840744019,0.038773760199546814,-0.3104625344276428
1776444535705093000,19.560093017578126,1.1474639177322388,0.17208388447761536,-0.3210001289844513
1776444535730111500,19.585111572265625,1.1508538722991943,0.22492286562919617,-0.3139027953147888
1776444535755129300,19.61012939453125,1.06487238407135,0.18593338131904602,-0.27423927187919617
1776444535780147200,19.635147216796874,0.8765115737915039,0.11920921504497528,-0.07665323466062546
1776444535805165300,19.660165283203124,0.8309792280197144,0.21964074671268463,0.1619390994310379
1776444535830183200,19.68518310546875,1.0905019044876099,0.23336242139339447,0.30241578817367554
1776444535855201300,19.710201171875,1.016596794128418,0.13988520205020905,0.28048065304756165
1776444535880219100,19.73521923828125,0.8077031970024109,-0.014336328953504562,0.23619867861270905
1776444535905237200,19.7602373046875,0.5586033463478088,-0.0836205929517746,-0.03583922237157822
1776444535930255000,19.785255126953125,0.3014533221721649,0.06136535480618477,-0.3091226816177368
1776444535955273200,19.810273193359375,0.35040274262428284,0.10985219478607178,-0.38840818405151367
1776444535980291300,19.835291259765626,0.5417513847351074,0.1373930126428604,-0.308735191822052
1776444536005309400,19.860309326171876,0.7123055458068848,0.07276874780654907,-0.2305983304977417
1776444536030327300,19.885327392578127,0.787369430065155,-0.049492716789245605,-0.20879103243350983
1776444536055345400,19.910345458984374,0.9970520734786987,-0.08223868161439896,-0.24258361756801605
1776444536080363300,19.93536328125,1.196752667427063,-0.07706762105226517,-0.24794721603393555
1776444536105381400,19.96038134765625,1.290734887123108,-0.07693659514188766,-0.24017025530338287
1776444536130399200,19.985399169921877,1.452196717262268,0.08984626829624176,-0.24860289692878723
1776444536155417300,20.010417236328124,1.5576850175857544,0.23313765227794647,-0.2761831283569336
1776444536180435500,20.035435546875,1.6016370058059692,0.23036769032478333,-0.2718978226184845
1776444536205453300,20.060453369140625,1.6783148050308228,0.15791720151901245,-0.20328360795974731
1776444536230471400,20.085471435546875,1.7321279048919678,0.007201720029115677,-0.14191026985645294
1776444536255489300,20.1104892578125,1.7873424291610718,-0.11760039627552032,-0.061168283224105835
1776444536280507400,20.13550732421875,1.801798939704895,-0.10831688344478607,0.006983074825257063
1776444536305525200,20.160525146484375,1.8681670427322388,0.04760080948472023,0.013676930218935013
1776444536330543400,20.18554345703125,1.8527874946594238,0.16212019324302673,0.03229482099413872
1776444536355561200,20.210561279296876,1.815049409866333,0.1799657791852951,0.0864986702799797
1776444536380579300,20.235579345703126,1.5529752969741821,-0.014310495927929878,0.4607899785041809
1776444536405597400,20.260597412109377,1.2407763004302979,0.07166433334350586,0.38241130113601685
1776444536430615600,20.285615478515624,0.9020033478736877,0.22773116827011108,0.2584427297115326
1776444536455633400,20.31063330078125,0.8345507979393005,0.20640616118907928,0.22187434136867523
1776444536480651300,20.3356513671875,0.9448562860488892,-0.08870670199394226,0.3580324351787567
1776444536505669400,20.36066943359375,0.9478749632835388,-0.5143536329269409,0.4919545650482178
1776444536530687200,20.385687255859374,0.9171508550643921,-0.5608438849449158,0.41180193424224854
1776444536555705300,20.410705322265624,1.0452539920806885,-0.40607213973999023,0.2900712490081787
1776444536580723200,20.43572314453125,1.4372113943099976,-0.4365283250808716,0.38193830847740173
1776444536605741300,20.4607412109375,1.9136031866073608,-0.20518110692501068,0.548206090927124
1776444536630759200,20.48575927734375,2.153674364089966,0.2501363456249237,0.677016019821167
1776444536655777500,20.510777587890626,2.593008279800415,0.4599713385105133,0.5822844505310059
1776444536680795400,20.53579541015625,2.9473683834075928,0.717730700969696,0.2879979610443115
1776444536705813500,20.5608134765625,3.0782928466796875,0.7039610743522644,0.024823324754834175
1776444536730831400,20.585831298828126,2.940129280090332,0.8572483658790588,-0.040655285120010376
1776444536755849500,20.610849365234376,2.8372764587402344,0.8229878544807434,-0.05024932324886322
1776444536780867300,20.635867431640627,2.920117139816284,0.5886366367340088,-0.11827897280454636
1776444536805885400,20.660885498046873,2.7972187995910645,0.514358639717102,-0.1762290894985199
1776444536830903300,20.6859033203125,2.4428393840789795,0.5221577286720276,-0.24782098829746246
1776444536855921200,20.710921142578126,2.0147523880004883,0.5698760151863098,-0.27845799922943115
1776444536880939300,20.735939208984377,1.6771600246429443,0.5260981321334839,-0.27085307240486145
1776444536905957400,20.760957275390624,1.4864020347595215,0.4307985305786133,-0.29135754704475403
1776444536930975500,20.7859755859375,1.227368950843811,0.4081520736217499,-0.30223947763442993
1776444536955993300,20.810993408203124,1.0385361909866333,0.362564355134964,-0.33289673924446106
1776444536981011500,20.836011474609375,0.8430331945419312,0.42807039618492126,-0.27256840467453003
1776444537006029300,20.861029296875,0.8085735440254211,0.22204504907131195,-0.29465213418006897
1776444537031047400,20.88604736328125,0.7156102657318115,0.048055410385131836,-0.28396379947662354
1776444537056065300,20.911065185546875,0.7113409638404846,-0.10856669396162033,-0.25086525082588196
1776444537081083400,20.93608349609375,0.7621679306030273,0.02472611889243126,-0.18538716435432434
1776444537106101200,20.961101318359376,0.862389326095581,0.17037838697433472,0.017249559983611107
1776444537131119400,20.986119384765626,1.1964658498764038,0.3196115493774414,0.06976602971553802
1776444537156137700,21.0111376953125,1.547023057937622,0.40314480662345886,0.11505601555109024
1776444537181155600,21.036155517578123,1.8942619562149048,0.45345431566238403,0.16274790465831757
1776444537206173700,21.061173583984374,2.022491931915283,0.4612720012664795,0.20211128890514374
1776444537231191600,21.086191650390624,2.192018508911133,0.3868393301963806,0.22469834983348846
1776444537256209700,21.111209716796875,2.2253525257110596,0.2619602382183075,0.172465518116951
1776444537281227500,21.1362275390625,2.0467519760131836,0.24559538066387177,0.12654942274093628
1776444537306244600,21.16124462890625,1.7751281261444092,0.25723713636398315,0.11855567246675491
1776444537331262500,21.186262451171874,1.5460331439971924,0.1645205020904541,0.09590549021959305
1776444537356280600,21.211280517578125,1.4506670236587524,0.017795242369174957,0.06706824898719788
1776444537381298400,21.23629833984375,1.3017914295196533,-0.13443823158740997,0.03171798214316368
1776444537406316500,21.261316650390626,1.30666184425354,-0.2577516436576843,0.021205153316259384
1776444537431334700,21.286334716796876,1.4323062896728516,-0.4123854339122772,0.025471804663538933
1776444537456352800,21.311352783203127,1.4681609869003296,-0.4540705680847168,0.036019254475831985
1776444537481370600,21.33637060546875,1.4118738174438477,-0.46148693561553955,0.01944533735513687
1776444537506388700,21.361388671875,1.3592931032180786,-0.4480496942996979,-0.05868914723396301
1776444537531406600,21.386406494140626,1.2158249616622925,-0.5083894729614258,-0.1795356720685959
1776444537556424700,21.4114248046875,1.0000689029693604,-0.5658990740776062,-0.24740660190582275
1776444537581442600,21.436442626953124,0.8577985763549805,-0.5804948210716248,-0.1892053484916687
1776444537606460700,21.461460693359374,0.7502660155296326,-0.5120675563812256,-0.3236166834831238
1776444537631478500,21.486478515625,0.7835464477539062,-0.49614983797073364,-0.3347766697406769
1776444537656496600,21.51149658203125,0.7332074046134949,-0.30432528257369995,-0.4037565290927887
1776444537681514800,21.5365146484375,0.847673773765564,-0.16193696856498718,-0.3599022626876831
1776444537706532600,21.56153271484375,0.9818246364593506,0.059426043182611465,-0.39497101306915283
1776444537731550700,21.58655078125,1.2780368328094482,0.13543878495693207,-0.40264996886253357
1776444537756568600,21.611568603515625,1.5711443424224854,0.17719262838363647,-0.2926505208015442
1776444537781586700,21.636586669921876,1.9167510271072388,0.1854633390903473,-0.19017313420772552
1776444537806604500,21.6616044921875,2.150125741958618,0.07888256758451462,-0.14693112671375275
1776444537831622700,21.68662255859375,1.8805656433105469,-0.10381560772657394,-0.0403631366789341
1776444537856640500,21.711640625,1.1598625183105469,-0.21915045380592346,0.09176800400018692
1776444537881658600,21.73665869140625,0.8401607275009155,-0.13471759855747223,0.10406115651130676
1776444537906676500,21.761676513671876,0.9921638369560242,-0.14381761848926544,0.1554843932390213
1776444537931694800,21.78669482421875,1.0586645603179932,0.09946001321077347,0.11232414096593857
1776444537956712700,21.811712646484374,0.9202001690864563,0.2483901083469391,0.002883670851588249
1776444537981730800,21.836730712890624,0.8648533225059509,0.6297110915184021,-0.05132044479250908
1776444538006748700,21.861748779296875,1.0253475904464722,0.7525416612625122,0.0070821442641317844
1776444538031766500,21.8867666015625,1.5443652868270874,0.6552358865737915,0.15323828160762787
1776444538056783600,21.91178369140625,2.141756772994995,0.5301671624183655,0.1947210133075714
1776444538081801700,21.9368017578125,2.4526188373565674,0.5137916803359985,0.03137283772230148
1776444538106819600,21.961819580078124,2.4671995639801025,0.6606916189193726,-0.13662602007389069
1776444538131837700,21.986837646484375,2.296795129776001,0.8689588308334351,-0.23843973875045776
1776444538156854800,22.011854736328125,2.3535704612731934,0.9336488842964172,-0.30335909128189087
1776444538181873000,22.036872802734376,2.700650453567505,0.7122637629508972,-0.3309510350227356
1776444538206890800,22.061890869140626,2.7670915126800537,0.4369400441646576,-0.26385775208473206
1776444538231908900,22.086908935546877,2.6539580821990967,0.3140586018562317,-0.16426271200180054
1776444538256926700,22.1119267578125,2.4530718326568604,0.3436460494995117,-0.23895399272441864
1776444538281944800,22.13694482421875,2.1581361293792725,0.433541864156723,-0.34348225593566895
1776444538306962700,22.161962646484376,2.0119478702545166,0.4337376058101654,-0.3691261112689972
1776444538331981000,22.18698095703125,2.0078797340393066,0.355095773935318,-0.5002119541168213
1776444538356999000,22.2119990234375,1.952815055847168,0.19748564064502716,-0.5654814839363098
1776444538382017000,22.23701708984375,1.8857896327972412,0.12641918659210205,-0.5840756893157959
1776444538407035000,22.262034912109375,1.8566898107528687,0.11262854188680649,-0.5064821243286133
1776444538432052700,22.287052734375,1.9757235050201416,0.15689879655838013,-0.5269596576690674
1776444538457070800,22.31207080078125,2.110600471496582,0.31596994400024414,-0.5410456657409668
1776444538482088700,22.337088623046874,2.4194767475128174,0.5889729857444763,-0.5375742316246033
1776444538507106800,22.36210693359375,2.568523406982422,0.6499617695808411,-0.49392610788345337
1776444538532124700,22.387124755859375,2.4893198013305664,0.5452691912651062,-0.2749905586242676
1776444538557141800,22.412141845703125,2.5174484252929688,0.45983657240867615,-0.11773914843797684
1776444538582160000,22.437159912109376,2.328773260116577,0.37434935569763184,0.09595102816820145
1776444538607177700,22.462177734375,2.066155433654785,0.26548653841018677,0.25800198316574097
1776444538632195800,22.48719580078125,1.8295687437057495,0.2145937979221344,0.4548295736312866
1776444538657214000,22.5122138671875,1.7027229070663452,0.14523601531982422,0.5493587255477905
1776444538682231800,22.537231689453126,1.618461012840271,0.04737257584929466,0.5354439616203308
1776444538707250000,22.56225,1.3669257164001465,-0.08762412518262863,0.5627336502075195
1776444538732267800,22.587267822265623,1.0693659782409668,-0.16378094255924225,0.5600529313087463
1776444538757286000,22.612285888671874,0.9695368409156799,-0.20273900032043457,0.4589526653289795
1776444538782303700,22.6373037109375,0.9760701060295105,-0.2590278387069702,0.369514137506485
1776444538807321900,22.66232177734375,0.9810131788253784,-0.3003704845905304,0.33730533719062805
1776444538832339700,22.687339599609373,0.968565046787262,0.24119344353675842,0.2930915355682373
1776444538857357800,22.71235791015625,1.1321009397506714,1.0041286945343018,-0.05968969687819481
1776444538882376000,22.7373759765625,1.0475131273269653,1.3603315353393555,-0.4960733950138092
1776444538907394000,22.76239404296875,1.2346662282943726,0.4988982081413269,-0.4149860143661499
1776444538932412000,22.787411865234375,1.0590592622756958,-0.43896058201789856,-0.41638630628585815
1776444538957429800,22.8124296875,0.6319324374198914,-1.0504881143569946,-0.3518456518650055
1776444538982446800,22.83744677734375,0.3664405643939972,-0.8739956617355347,-0.2495027780532837
1776444539007465000,22.86246484375,0.5211225748062134,-0.4400908350944519,-0.049006156623363495
1776444539032482800,22.88748291015625,0.6807575225830078,-0.2482558786869049,0.13862445950508118
1776444539057501000,22.9125009765625,0.7417446970939636,-0.08264800906181335,0.23621998727321625
1776444539082518800,22.937518798828126,0.8452910780906677,0.08673649281263351,0.2979573905467987
1776444539107537000,22.962536865234377,0.9477324485778809,-0.17849570512771606,0.24971076846122742
1776444539132554800,22.9875546875,1.0383491516113281,-0.6066126823425293,0.13901621103286743
1776444539157573400,23.012573486328126,0.9226508140563965,-0.7656739950180054,0.02773948572576046
1776444539182591500,23.037591552734376,0.7893465757369995,-0.7146393060684204,0.012060390785336494
1776444539207609300,23.062609375,0.7631895542144775,-0.6123062968254089,0.056349825114011765
1776444539232627500,23.08762744140625,0.7165789008140564,-0.4521741271018982,0.07342308759689331
1776444539257645300,23.112645263671876,0.5927773118019104,-0.32551443576812744,0.06892713904380798
1776444539282663400,23.137663330078126,0.2904067933559418,0.03602644428610802,0.05215641111135483
1776444539307680300,23.16268017578125,0.047864727675914764,0.58347487449646,0.018453309312462807
1776444539332698400,23.187698486328124,-0.179546058177948,0.4997333884239197,-0.003929493948817253
1776444539357716200,23.21271630859375,-0.17154991626739502,0.4293327331542969,0.09344206750392914
1776444539382734300,23.237734375,-0.0947299674153328,0.36671727895736694,0.12341221421957016
1776444539407752200,23.262752197265623,0.1652936190366745,0.2258475124835968,0.04982934147119522
1776444539432770600,23.2877705078125,0.86710125207901,0.3738225996494293,-0.028835376724600792
1776444539457788400,23.312788330078124,1.591244101524353,0.3271797299385071,-0.13263154029846191
1776444539482806500,23.337806640625,2.2533395290374756,0.300212562084198,-0.2997382581233978
1776444539507824400,23.362824462890625,2.6567373275756836,0.2526453137397766,-0.38386696577072144
1776444539532842500,23.387842529296876,2.7858943939208984,0.14672978222370148,-0.3534179925918579
1776444539557860400,23.4128603515625,2.8069264888763428,0.051596615463495255,-0.3028160631656647
1776444539582878500,23.43787841796875,2.8104047775268555,-0.021286645904183388,-0.21403585374355316
1776444539607896300,23.462896240234375,2.5432004928588867,-0.10988708585500717,-0.13903272151947021
1776444539632913400,23.487913330078126,2.3368799686431885,-0.17090490460395813,-0.07351096719503403
1776444539657931300,23.51293115234375,2.3738248348236084,-0.1976555585861206,-0.12011388689279556
1776444539682949400,23.537949462890627,2.4553940296173096,-0.2236408144235611,-0.17057199776172638
1776444539707967200,23.56296728515625,2.35266375541687,-0.17931222915649414,-0.1906929910182953
1776444539732985600,23.587985595703124,2.2332003116607666,-0.16617698967456818,-0.21301373839378357
1776444539758003500,23.61300341796875,2.320452928543091,-0.12380369752645493,-0.22355958819389343
1776444539783021600,23.638021484375,2.3805453777313232,-0.1584671437740326,-0.27626833319664
1776444539808039400,23.663039306640623,2.318532943725586,-0.15078498423099518,-0.2658711075782776
1776444539833057300,23.688057373046874,1.472449541091919,-0.17846640944480896,-0.31805387139320374
1776444539858075400,23.713075439453124,0.7405135035514832,-0.17501787841320038,-0.4041304290294647
1776444539883093200,23.73809326171875,0.725799024105072,0.17230919003486633,-0.5146178007125854
1776444539908111400,23.763111328125,1.0761932134628296,0.08086422085762024,-0.7774012088775635
1776444539933129200,23.788129150390624,1.3498724699020386,0.1563139706850052,-0.8878241181373596
1776444539958146300,23.813146240234374,1.363808512687683,0.13629871606826782,-0.9376713037490845
1776444539983164400,23.838164306640625,1.1891019344329834,0.07743486762046814,-0.9547999501228333
1776444540008182300,23.863182373046875,1.3422094583511353,0.02576155588030815,-0.9195058941841125
1776444540033200400,23.888200439453126,1.5083222389221191,0.06998094916343689,-0.8110281825065613
1776444540058218500,23.913218505859376,1.5959246158599854,-0.029565615579485893,-0.6855767369270325
1776444540083236400,23.938236328125,1.6641135215759277,0.06246417760848999,-0.5917157530784607
1776444540108254500,23.96325439453125,1.554201602935791,0.0837329775094986,-0.38408800959587097
1776444540133272300,23.988272216796876,1.2635737657546997,0.22358515858650208,0.03979641571640968
1776444540158294300,24.013294189453124,1.3775634765625,0.15560877323150635,0.36934608221054077
1776444540183312100,24.03831201171875,1.4928429126739502,0.1083642914891243,0.617241621017456
1776444540208330200,24.063330322265625,1.555611491203308,0.022664299234747887,0.6502086520195007
1776444540233348000,24.08834814453125,1.5788899660110474,0.012230833992362022,0.8221591114997864
1776444540258366200,24.1133662109375,1.534388780593872,0.06885655969381332,1.0362151861190796
1776444540283384000,24.138384033203124,1.4014866352081299,0.06492520123720169,1.0817421674728394
1776444540308401200,24.163401123046874,1.4013612270355225,0.0565628781914711,1.0530519485473633
1776444540333419000,24.1884189453125,1.3639216423034668,0.09818515926599503,1.1109602451324463
1776444540358437000,24.21343701171875,1.4444046020507812,0.0504317469894886,1.1861733198165894
1776444540383455000,24.238455078125,1.530654788017273,-0.13393808901309967,1.2301503419876099
1776444540408473000,24.26347314453125,1.6595247983932495,-0.1909467875957489,1.2233062982559204
1776444540433491000,24.288490966796875,1.7796621322631836,-0.19889046251773834,1.3201491832733154
1776444540458509300,24.31350927734375,1.5783522129058838,0.12326627224683762,1.3934329748153687
1776444540483527200,24.338527099609376,1.3095524311065674,0.39896443486213684,1.3706549406051636
1776444540508545300,24.363545166015626,0.9113169312477112,0.35660046339035034,1.2297085523605347
1776444540533563100,24.388563232421873,0.44244614243507385,0.3258872926235199,1.0848045349121094
1776444540558580200,24.413580322265624,0.5308265686035156,0.011758921667933464,0.9391637444496155
1776444540583598000,24.43859814453125,0.8937318325042725,-0.4118107259273529,0.9451731443405151
1776444540608616200,24.4636162109375,0.995449423789978,-0.5521566271781921,1.1277365684509277
1776444540633634000,24.488634033203127,1.2263292074203491,-0.5858139395713806,1.2767486572265625
1776444540658652200,24.513652099609374,1.2996513843536377,-0.6529698371887207,1.1808611154556274
1776444540683670000,24.538669921875,1.332901954650879,-0.8024269342422485,0.9013705849647522
1776444540708688100,24.563688232421875,1.2466864585876465,-1.006139874458313,0.8189404010772705
1776444540733706000,24.5887060546875,1.4335881471633911,-1.039999008178711,0.6810200810432434
1776444540758724000,24.61372412109375,1.6004908084869385,-1.0821070671081543,0.6437358260154724
1776444540783741000,24.638740966796874,1.672762393951416,-1.2886394262313843,0.6731677651405334
1776444540808759000,24.663759033203124,1.565988540649414,-1.4672579765319824,0.7000747323036194
1776444540833777200,24.688777099609375,1.2469098567962646,-1.7675373554229736,0.7118719816207886
1776444540858795300,24.713795166015625,1.1351583003997803,-2.1656153202056885,0.7190731763839722
1776444540883813000,24.738813232421876,1.3455363512039185,-2.4360272884368896,0.769515335559845
1776444540908831200,24.763831298828126,1.2827099561691284,-1.7881842851638794,0.9163100719451904
1776444540933849000,24.78884912109375,1.3480160236358643,-2.196762800216675,1.041999101638794
1776444540958867200,24.8138671875,1.5374407768249512,-2.4968645572662354,1.2242785692214966
1776444540983885000,24.838885009765626,1.7469521760940552,-2.297362804412842,1.0344479084014893
1776444541008903000,24.86390283203125,1.6574960947036743,-2.026757001876831,1.342535138130188
1776444541033920000,24.888919921875,1.5634782314300537,-2.12996506690979,1.4018936157226562
1776444541058938000,24.913938232421874,1.2518593072891235,-1.6719058752059937,1.474778652191162
1776444541083956000,24.9389560546875,0.9151889085769653,-1.715672492980957,1.3303728103637695
1776444541108974000,24.96397412109375,0.7341581583023071,-1.4674733877182007,1.0385358333587646
1776444541133992200,24.9889921875,0.7647996544837952,-0.9644550085067749,0.8976101875305176
1776444541159006500,25.01400634765625,0.8655171990394592,-0.48239007592201233,0.8573346734046936
1776444541184024300,25.0390244140625,0.6380262970924377,0.09688074141740799,0.7595164775848389
1776444541209042400,25.06404248046875,0.5401095747947693,0.4701235592365265,0.6923941969871521
1776444541234060300,25.089060302734374,0.705339789390564,0.7267188429832458,0.6419610977172852
1776444541259077400,25.114077392578125,0.7864029407501221,0.8662599921226501,0.5949456691741943
1776444541284095200,25.13909521484375,0.5571295619010925,1.0239875316619873,0.35842153429985046
1776444541309113300,25.16411328125,0.4070279598236084,0.9834161400794983,0.16104666888713837
1776444541334131500,25.18913134765625,0.38664543628692627,0.7897377610206604,0.13309812545776367
1776444541359149600,25.214149658203127,0.3452386260032654,0.5686975121498108,0.15338635444641113
1776444541384167400,25.23916748046875,0.2971011698246002,0.3765813708305359,0.15893664956092834
1776444541409185500,25.264185546875,0.20909729599952698,0.18919070065021515,0.15777631103992462
1776444541434203400,25.289203369140626,0.042328014969825745,0.07527770847082138,0.18836404383182526
1776444541459221200,25.31422119140625,-0.13071992993354797,0.0049004824832081795,0.2357049286365509
1776444541484238300,25.33923828125,-0.2650716006755829,-0.16376043856143951,0.36341896653175354
1776444541509256400,25.36425634765625,-0.4953290522098541,-0.35352984070777893,0.3806666433811188
1776444541534274300,25.3892744140625,-0.5068301558494568,-0.19815009832382202,0.27362409234046936
1776444541559292400,25.41429248046875,-0.39232516288757324,-0.03850158676505089,0.22449062764644623
1776444541584310300,25.439310302734373,-0.3496517539024353,0.12069286406040192,0.10375409573316574
1776444541609328400,25.464328369140624,-0.5545058250427246,0.36048948764801025,0.28773191571235657
1776444541634346500,25.489346435546874,-0.5004721283912659,0.7489956617355347,0.3248976469039917
1776444541659364400,25.5143642578125,-0.4484616816043854,1.06165611743927,0.28146257996559143
1776444541684381400,25.53938134765625,-0.3467225432395935,1.071965217590332,0.46637171506881714
1776444541709399600,25.564399658203126,-0.2362423539161682,0.9505692720413208,0.6910639405250549
1776444541734417400,25.58941748046875,-0.10148347914218903,0.5016713738441467,1.014127492904663
1776444541759435500,25.614435546875,0.1535506695508957,0.058944810181856155,1.1273353099822998
1776444541784453400,25.639453369140625,0.12822774052619934,-0.15139484405517578,1.4160940647125244
1776444541809471500,25.664471435546876,0.18725964426994324,-0.11519449949264526,1.5951173305511475
1776444541834489300,25.6894892578125,0.026159698143601418,-0.04466547071933746,1.7181413173675537
1776444541859507200,25.714507080078125,-0.022012891247868538,-0.0336434468626976,1.7035388946533203
1776444541884524300,25.739524169921875,-0.027099527418613434,-0.19009830057621002,1.5815634727478027
1776444541909542400,25.76454248046875,-0.16328559815883636,-0.2974711060523987,1.5738078355789185
1776444541934560300,25.789560302734376,-0.18897444009780884,-0.17229320108890533,1.7149391174316406
1776444541959578400,25.814578369140627,-0.10672324895858765,-0.0884675458073616,1.8460392951965332
1776444541984596500,25.839596435546873,0.36076033115386963,-0.03743525594472885,1.9131810665130615
1776444542009614600,25.864614501953124,0.8358719944953918,-0.05169355496764183,1.9155116081237793
1776444542034632400,25.889632568359374,1.1968154907226562,-0.21665427088737488,1.8306596279144287
1776444542059649500,25.9146494140625,0.9675527811050415,-0.3742159307003021,1.7176997661590576
1776444542084667400,25.93966748046875,1.0260568857192993,-0.45110565423965454,1.7208702564239502
1776444542109685500,25.964685546875,1.1664475202560425,-0.48059776425361633,1.8325978517532349
1776444542134703400,25.989703369140624,1.2204798460006714,-0.5713428854942322,2.0037198066711426
1776444542159721700,26.0147216796875,1.31434965133667,-0.6907579302787781,2.1876630783081055
1776444542184740000,26.039739990234374,1.0631599426269531,-0.9724529981613159,2.299734354019165
1776444542209758000,26.064758056640624,1.0304635763168335,-1.0417990684509277,2.3675496578216553
1776444542234776000,26.089776123046875,1.2754004001617432,-0.8735743761062622,2.403485059738159
1776444542259793200,26.114793212890625,1.4448565244674683,-0.7802861928939819,2.37479567527771
1776444542284811000,26.13981103515625,1.447880506515503,-0.7182025909423828,2.3695600032806396
1776444542309829000,26.1648291015625,1.2295503616333008,-0.6399655938148499,2.3625080585479736
1776444542334847000,26.189846923828124,1.1107741594314575,-0.14503362774848938,2.294142246246338
1776444542359864800,26.21486474609375,1.4151254892349243,0.1841578483581543,2.2225382328033447
1776444542384883000,26.239883056640625,1.1195257902145386,0.3894050121307373,2.2307469844818115
1776444542409900800,26.26490087890625,0.8265655636787415,0.5797683000564575,2.129265785217285
1776444542434918000,26.28991796875,0.7199895977973938,0.8806594014167786,2.0080618858337402
1776444542459936000,26.31493603515625,0.5489880442619324,1.1234606504440308,1.8939530849456787
1776444542484953900,26.339953857421875,0.536396861076355,1.3042634725570679,1.8094003200531006
1776444542509972000,26.364971923828126,0.3757653832435608,1.3316683769226074,1.7901984453201294
1776444542534990000,26.389989990234376,0.22721530497074127,1.2068791389465332,1.7556055784225464
1776444542560008000,26.415008056640627,0.20989197492599487,1.1289494037628174,1.694798469543457
1776444542585026000,26.440026123046874,0.29076844453811646,1.0159213542938232,1.6409858465194702
1776444542610044000,26.4650439453125,0.11996874958276749,0.8241702914237976,1.5887444019317627
1776444542635061000,26.49006103515625,0.5316646695137024,0.5944641828536987,1.4073498249053955
1776444542660079000,26.5150791015625,0.6288431882858276,0.2210836410522461,1.143036961555481
1776444542685097000,26.540096923828123,0.29479995369911194,0.07107444107532501,0.9943154454231262
1776444542710115000,26.565114990234374,0.35563746094703674,0.03400297462940216,0.9497290253639221
1776444542735133000,26.5901328125,0.2146768867969513,-0.167573019862175,1.147133469581604
1776444542760150800,26.61515087890625,0.023363646119832993,-0.6836089491844177,1.4418559074401855
1776444542785168000,26.64016796875,0.04042758420109749,-1.1169278621673584,1.7191208600997925
1776444542810186000,26.66518603515625,0.017435183748602867,-1.120995283126831,1.8612565994262695
1776444542835203800,26.690203857421874,-0.08244001865386963,-0.7859891057014465,1.8642446994781494
1776444542860222000,26.715221923828125,-0.026635872200131416,-0.4700852036476135,1.808613657951355
1776444542885240000,26.740239990234375,-0.3933981657028198,-0.241841122508049,1.9603952169418335
1776444542910258200,26.765258056640626,-0.31369295716285706,-0.18527132272720337,2.0489819049835205
1776444542935276000,26.790276123046876,-0.24139291048049927,-0.20265324413776398,2.137219190597534
1776444542960293000,26.815293212890627,-0.1332792341709137,-0.056230250746011734,2.1468071937561035
1776444542985311000,26.84031103515625,0.054193995893001556,0.1155494973063469,2.1105918884277344
1776444543010329000,26.8653291015625,0.1764538586139679,0.15654221177101135,2.0010826587677
1776444543035347000,26.890346923828126,0.2624523937702179,0.18612459301948547,2.0656368732452393
1776444543060365000,26.915364990234377,0.30493247509002686,0.23792627453804016,2.107158660888672
1776444543085383000,26.9403828125,0.2577625811100006,0.2554810345172882,2.0660057067871094
1776444543110401000,26.965401123046874,0.2658681571483612,0.15991829335689545,1.956017017364502
1776444543135417900,26.99041796875,0.338249146938324,0.028844431042671204,1.9699735641479492
1776444543160435200,27.015435302734375,0.3308005630970001,-0.1361626386642456,2.0274744033813477
1776444543185453000,27.040453125,0.2399769127368927,-0.29765406250953674,2.078178882598877
1776444543210471200,27.06547119140625,0.10101050138473511,-0.41055718064308167,2.091120958328247
1776444543235489300,27.0904892578125,-0.010162889026105404,-0.4732027053833008,2.0879738330841064
1776444543260507400,27.11550732421875,-0.05632505938410759,-0.48214268684387207,1.9895296096801758
1776444543285525200,27.140525146484375,0.025836391374468803,-0.5002641677856445,1.8328723907470703
1776444543310542300,27.165542236328125,0.08725287765264511,-0.41916424036026,1.6350661516189575
1776444543335560400,27.190560546875,0.12121058255434036,-0.3154231905937195,1.4353567361831665
1776444543360578300,27.215578369140626,0.17009876668453217,-0.1437843292951584,1.231103777885437
1776444543385596200,27.24059619140625,0.208778515458107,0.046789076179265976,1.0082120895385742
1776444543410614300,27.2656142578125,0.1641061156988144,0.1812928318977356,0.8737115263938904
1776444543435632000,27.290632080078126,0.08073532581329346,0.2087465524673462,0.8058299422264099
1776444543460649200,27.315649169921876,0.17319069802761078,0.19652344286441803,0.714821994304657
1776444543485667300,27.340667236328127,0.2512383460998535,0.14573030173778534,0.6293520927429199
1776444543510685200,27.365685302734374,0.24262195825576782,-0.032768864184617996,0.7383241057395935
1776444543535703300,27.390703369140624,0.23503781855106354,-0.3352504372596741,0.8085389137268066
1776444543560721200,27.41572119140625,0.17622269690036774,-0.5551018118858337,0.8210206031799316
1776444543585739300,27.4407392578125,0.21129439771175385,-0.4967077672481537,0.7402849793434143
1776444543610756000,27.465756103515623,0.4426839351654053,-0.22568772733211517,0.5944108963012695
1776444543635774500,27.4907744140625,0.3984816074371338,0.0911908969283104,0.3011012375354767
1776444543660792300,27.515792236328124,0.341869980096817,0.3671090304851532,0.2573945224285126
1776444543685810400,27.540810546875,0.2698141634464264,0.4439880847930908,0.37231019139289856
1776444543710828300,27.565828369140625,0.22181788086891174,0.2347152978181839,0.48822134733200073
1776444543735846400,27.590846435546876,0.1825208067893982,0.06054350361227989,0.611268162727356
1776444543760863200,27.61586328125,0.2247103452682495,0.18844793736934662,0.6293649077415466
1776444543785881300,27.64088134765625,0.031319040805101395,0.3461582064628601,0.7738685607910156
1776444543810899200,27.665899169921875,-0.13090501725673676,0.3601488471031189,0.9631670713424683
1776444543835917300,27.690917236328126,-0.29468488693237305,0.2676202654838562,1.0773844718933105
1776444543860935200,27.71593505859375,-0.35739514231681824,0.11403336375951767,1.1978565454483032
1776444543885953300,27.740953369140627,-0.15544897317886353,-0.010301372967660427,1.2165000438690186
1776444543910970000,27.76597021484375,0.06580004841089249,-0.043787695467472076,1.1086907386779785
1776444543935988200,27.79098828125,0.13845720887184143,-0.050935354083776474,1.1283714771270752
1776444543961006000,27.816006103515626,0.11643579602241516,-0.12292006611824036,1.0123567581176758
1776444543986024200,27.841024169921877,0.05476071685552597,-0.18618105351924896,0.90362948179245
1776444544011042300,27.866042236328123,0.014389592222869396,-0.259191632270813,0.9565595388412476
1776444544036060400,27.891060302734374,0.010063286870718002,-0.38086265325546265,0.943976879119873
1776444544061077200,27.9160771484375,-0.030471356585621834,-0.47045406699180603,0.9773619771003723
1776444544086095400,27.941095458984375,-0.007529022637754679,-0.4957415759563446,1.1345505714416504
1776444544111113200,27.96611328125,0.019785156473517418,-0.47339844703674316,1.1798282861709595
1776444544136131300,27.99113134765625,-0.03588263317942619,-0.3906199634075165,1.2443116903305054
1776444544161149400,28.0161494140625,-0.0638096034526825,-0.26372191309928894,1.440617322921753
1776444544186167600,28.04116748046875,-0.019280221313238144,-0.109749935567379,1.5230085849761963
1776444544211184400,28.066184326171875,0.029500367119908333,0.038308240473270416,1.5337570905685425
1776444544236202500,28.091202392578126,0.1359517127275467,0.18964263796806335,1.5670106410980225
1776444544261220600,28.116220703125,0.23597018420696259,0.3374730944633484,1.5264812707901
1776444544286238700,28.14123876953125,0.31742510199546814,0.4791626036167145,1.4450922012329102
1776444544311256600,28.166256591796873,0.3599605858325958,0.5545803904533386,1.3411937952041626
1776444544336273700,28.191273681640624,0.4382103681564331,0.5148931741714478,1.3555047512054443
1776444544361291500,28.21629150390625,0.4453257918357849,0.37152642011642456,1.4464913606643677
1776444544386309600,28.2413095703125,0.3688696324825287,0.15101854503154755,1.608292818069458
1776444544411327500,28.266327392578123,0.33441871404647827,-0.059837501496076584,1.6987545490264893
1776444544436345600,28.291345703125,0.2753103971481323,-0.25800490379333496,1.6620607376098633
1776444544461363500,28.316363525390624,0.21848200261592865,-0.44468238949775696,1.601334571838379
1776444544486380500,28.341380615234375,0.16442036628723145,-0.5291399955749512,1.526711106300354
1776444544511398700,28.366398681640625,0.07045792043209076,-0.5344418287277222,1.3773770332336426
1776444544536416500,28.39141650390625,-0.17767971754074097,-0.45541200041770935,1.130987524986267
1776444544561434600,28.4164345703125,-0.32310882210731506,-0.3533191680908203,0.8662576079368591
1776444544586452500,28.441452392578125,-0.4135172665119171,-0.2937575876712799,0.7751716375350952
1776444544611469600,28.466469482421875,-0.4341258704662323,-0.18105606734752655,0.5940575003623962
1776444544636487400,28.4914873046875,-0.5411607027053833,-0.1061892881989479,0.3968392312526703
1776444544661505800,28.516505859375,-0.4958614110946655,-0.15030401945114136,0.46232983469963074
1776444544686523600,28.541523681640626,-0.3449515402317047,-0.23781229555606842,0.5303927659988403
1776444544711541800,28.566541748046873,-0.19874079525470734,-0.2851329445838928,0.5208002924919128
1776444544736559600,28.5915595703125,-0.30860576033592224,-0.2484617382287979,0.5995105504989624
1776444544761576700,28.61657666015625,-0.29635924100875854,-0.06165723875164986,0.6752452850341797
1776444544786594600,28.641594482421876,-0.13992327451705933,0.2203933596611023,0.7948017716407776
1776444544811612700,28.66661279296875,0.013741112314164639,0.36447757482528687,1.1025351285934448
1776444544836630500,28.691630615234374,0.09680510312318802,0.3652629256248474,1.2602336406707764
1776444544861647600,28.716647705078124,0.07764259725809097,0.35982128977775574,1.458929419517517
1776444544886665500,28.74166552734375,-0.1100708469748497,0.5050157904624939,1.6218584775924683
1776444544911683600,28.76668359375,0.15313363075256348,0.5100541710853577,1.7664257287979126
1776444544936701400,28.791701416015623,0.2595791220664978,0.5124446749687195,1.9239431619644165
1776444544961719600,28.816719482421874,0.3019731640815735,0.440529465675354,2.049046277999878
1776444544986736600,28.841736572265624,0.2562277913093567,0.48820188641548157,2.3139777183532715
1776444545011754500,28.86675439453125,0.1748999059200287,0.4985504150390625,2.514178991317749
1776444545036772600,28.891772705078125,0.173211470246315,0.42586156725883484,2.485562801361084
1776444545061790700,28.916790771484376,-0.09724052995443344,0.041184186935424805,2.4709277153015137
1776444545086808600,28.94180859375,-0.41752347350120544,-0.4602181911468506,2.345985174179077
1776444545111825700,28.96682568359375,-0.5268611311912537,-0.8337087035179138,2.1864686012268066
1776444545136843800,28.99184375,-0.27945080399513245,-1.016985297203064,2.136064052581787
1776444545161860900,29.01686083984375,-0.23710975050926208,-0.9865283370018005,2.297921657562256
1776444545186879000,29.04187890625,-0.3578268587589264,-0.7144094705581665,2.6192450523376465
1776444545211896800,29.066896728515626,-0.3770953416824341,-0.3786216080188751,2.7700068950653076
1776444545236915000,29.0919150390625,0.03797108307480812,-0.12241166830062866,2.676826000213623
1776444545261931800,29.116931884765624,0.5954309105873108,0.1443193554878235,2.5652828216552734
1776444545286950000,29.141949951171874,0.5152361989021301,0.7107348442077637,2.573697328567505
1776444545311967700,29.1669677734375,0.5555697679519653,1.020322561264038,2.5143630504608154
1776444545336986000,29.191986083984375,0.6424079537391663,1.2251232862472534,2.422849655151367
1776444545362004000,29.21700390625,0.9178888201713562,1.1690893173217773,2.364044189453125
1776444545387021000,29.24202099609375,0.9105920195579529,1.0789594650268555,2.267209529876709
1776444545412039200,29.2670390625,0.8721367716789246,0.9705531001091003,2.044116258621216
1776444545437057000,29.29205712890625,0.8309637904167175,0.7600464820861816,1.820330023765564
1776444545462075000,29.317074951171875,0.7531275749206543,0.528023898601532,1.5996603965759277
1776444545487093000,29.342093017578126,0.5089007616043091,0.3727671802043915,1.3418020009994507
1776444545512110000,29.367110107421876,0.29244276881217957,0.19865557551383972,1.165661334991455
1776444545537128000,29.3921279296875,0.17532281577587128,0.01841016672551632,1.114853024482727
1776444545562146000,29.41714599609375,0.05889048054814339,-0.13785746693611145,1.19839346408844
1776444545587164000,29.442163818359376,-0.021151890978217125,-0.30852535367012024,1.2854082584381104
1776444545612182000,29.46718212890625,-0.06108945235610008,-0.41488081216812134,1.3118342161178589
1776444545637198800,29.49219873046875,-0.11157393455505371,-0.41415804624557495,1.3284324407577515
1776444545662217000,29.517217041015623,-0.17987468838691711,-0.32470324635505676,1.3187360763549805
1776444545687234800,29.54223486328125,-0.20045560598373413,-0.21799172461032867,1.3092036247253418
1776444545712253000,29.5672529296875,-0.18409313261508942,-0.1763811558485031,1.2169601917266846
1776444545737271000,29.59227099609375,-0.15751107037067413,-0.1392660140991211,1.0387492179870605
1776444545762287900,29.617287841796873,-0.22648799419403076,-0.08269061893224716,0.8213252425193787
1776444545787306000,29.642305908203124,-0.2787003517150879,-0.02600204013288021,0.5724978446960449
1776444545812324000,29.667323974609374,-0.24247069656848907,0.008875250816345215,0.35699594020843506
1776444545837342000,29.692342041015625,-0.1370670348405838,0.0431610532104969,0.18206806480884552
1776444545862359000,29.717359130859375,-0.20228812098503113,0.09608232229948044,0.025609489530324936
1776444545887377000,29.742376953125,-0.3511156737804413,0.014029266312718391,-0.005245361942797899
1776444545912395000,29.76739501953125,-0.20285217463970184,0.10443692654371262,0.34493502974510193
1776444545937412900,29.792412841796875,-0.09485381096601486,0.1602378785610199,0.3623286485671997
1776444545962431000,29.817430908203125,-0.1404641717672348,0.03767627105116844,0.4571552872657776
1776444545987448000,29.842447998046875,-0.19787313044071198,-0.14791862666606903,0.31068676710128784
1776444546012466000,29.8674658203125,-0.2669430077075958,-0.3738929033279419,0.06145616993308067
1776444546037484000,29.892484130859376,-0.1611984819173813,-0.5051510334014893,-0.191856250166893
1776444546062502000,29.917501953125,0.3474924564361572,-0.08773571252822876,-0.04936009272933006
1776444546087520000,29.94252001953125,0.575616180896759,0.14684510231018066,-0.10931503772735596
1776444546112536800,29.967536865234376,0.7411822080612183,0.316953182220459,-0.013246296904981136
1776444546137555000,29.992554931640626,0.5930196642875671,0.2940843403339386,0.008217982016503811
1776444546162573300,30.0175732421875,0.48583993315696716,0.17283329367637634,0.11939723044633865
1776444546187591400,30.04259130859375,0.3375657796859741,0.057733070105314255,0.18506652116775513
1776444546212609300,30.067609375,0.34771960973739624,-0.05429466441273689,0.35089704394340515
1776444546237626400,30.09262646484375,0.23215973377227783,-0.023490145802497864,0.49576446413993835
1776444546262644200,30.117644287109375,-0.023905599489808083,0.10873420536518097,0.6258828043937683
1776444546287662300,30.142662353515625,-0.13541269302368164,0.2946808934211731,0.6967638731002808
1776444546312680200,30.16768017578125,-0.07794060558080673,0.591844916343689,0.6745238304138184
1776444546337697300,30.192697265625,0.08998502045869827,0.5961185097694397,0.6113712191581726
1776444546362715100,30.217715087890625,0.03368046507239342,0.45905786752700806,0.46846839785575867
1776444546387733500,30.2427333984375,-0.13350826501846313,0.22399768233299255,0.37376001477241516
1776444546412751400,30.26775146484375,-0.3428891897201538,0.08254920691251755,0.41698870062828064
1776444546437769500,30.29276953125,-0.5691020488739014,-0.17460589110851288,0.6726433634757996
1776444546462786600,30.31778662109375,-0.582281231880188,-0.22029908001422882,0.8775653839111328
1776444546487804400,30.342804443359373,-0.3623813986778259,-0.24794162809848785,1.0727039575576782
1776444546512822300,30.367822265625,-0.13391119241714478,-0.25609302520751953,1.2900853157043457
1776444546537840400,30.39284033203125,0.06929172575473785,-0.1705927699804306,1.3769195079803467
1776444546562857500,30.417857421875,0.26793184876441956,-0.040578585118055344,1.4281808137893677
1776444546587875300,30.442875244140627,0.3637015223503113,0.09629245102405548,1.4316445589065552
1776444546612893400,30.4678935546875,0.42276644706726074,0.13700419664382935,1.4579081535339355
1776444546637911300,30.492911376953124,0.43735790252685547,0.13043656945228577,1.4993228912353516
1776444546662929400,30.517929443359375,0.3489995300769806,0.020833110436797142,1.6424148082733154
1776444546687946200,30.5429462890625,0.34688472747802734,0.031151793897151947,1.7614349126815796
1776444546712964400,30.56796435546875,0.4955591559410095,0.12659096717834473,1.8761698007583618
1776444546737982200,30.592982177734374,0.5497219562530518,0.09088916331529617,1.9844517707824707
1776444546763000300,30.618000244140624,0.3571717143058777,-0.0421418622136116,2.069880485534668
1776444546788017200,30.64301708984375,0.3890303075313568,-0.14328739047050476,2.086766481399536
1776444546813035300,30.66803515625,0.36474308371543884,-0.32063713669776917,2.0409910678863525
1776444546838053000,30.69305322265625,0.19360221922397614,-0.3727538585662842,1.9469596147537231
1776444546863071500,30.718071533203126,0.3372110426425934,-0.38355618715286255,1.8759874105453491
1776444546888089300,30.74308935546875,0.2941730320453644,-0.3279635012149811,1.8014905452728271
1776444546913106400,30.7681064453125,0.34896865487098694,-0.17761580646038055,1.7430229187011719
1776444546938124500,30.79312451171875,0.45281675457954407,0.032576851546764374,1.68471360206604
1776444546963142400,30.818142333984376,0.3950032591819763,0.22299127280712128,1.6724175214767456
1776444546988160300,30.84316015625,0.4456408619880676,0.4804593026638031,1.6712270975112915
1776444547013177300,30.86817724609375,0.6699773073196411,0.7316206693649292,1.6754026412963867
1776444547038195500,30.893195556640624,0.5492585897445679,0.8781936168670654,1.673305630683899
1776444547063213300,30.91821337890625,0.4548649787902832,0.9858196973800659,1.6283777952194214
1776444547088231400,30.9432314453125,0.4403584897518158,1.0117559432983398,1.5923486948013306
1776444547113249300,30.968249267578123,0.2511131763458252,0.809346616268158,1.5774132013320923
1776444547138266400,30.993266357421874,0.08068153262138367,0.5485478043556213,1.4925841093063354
1776444547163287800,31.018287841796877,0.2579987943172455,0.37175437808036804,1.4608362913131714
1776444547188306000,31.043305908203124,0.3544555604457855,0.22135183215141296,1.4786248207092285
1776444547213323800,31.06832373046875,0.3408430814743042,0.0205681249499321,1.4088585376739502
1776444547238340900,31.0933408203125,0.3835758864879608,-0.12377334386110306,1.303310513496399
1776444547263358700,31.118358642578126,0.3620538115501404,-0.20260557532310486,1.2692161798477173
